# 
#                 columns are tag, mass, x, y, z, vx, vy, vz, ax, ay, az, EK, EU, E
#                 Time=2.000000
# 
1.000000,0.002000,-1.996913,0.195609,-0.172254,-2.953943,1.363903,1.176155,2.995319,-0.171475,0.355922,55.761887,-104.086754,-48.324867
2.000000,0.002000,-1.300405,1.519913,-3.485043,-1.832231,-0.937875,-0.099873,0.402540,-0.472381,1.074317,0.000000,0.000000,0.000000
3.000000,0.002000,-1.883527,1.553773,-0.586675,0.051946,0.563193,-0.200526,1.828623,-1.499582,0.581117,0.000000,0.000000,0.000000
4.000000,0.002000,0.439976,0.213334,1.581151,0.568214,1.980116,1.217165,-0.964410,-0.245033,-3.739593,0.000000,0.000000,0.000000
5.000000,0.002000,-0.155175,-0.106514,1.042547,-1.084843,-0.254925,-0.639848,0.108824,0.355353,-4.606855,0.000000,0.000000,0.000000
6.000000,0.002000,-0.196873,0.866505,-0.445332,-1.885617,-0.038763,-1.836445,1.080067,-3.984210,1.953169,0.000000,0.000000,0.000000
7.000000,0.002000,-0.132576,0.408509,0.843869,-0.394760,-0.779152,4.466961,0.178125,-1.703539,-4.498379,0.002000,-1.996913,0.000000
8.000000,0.002000,-1.455386,-1.337687,-1.109407,0.224436,0.330204,-0.577172,1.658818,1.483464,1.363727,0.002000,-1.300405,0.000000
9.000000,0.002000,-0.335916,0.212329,-0.112282,-4.042438,2.681450,0.278212,1.203179,-2.520710,1.506119,0.002000,-1.883527,0.000000
10.000000,0.002000,2.152109,-0.926320,-2.330746,1.946329,-0.058228,-1.314184,-1.115788,0.479282,1.228190,0.002000,0.439976,0.000000
11.000000,0.002000,-0.474673,-0.399990,-0.784572,-1.379926,-1.935838,0.069577,2.207996,1.623337,3.633699,0.002000,-0.155175,0.000000
12.000000,0.002000,2.823426,1.465317,-0.033884,2.325590,1.546679,0.080038,-1.583416,-0.813313,0.006052,0.002000,-0.196873,0.000000
13.000000,0.002000,1.171647,0.169005,-1.299038,1.048687,1.784684,0.601134,-2.537971,-0.204557,2.544235,0.002000,-0.132576,0.000000
14.000000,0.002000,-1.610467,0.900154,2.713784,-1.380558,0.116726,1.316836,0.854761,-0.433505,-1.463058,0.002000,-1.455386,0.000000
15.000000,0.002000,-0.849408,2.139738,0.085299,1.436865,-1.760794,0.391578,0.967600,-2.586033,-0.165879,0.002000,-0.335916,0.000000
16.000000,0.002000,0.770437,-0.146586,-2.346264,0.611404,-1.617752,-2.280294,-0.689525,0.268932,2.416835,0.002000,2.152109,0.000000
17.000000,0.002000,-0.334264,-0.105086,-0.281920,-2.847968,1.734769,-0.728412,3.020303,1.425131,3.571598,0.002000,-0.474673,0.000000
18.000000,0.002000,0.860130,1.184351,0.119488,-0.137808,-1.366747,-1.254790,-2.375245,-3.468480,-0.422651,0.002000,2.823426,0.000000
19.000000,0.002000,-0.128864,0.187768,0.459487,0.430046,-1.142034,-1.023844,0.659460,-1.327375,-1.707298,0.002000,1.171647,0.000000
20.000000,0.002000,0.673582,0.493903,0.514698,-0.820151,1.156320,0.114924,-3.977560,-2.937603,-1.914476,0.002000,-1.610467,0.000000
21.000000,0.002000,-0.839574,0.231851,-0.380945,0.016754,1.656249,1.694824,4.019078,-0.737642,2.374565,0.002000,-0.849408,0.000000
22.000000,0.002000,1.943716,-1.088090,0.554285,-0.403976,-0.126603,0.017687,-2.150904,1.466894,-0.650652,0.002000,0.770437,0.000000
23.000000,0.002000,1.161688,-1.520502,-0.406845,-1.354156,-0.926076,-2.022491,-1.549657,1.442792,-0.182625,0.002000,-0.334264,0.000000
24.000000,0.002000,-0.524832,0.419192,0.066020,-0.530140,-2.568993,-0.466694,3.659619,-1.955246,0.119750,0.002000,0.860130,0.000000
25.000000,0.002000,0.492964,-0.633499,0.239537,2.030622,1.019827,1.994458,-2.907972,3.849243,-2.107315,0.002000,-0.128864,0.000000
26.000000,0.002000,2.341674,-0.080613,-1.483414,1.027853,-0.895696,-1.384443,-1.892393,-0.054871,1.340811,0.002000,0.673582,0.000000
27.000000,0.002000,0.085890,0.981922,-0.890424,0.417921,0.734120,0.631820,-0.624500,-3.516180,2.620066,0.002000,-0.839574,0.000000
28.000000,0.002000,0.428468,0.330495,-0.720516,1.170223,2.347126,-1.031093,-2.145348,-1.457158,3.737406,0.002000,1.943716,0.000000
29.000000,0.002000,-2.268050,-2.459273,-0.164696,-2.162054,-2.264516,0.468865,1.128372,1.198885,0.066265,0.002000,1.161688,0.000000
30.000000,0.002000,-0.647401,-0.045974,-2.152066,-0.260635,-0.612749,0.253564,0.688946,0.047940,2.510177,0.002000,-0.524832,0.000000
31.000000,0.002000,0.901907,0.869224,-0.196389,1.700164,-0.672515,-0.518790,-4.091348,-2.819916,1.088641,0.002000,0.492964,0.000000
32.000000,0.002000,-0.140178,0.806981,0.636646,-1.363156,-0.307505,-0.908725,0.999702,-3.463778,-2.909617,0.002000,2.341674,0.000000
33.000000,0.002000,0.264439,-0.670939,0.629876,-0.595305,2.430928,-0.765207,-3.091568,2.853673,-2.735256,0.002000,0.085890,0.000000
34.000000,0.002000,-2.091430,-1.465629,-0.951424,-0.683724,0.391771,-1.087614,1.681702,1.155208,0.736923,0.002000,0.428468,0.000000
35.000000,0.002000,-0.073522,-1.670196,2.790128,-0.914060,-1.231745,2.335724,0.041954,0.862338,-1.450588,0.002000,-2.268050,0.000000
36.000000,0.002000,-1.855814,-1.032427,2.300445,-0.611261,-1.177934,1.837841,1.508959,0.618107,-1.186457,0.002000,-0.647401,0.000000
37.000000,0.002000,-2.621940,-2.438533,-0.137962,-2.128804,-2.244324,0.817491,1.117054,1.036874,0.041097,0.002000,0.901907,0.000000
38.000000,0.002000,-1.765161,-0.723868,-0.536501,0.541012,-0.517345,1.184316,2.345441,0.815729,0.538572,0.002000,-0.140178,0.000000
39.000000,0.002000,0.085817,-0.250517,0.917491,0.465726,-1.358658,-1.373828,-0.101044,1.279926,-5.066290,0.002000,0.264439,0.000000
40.000000,0.002000,2.170051,-1.605470,0.132335,0.988574,-0.404264,0.727431,-1.746361,1.368667,-0.113480,0.002000,-2.091430,0.000000
41.000000,0.002000,0.284156,0.223885,-1.217988,0.036602,-1.375645,1.503770,-1.096547,-0.566197,4.593693,0.002000,-0.073522,0.000000
42.000000,0.002000,-0.025345,-0.372684,0.748461,-2.682409,2.478307,-1.622100,-0.353699,2.531019,-4.422364,0.002000,-1.855814,0.000000
43.000000,0.002000,-1.765610,-1.707740,0.983584,-2.098511,0.050611,1.628252,1.419366,1.362811,-0.664426,0.002000,-2.621940,0.000000
44.000000,0.002000,0.896901,-0.261266,-0.538879,0.047382,1.096417,-1.252768,-3.727064,1.463503,3.276378,0.002000,-1.765161,0.000000
45.000000,0.002000,-0.824583,0.129236,-0.036278,-0.816732,0.873773,2.409623,4.281841,-0.259289,0.015056,0.002000,0.085817,0.000000
46.000000,0.002000,-0.361116,0.522287,-0.925134,-1.564800,-0.411709,-0.115378,1.455882,-2.265838,3.871809,0.002000,2.170051,0.000000
47.000000,0.002000,-1.857108,0.753459,1.704227,-0.534116,-0.223554,0.038184,1.537959,-0.734844,-1.543567,0.002000,0.284156,0.000000
48.000000,0.002000,-0.155311,1.040531,0.644315,-1.095417,1.545891,0.064423,0.988629,-3.857907,-2.800060,0.002000,-0.025345,0.000000
49.000000,0.002000,-2.205982,-0.743130,0.467571,-3.310702,-1.048652,0.391021,2.431968,0.777139,-0.460516,0.002000,-1.765610,0.000000
50.000000,0.002000,-1.279241,0.005665,-0.883710,1.444278,-1.001614,0.025984,3.403415,-0.193408,1.951372,0.002000,0.896901,0.000000
51.000000,0.002000,-0.461510,1.769598,-0.662510,-0.773180,1.425994,-0.442092,0.454304,-2.497584,0.311112,0.002000,-0.824583,0.000000
52.000000,0.002000,-0.945801,-0.189222,-1.286813,1.070878,0.280206,-0.193977,3.029917,0.661453,3.221211,0.002000,-0.361116,0.000000
53.000000,0.002000,-0.558208,1.131264,0.957419,0.959548,-0.993069,-0.918756,1.347609,-2.848987,-2.453040,0.002000,-1.857108,0.000000
54.000000,0.002000,2.149883,1.367410,0.321807,0.563197,0.319587,1.480135,-1.936694,-1.140014,-0.323014,0.002000,-0.155311,0.000000
55.000000,0.002000,1.303764,-0.096471,-0.456441,1.470748,-0.454640,0.656310,-4.111290,0.496074,1.713941,0.002000,-2.205982,0.000000
56.000000,0.002000,0.363656,-0.276459,-0.654213,0.368329,0.716173,-2.986531,-2.060160,1.139079,4.176296,0.002000,-1.279241,0.000000
57.000000,0.002000,-0.932676,-0.354741,-0.782716,-2.287669,2.554926,1.137709,3.542678,1.352195,3.276052,0.002000,-0.461510,0.000000
58.000000,0.002000,-0.793370,-2.035386,-0.045314,-0.955212,-2.557620,-0.831071,0.926459,2.479902,0.085170,0.002000,-0.945801,0.000000
59.000000,0.002000,-1.105372,0.669470,0.263757,-0.053076,-0.131322,1.960611,3.905478,-2.142014,-0.542253,0.002000,-0.558208,0.000000
60.000000,0.002000,0.242990,0.478014,-0.445688,1.823203,-0.175010,0.471654,-1.949671,-2.067542,3.230322,0.002000,2.149883,0.000000
61.000000,0.002000,0.222220,-0.811197,-0.366377,-2.769858,-0.411687,0.610527,-1.457040,3.503962,0.741721,0.002000,1.303764,0.000000
62.000000,0.002000,0.597084,-0.457357,3.176634,-0.580377,-0.216461,3.025104,-0.214771,0.289484,-1.676695,0.002000,0.363656,0.000000
63.000000,0.002000,-0.537416,0.078131,-0.271978,1.759588,-0.429480,1.101411,3.560410,-0.837869,2.094037,0.002000,-0.932676,0.000000
64.000000,0.002000,-0.432791,-0.884427,-0.456224,2.469114,0.096058,1.142898,2.801785,0.867275,1.827433,0.002000,-0.793370,0.000000
65.000000,0.002000,-0.805792,-1.706950,0.299777,1.020586,-1.127366,1.115558,1.308144,2.829502,-0.550460,0.002000,-1.105372,0.000000
66.000000,0.002000,1.839363,-0.303048,0.065071,-0.403302,0.679382,0.899013,-3.269347,0.628501,-0.150748,0.002000,0.242990,0.000000
67.000000,0.002000,-0.348051,0.043846,-0.041575,-3.333639,-3.347343,1.144567,1.278376,-0.229750,0.357008,0.002000,0.222220,0.000000
68.000000,0.002000,-0.962530,1.327583,-1.815695,-0.553123,1.597221,-0.051064,1.015985,-1.278345,1.905167,0.002000,0.597084,0.000000
69.000000,0.002000,-0.803229,0.915580,-0.344318,1.830187,2.329390,2.192543,2.922767,-3.279704,1.266604,0.002000,-0.537416,0.000000
70.000000,0.002000,-0.689658,1.238737,-1.329384,-1.140699,0.184381,0.554350,0.908497,-2.063254,2.241120,0.002000,-0.432791,0.000000
71.000000,0.002000,0.903536,1.241487,-0.080342,0.395173,-0.939950,1.627321,-2.496819,-3.149225,0.177380,0.002000,-0.805792,0.000000
72.000000,0.002000,0.128606,1.175564,-1.588850,-0.583112,-0.914232,-0.142846,-0.302148,-1.760736,2.310935,0.002000,1.839363,0.000000
73.000000,0.002000,-0.086485,-0.104141,-1.047604,-1.611512,1.145577,-3.899161,0.655979,0.161700,4.545304,0.002000,-0.348051,0.000000
74.000000,0.002000,0.058442,0.162197,-0.071623,0.169354,2.629159,1.056787,1.771541,-0.563460,-0.960461,0.002000,-0.962530,0.000000
75.000000,0.002000,-2.134615,-0.164498,1.881836,-2.532529,0.269607,0.708133,1.739502,0.097344,-1.374641,0.002000,-0.803229,0.000000
76.000000,0.002000,-1.640285,0.788949,0.565519,0.696737,-0.010048,0.199400,2.860549,-1.509651,-0.949355,0.002000,-0.689658,0.000000
77.000000,0.002000,-0.748524,-0.287291,-0.724552,-2.339271,-1.025350,-0.396075,3.204311,1.395189,3.335153,0.002000,0.903536,0.000000
78.000000,0.002000,-0.547317,-0.680462,0.032131,0.432847,1.371941,2.384629,3.340315,3.958749,-0.588731,0.002000,0.128606,0.000000
79.000000,0.002000,-0.471432,0.507354,0.777330,-2.790216,-1.308307,0.150921,2.354785,-2.527249,-4.247617,0.002000,-0.086485,0.000000
80.000000,0.002000,1.438601,0.464706,-0.781583,1.252024,2.948506,-1.713848,-3.327864,-0.988112,1.712312,0.002000,0.058442,0.000000
81.000000,0.002000,-0.557300,-0.211716,0.088482,1.566229,1.011189,0.104897,2.968868,1.181979,-0.417248,0.002000,-2.134615,0.000000
82.000000,0.002000,1.622177,1.256986,-1.000131,-0.021975,-0.105976,-1.629294,-1.840373,-1.516103,1.196702,0.002000,-1.640285,0.000000
83.000000,0.002000,-0.282548,0.539818,-1.845534,1.537076,1.194513,-0.477941,0.407559,-0.728710,3.009982,0.002000,-0.748524,0.000000
84.000000,0.002000,2.989280,0.470337,0.526504,1.687388,0.613200,0.124011,-1.808993,-0.358269,-0.437671,0.002000,-0.547317,0.000000
85.000000,0.002000,1.130276,-0.946397,0.077969,1.675641,-1.892865,1.978311,-3.250186,2.519310,-0.105706,0.002000,-0.471432,0.000000
86.000000,0.002000,0.487788,-0.387027,-1.413970,-0.431547,1.291315,-1.843187,-1.209585,1.027283,3.551493,0.002000,1.438601,0.000000
87.000000,0.002000,0.416043,0.708197,0.642289,-2.058849,-0.314786,-1.642851,-1.905545,-3.682031,-2.863556,0.002000,-0.557300,0.000000
88.000000,0.002000,-0.821646,0.229184,-0.194267,-0.850289,2.189484,-0.409421,3.721288,-0.415509,1.312822,0.002000,1.622177,0.000000
89.000000,0.002000,1.159387,-2.606312,-1.065282,-0.271664,-1.889770,-0.505100,-0.849821,1.775631,0.664148,0.002000,-0.282548,0.000000
90.000000,0.002000,-0.060600,0.409947,0.002755,-0.740567,0.073675,1.006859,0.679601,-3.031351,-0.327295,0.002000,2.989280,0.000000
91.000000,0.002000,0.077294,1.699619,-0.592991,-1.799327,0.670427,-3.411747,-0.250529,-3.396425,1.131949,0.002000,1.130276,0.000000
92.000000,0.002000,-0.177576,0.303759,0.182934,1.610315,-2.380520,-1.476064,1.483877,-2.594606,-1.205428,0.002000,0.487788,0.000000
93.000000,0.002000,1.501764,-1.482960,1.599577,2.083424,-1.735080,-0.006312,-1.307332,1.268387,-1.250825,0.002000,0.416043,0.000000
94.000000,0.002000,-1.229123,0.290599,-0.420234,-3.385915,1.887100,0.915134,4.167245,-0.871760,1.610187,0.002000,-0.821646,0.000000
95.000000,0.002000,0.252161,-2.684142,-0.561927,-0.217448,-0.595351,-0.220244,-0.307949,2.147734,0.384782,0.002000,1.159387,0.000000
96.000000,0.002000,-0.415849,0.103439,-0.475996,1.345349,-1.419209,2.413955,2.272335,-0.517822,3.770845,0.002000,-0.060600,0.000000
97.000000,0.002000,-0.105865,1.013987,-0.547502,-2.181967,1.073232,-0.833764,-0.675279,-4.862417,2.362026,0.002000,0.077294,0.000000
98.000000,0.002000,0.300324,-1.808734,1.104728,0.339415,-2.738565,2.226072,-0.395226,2.276094,-1.381130,0.002000,-0.177576,0.000000
99.000000,0.002000,-0.054344,0.138654,0.464589,0.267144,-2.100259,-0.640089,0.806215,-2.111644,-0.794093,0.002000,1.501764,0.000000
100.000000,0.002000,0.743957,-0.615851,0.386553,1.115156,-1.741674,0.939763,-3.061618,3.200548,-1.769496,0.002000,-1.229123,0.000000
101.000000,0.002000,-0.779157,0.438985,0.338469,-0.334577,2.717080,-1.879308,3.231513,-2.398089,-1.624530,0.002000,0.252161,0.000000
102.000000,0.002000,-0.716683,0.750573,-0.351035,-0.719035,-0.589244,2.148311,3.486103,-3.406665,1.053084,0.002000,-0.415849,0.000000
103.000000,0.002000,0.780772,2.520649,-1.846845,0.087339,1.828598,-1.434724,-0.476873,-1.401997,1.025874,0.002000,-0.105865,0.000000
104.000000,0.002000,-0.455476,0.558592,0.660084,-1.189375,1.984412,-0.769491,0.429039,-3.244279,-6.056379,0.002000,0.300324,0.000000
105.000000,0.002000,1.006468,1.161722,-0.473363,-1.785616,-0.061818,-2.247757,-2.645862,-2.815144,1.217307,0.002000,-0.054344,0.000000
106.000000,0.002000,0.522905,0.480282,0.185555,-1.177201,-0.322855,0.515953,-2.744471,-2.777978,-1.163648,0.002000,0.743957,0.000000
107.000000,0.002000,-0.570925,-0.917630,-0.050620,0.051513,-0.210059,1.208769,2.727675,3.566882,0.109174,0.002000,-0.779157,0.000000
108.000000,0.002000,1.012626,0.024175,0.941368,-1.172956,0.285503,-1.254817,-4.136657,-0.298087,-4.110270,0.002000,-0.716683,0.000000
109.000000,0.002000,-0.377277,0.465495,-0.804972,1.893232,0.695988,-0.011951,1.770484,-2.196090,4.595967,0.002000,0.780772,0.000000
110.000000,0.002000,0.717392,-0.043407,0.948603,-3.033728,0.864647,-1.894352,-5.901618,-0.049717,-5.432796,0.002000,-0.455476,0.000000
111.000000,0.002000,1.319884,-0.595994,0.063859,1.014271,0.915825,-1.026546,-3.867248,1.810618,-0.331858,0.002000,1.006468,0.000000
112.000000,0.002000,3.266986,2.359597,0.377735,2.421805,1.081600,0.576666,-0.968721,-0.697819,-0.111790,0.002000,0.522905,0.000000
113.000000,0.002000,-2.382396,-3.038352,-3.523269,0.437860,-1.295994,-0.690438,0.334623,0.423684,0.494506,0.002000,-0.570925,0.000000
114.000000,0.002000,1.000349,0.583056,-0.308488,0.840517,2.495086,1.296154,-3.744682,-2.651694,1.137658,0.002000,1.012626,0.000000
115.000000,0.002000,-1.146464,-0.612429,-0.574778,-0.928181,0.182264,-0.523737,3.868093,2.076571,1.780787,0.002000,-0.377277,0.000000
116.000000,0.002000,0.274763,0.317896,-0.053385,0.307513,0.798655,-0.381656,-1.945205,-2.606351,0.409671,0.002000,0.717392,0.000000
117.000000,0.002000,0.825309,-0.160474,-0.020864,-0.952178,-1.488914,1.820024,-0.001993,-5.702326,0.388199,0.002000,1.319884,0.000000
118.000000,0.002000,-0.560523,0.542209,-0.315202,-0.750230,2.957784,0.902803,2.574499,-3.137090,1.791450,0.002000,3.266986,0.000000
119.000000,0.002000,2.097590,2.067131,1.156979,1.058070,1.239940,-0.072199,-1.275115,-1.212303,-0.679301,0.002000,-2.382396,0.000000
120.000000,0.002000,-0.254329,-0.274992,-0.488122,1.240339,1.427478,-1.037261,2.021317,0.642468,3.016756,0.002000,1.000349,0.000000
121.000000,0.002000,1.229983,0.500494,1.012575,0.088829,0.889643,-0.735057,-2.803356,-0.769532,-2.640781,0.002000,-1.146464,0.000000
122.000000,0.002000,-0.109295,0.092844,-0.149920,-1.165943,-0.259651,-0.938761,0.289934,-0.310058,1.544875,0.002000,0.274763,0.000000
123.000000,0.002000,-0.928109,2.351344,-1.159101,-0.918904,1.145266,-1.007089,0.738812,-1.856496,0.965376,0.002000,0.825309,0.000000
124.000000,0.002000,-0.540101,0.223539,-0.843435,-0.120377,-0.284669,-2.599917,2.023570,-0.946448,3.678590,0.002000,-0.560523,0.000000
125.000000,0.002000,-0.058040,0.068898,-1.607318,1.008531,-0.344789,0.943754,-0.030978,-0.438193,3.758671,0.002000,2.097590,0.000000
126.000000,0.002000,-0.367324,-0.805344,0.928847,-0.874149,-3.805618,0.556433,1.530803,2.475853,-3.827304,0.002000,-0.254329,0.000000
127.000000,0.002000,2.144461,-1.276798,-0.110311,1.893866,-0.335469,-1.691891,-2.043051,1.310985,0.134792,0.002000,1.229983,0.000000
128.000000,0.002000,-0.071948,-0.629654,-0.141315,-0.339839,4.125106,1.477471,0.765770,3.633604,0.583081,0.002000,-0.109295,0.000000
129.000000,0.002000,-1.558376,2.173876,1.178064,-0.774210,0.414896,0.215788,2.536679,-2.154156,-1.099233,0.002000,-0.928109,0.000000
130.000000,0.002000,2.148885,0.133728,0.945037,-0.148516,1.001744,0.320662,-2.021562,-0.153390,-0.916147,0.002000,-0.540101,0.000000
131.000000,0.002000,0.696548,-0.151469,-0.830216,-1.500299,1.495017,0.195616,-3.015048,0.566560,3.663041,0.002000,-0.058040,0.000000
132.000000,0.002000,-0.658221,0.653105,-0.753431,-1.480872,-2.145553,0.377506,2.592043,-2.359541,3.245469,0.002000,-0.367324,0.000000
133.000000,0.002000,1.421066,-1.765501,-0.928437,2.604068,-0.963705,0.478535,-1.335274,1.717564,0.854962,0.002000,2.144461,0.000000
134.000000,0.002000,-1.738611,1.195544,0.049508,-2.456864,1.618216,-1.414772,2.402316,-1.640777,-0.029409,0.002000,-0.071948,0.000000
135.000000,0.002000,-1.099988,-2.466110,1.595463,-0.789561,-2.520650,0.703869,0.652702,1.393047,-0.938127,0.002000,-1.558376,0.000000
136.000000,0.002000,0.516696,0.881309,-0.386228,-0.359671,-1.915922,-0.141443,-2.515571,-3.925171,1.463020,0.002000,2.148885,0.000000
137.000000,0.002000,-0.109430,-0.163590,-0.906941,0.875067,1.916556,-1.895005,0.677690,1.172639,4.423755,0.002000,0.696548,0.000000
138.000000,0.002000,-1.309681,-2.311386,-0.275648,-0.116909,-2.046681,-0.364666,1.017950,1.857089,0.205124,0.002000,-0.658221,0.000000
139.000000,0.002000,0.891768,0.414367,0.192337,3.483441,-0.036891,0.302938,-4.094321,-2.541117,-0.325199,0.002000,1.421066,0.000000
140.000000,0.002000,-1.262826,-1.992975,0.666089,-0.901878,-0.353734,2.285059,1.198909,1.858967,-0.750912,0.002000,-1.738611,0.000000
141.000000,0.002000,-0.377039,-1.134979,1.356790,0.367720,-3.456155,1.118752,0.657243,2.301409,-2.606837,0.002000,-1.099988,0.000000
142.000000,0.002000,0.032050,-0.196207,0.014229,-1.490472,2.639258,-0.152464,-0.094538,0.972753,0.177417,0.002000,0.516696,0.000000
143.000000,0.002000,-0.381926,3.482931,0.825579,-0.009529,3.026135,0.836426,0.185880,-1.519863,-0.347321,0.002000,-0.109430,0.000000
144.000000,0.002000,0.039272,0.514490,-1.710483,-0.209259,0.860020,-0.004919,-0.097203,-0.934578,3.241762,0.002000,-1.309681,0.000000
145.000000,0.002000,1.121131,0.261840,-0.204694,1.157607,-0.434381,2.061683,-4.305969,-0.966563,0.593068,0.002000,0.891768,0.000000
146.000000,0.002000,-0.103992,0.533510,0.903812,-0.357240,-1.005637,0.063402,0.512077,-2.346249,-4.554221,0.002000,-1.262826,0.000000
147.000000,0.002000,0.423891,-1.156661,-0.701080,1.054064,1.449412,0.300938,-1.448569,3.484487,2.485880,0.002000,-0.377039,0.000000
148.000000,0.002000,1.693671,1.260022,-1.621540,1.038807,1.405938,-1.729458,-1.268574,-1.220788,1.463548,0.002000,0.032050,0.000000
149.000000,0.002000,-0.187743,0.081061,-0.540346,-2.237027,-0.569326,-0.046816,0.811159,0.034353,4.584292,0.002000,-0.381926,0.000000
150.000000,0.002000,-0.726931,-0.842499,0.317828,1.541488,-0.313655,1.738236,3.580193,3.466207,-1.597979,0.002000,0.039272,0.000000
151.000000,0.002000,0.834645,-2.121182,-1.249324,-0.189851,-0.576914,-0.303260,-0.737032,1.981843,1.101826,0.002000,1.121131,0.000000
152.000000,0.002000,0.967190,-1.799077,0.443872,0.187769,0.159413,1.785944,-1.496077,2.476591,-0.756547,0.002000,-0.103992,0.000000
153.000000,0.002000,2.525509,1.394514,1.214032,1.323331,-0.248888,0.871501,-1.498474,-0.793636,-0.707376,0.002000,0.423891,0.000000
154.000000,0.002000,0.199780,-0.077956,0.198852,-1.399929,-0.796183,-2.917412,-1.848257,1.808666,-1.675576,0.002000,1.693671,0.000000
155.000000,0.002000,0.714849,0.032214,0.443571,-0.126786,-0.906203,0.945233,-3.951605,-0.278835,-2.342229,0.002000,-0.187743,0.000000
156.000000,0.002000,-2.463918,0.456553,-1.321475,-1.453759,-0.166197,-2.649888,1.927230,-0.406923,1.021967,0.002000,-0.726931,0.000000
157.000000,0.002000,3.002195,1.073168,2.376366,1.991555,1.088091,1.519100,-0.931618,-0.322209,-0.740502,0.002000,0.834645,0.000000
158.000000,0.002000,-0.378102,-0.177330,0.470155,1.904373,0.350277,1.938393,-0.225859,0.672176,-0.165014,0.002000,0.967190,0.000000
159.000000,0.002000,-1.318684,-0.472147,1.796725,1.002002,0.644200,1.234891,1.369202,0.519076,-2.049933,0.002000,2.525509,0.000000
160.000000,0.002000,2.322080,-0.753453,1.336364,0.945594,0.245468,1.196881,-1.720322,0.679549,-0.982245,0.002000,0.199780,0.000000
161.000000,0.002000,-0.188860,1.162336,0.397475,1.437919,-0.393714,-1.664762,1.224991,-4.738138,-1.191424,0.002000,0.714849,0.000000
162.000000,0.002000,0.054081,-0.970726,1.602035,-1.043352,-3.386955,0.813426,-0.097548,1.674175,-2.798577,0.002000,-2.463918,0.000000
163.000000,0.002000,-1.158090,-1.285041,-0.535210,-0.793539,-2.807296,-1.587083,2.273784,2.589747,0.560094,0.002000,3.002195,0.000000
164.000000,0.002000,-0.758283,-0.515535,0.598746,-0.495156,1.329545,0.757748,3.611664,3.023004,-2.755158,0.002000,-0.378102,0.000000
165.000000,0.002000,-0.940014,-3.159769,-1.318572,-0.520062,-3.131091,-0.138058,0.402643,1.372538,0.562795,0.002000,-1.318684,0.000000
166.000000,0.002000,0.731776,-1.495487,1.972307,0.143602,-1.412453,0.402885,-0.751728,1.272887,-1.686571,0.002000,2.322080,0.000000
167.000000,0.002000,0.097806,-0.280225,2.139109,-1.211915,-0.142689,0.399675,-0.109697,0.456317,-2.608770,0.002000,-0.188860,0.000000
168.000000,0.002000,0.168260,-0.401170,-0.029825,-0.217880,-2.033471,1.263304,-1.340853,2.397289,0.042554,0.002000,0.054081,0.000000
169.000000,0.002000,0.613130,-0.008853,2.346943,-0.130576,-0.265015,-0.089961,-0.750647,0.104916,-2.257940,0.002000,-1.158090,0.000000
170.000000,0.002000,1.103133,1.900599,-2.060130,0.548922,2.017451,-2.055461,-0.739963,-1.232855,1.339176,0.002000,-0.758283,0.000000
171.000000,0.002000,-2.088032,-0.849763,0.475754,-3.182563,-0.272024,-0.489802,2.355241,1.031543,-0.521828,0.002000,-0.940014,0.000000
172.000000,0.002000,2.462208,-0.595834,0.740568,2.391337,-1.674517,1.527168,-2.042913,0.487971,-0.602520,0.002000,0.731776,0.000000
173.000000,0.002000,-0.434693,1.153070,0.164922,-1.935342,0.763226,-0.057069,1.077534,-4.015813,-1.045579,0.002000,0.097806,0.000000
174.000000,0.002000,-1.582393,-1.023932,0.837418,-1.504501,-2.880174,0.873901,2.268029,1.475632,-1.204451,0.002000,0.168260,0.000000
175.000000,0.002000,0.436494,-1.780649,-1.170886,-1.512604,-1.487296,-0.130140,-0.553454,2.202894,1.491846,0.002000,0.613130,0.000000
176.000000,0.002000,-0.715939,-2.706986,0.325406,-0.987769,-0.972722,1.139994,0.440254,2.019443,-0.189951,0.002000,1.103133,0.000000
177.000000,0.002000,1.649693,-0.513374,1.489790,1.833376,-3.076466,0.120485,-1.805350,0.669588,-1.711778,0.002000,-2.088032,0.000000
178.000000,0.002000,-0.588109,0.856926,0.559278,-0.668042,-1.185750,0.246001,1.485439,-3.279692,-2.978687,0.002000,2.462208,0.000000
179.000000,0.002000,-0.544156,-0.225554,-0.212177,-1.661930,-1.839067,2.163070,3.779520,1.220322,1.080842,0.002000,-0.434693,0.000000
180.000000,0.002000,-0.084404,-0.856900,0.170965,0.739338,-2.239588,1.123810,0.511113,4.868598,-1.142987,0.002000,-1.582393,0.000000
181.000000,0.002000,0.734406,0.720279,2.514568,0.482846,-0.545446,1.033887,-0.626465,-0.396232,-2.016499,0.002000,0.436494,0.000000
182.000000,0.002000,-0.720208,-0.971078,-0.578446,-1.544550,2.440993,1.856365,2.801545,3.229147,2.104921,0.002000,-0.715939,0.000000
183.000000,0.002000,-0.695740,1.474679,-1.395061,-0.515968,0.024449,-3.494728,0.879237,-1.967576,1.837017,0.002000,1.649693,0.000000
184.000000,0.002000,-0.514920,0.316589,0.407253,-0.813223,-0.626933,-2.696865,1.973691,-2.104172,-2.478201,0.002000,-0.588109,0.000000
185.000000,0.002000,-1.062867,1.919699,-0.298283,0.488201,0.063647,-0.508639,1.401832,-2.480099,0.406585,0.002000,-0.544156,0.000000
186.000000,0.002000,0.277873,0.618353,1.061150,-2.346897,2.326168,-1.925147,-0.972005,-2.286447,-3.963354,0.002000,-0.084404,0.000000
187.000000,0.002000,0.750792,0.300116,-0.968231,2.912849,-0.639749,-2.746187,-2.739022,-0.820859,3.692649,0.002000,0.734406,0.000000
188.000000,0.002000,0.077592,-1.255356,-0.810340,-0.321497,1.551229,-1.478085,0.241223,3.483316,3.152519,0.002000,-0.720208,0.000000
189.000000,0.002000,-0.592422,3.672738,0.187285,0.727618,0.020068,-0.327574,0.251003,-1.439318,-0.068824,0.002000,-0.695740,0.000000
190.000000,0.002000,0.149826,-1.000333,-0.218846,-1.369439,-0.499093,-1.149818,-1.349737,4.724120,0.937997,0.002000,-0.514920,0.000000
191.000000,0.002000,-0.161824,-1.280917,0.287451,-0.753032,-1.538055,0.813635,0.574520,4.592582,-1.192626,0.002000,-1.062867,0.000000
192.000000,0.002000,-1.941700,0.401549,-1.045581,0.350125,0.596156,-0.438230,2.426793,-0.361952,1.244708,0.002000,0.277873,0.000000
193.000000,0.002000,-0.216876,-1.250246,-0.359171,0.665408,0.109359,0.097865,0.994102,6.412453,-1.130010,0.002000,0.750792,0.000000
194.000000,0.002000,-2.405068,0.452665,1.429397,-2.336075,-0.893407,1.398483,1.736263,-0.260102,-0.987566,0.002000,0.077592,0.000000
195.000000,0.002000,1.349812,0.132335,-1.825554,-0.609271,0.584543,-0.735299,-1.650912,-0.153482,2.151481,0.002000,-0.592422,0.000000
196.000000,0.002000,-0.486284,0.452252,0.124114,1.754429,1.699335,-1.298233,2.425800,-3.146455,-2.745525,0.002000,0.149826,0.000000
197.000000,0.002000,0.053463,-5.755242,-0.806825,0.241685,-0.575954,-0.643483,-0.006869,0.583958,0.080658,0.002000,-0.161824,0.000000
198.000000,0.002000,0.336291,0.052286,0.036167,-1.121915,0.522794,2.613896,-2.505314,-0.837182,0.412809,0.002000,-1.941700,0.000000
199.000000,0.002000,0.173225,0.866261,0.161802,-0.439722,1.156270,2.172916,-0.543307,-4.587552,-0.586616,0.002000,-0.216876,0.000000
200.000000,0.002000,0.243254,-0.555322,0.479208,1.256954,0.656527,2.249700,-1.696339,2.843874,-2.910011,0.002000,-2.405068,0.000000
201.000000,0.002000,2.218000,-0.837955,1.659724,2.301617,-0.976285,1.829035,-1.571196,0.611550,-1.170940,0.002000,1.349812,0.000000
202.000000,0.002000,0.962262,2.814377,0.935142,1.099178,1.883097,0.564919,-0.397603,-1.431570,-0.562351,0.002000,-0.486284,0.000000
203.000000,0.002000,-0.419129,-0.107586,1.557075,0.134016,-1.608815,-0.779390,1.162361,0.317018,-3.575089,0.002000,0.053463,0.000000
204.000000,0.002000,-1.994721,0.639469,-0.554652,-0.474315,-1.346810,-0.973874,2.551724,-0.747799,0.631571,0.002000,0.336291,0.000000
205.000000,0.002000,-0.008497,1.390982,1.341543,0.978770,0.837354,-0.706882,0.017905,-2.262295,-2.207381,0.002000,0.173225,0.000000
206.000000,0.002000,-0.473360,0.535354,-0.611309,-1.608361,-0.280674,-1.276932,2.242415,-1.913433,3.639361,0.002000,0.243254,0.000000
207.000000,0.002000,-2.356610,1.956262,-1.130708,-2.197602,1.610916,-0.880690,1.286546,-1.041532,0.616992,0.002000,2.218000,0.000000
208.000000,0.002000,0.589320,-0.685898,-0.595508,-1.892610,1.144975,0.074689,-3.188060,2.835760,2.642707,0.002000,0.962262,0.000000
209.000000,0.002000,0.540685,-0.459667,0.924092,0.622415,1.327920,0.348038,-2.061495,2.186335,-3.785502,0.002000,-0.419129,0.000000
210.000000,0.002000,0.224260,-0.884669,2.034777,1.504348,-0.295116,0.267980,-0.250021,0.989884,-2.418725,0.002000,-1.994721,0.000000
211.000000,0.002000,-0.965605,0.725277,-0.049769,0.039162,0.682618,-0.736472,3.033204,-2.637149,-0.859916,0.002000,-0.008497,0.000000
212.000000,0.002000,0.096953,0.047745,0.067039,0.825246,0.964217,-1.493843,2.088767,-0.476215,-0.663772,0.002000,-0.473360,0.000000
213.000000,0.002000,-1.115846,0.581490,0.015809,-1.246164,1.023364,-1.546930,4.194570,-2.327212,-0.026483,0.002000,-2.356610,0.000000
214.000000,0.002000,0.082316,-1.646316,-2.607407,0.971664,-1.588637,-1.484420,-0.015351,0.870980,1.499008,0.002000,0.589320,0.000000
215.000000,0.002000,1.246254,-1.027651,1.825080,1.215638,-1.192352,-0.346353,-1.098490,1.062149,-1.799350,0.002000,0.540685,0.000000
216.000000,0.002000,-0.159295,1.220391,-0.856286,0.229261,-1.015236,-0.633335,0.298692,-3.313696,2.296377,0.002000,0.224260,0.000000
217.000000,0.002000,1.005923,-0.030047,-2.379183,0.050927,0.905968,-0.753673,-0.902540,-0.029281,2.142684,0.002000,-0.965605,0.000000
218.000000,0.002000,1.369836,-1.241210,-1.240472,-0.648350,-2.418246,-2.049946,-1.586974,1.409784,1.463939,0.002000,0.096953,0.000000
219.000000,0.002000,-0.476979,-0.368790,0.609175,-0.133705,-1.017526,-0.830547,2.380202,1.833672,-2.750164,0.002000,-1.115846,0.000000
220.000000,0.002000,0.389251,0.480927,2.844806,-0.560264,0.283196,1.408751,-0.533704,-0.206112,-2.098673,0.002000,0.082316,0.000000
221.000000,0.002000,0.551032,-0.843607,-0.664191,0.446095,3.453320,0.255319,-2.901711,3.161043,2.757512,0.002000,1.246254,0.000000
222.000000,0.002000,-0.831054,0.417879,-0.220055,0.194801,0.616361,1.291224,4.023449,-2.031603,1.599022,0.002000,-0.159295,0.000000
223.000000,0.002000,-0.092698,-0.013408,0.465714,0.647498,-3.466463,3.046461,0.534124,0.234050,-3.171229,0.002000,1.005923,0.000000
224.000000,0.002000,-0.511316,2.304326,0.775526,-0.377829,2.876922,-0.768216,0.442145,-2.256279,-0.845776,0.002000,1.369836,0.000000
225.000000,0.002000,1.276536,-0.860283,1.506345,-1.062602,-0.680993,0.308702,-1.517576,1.056026,-1.915028,0.002000,-0.476979,0.000000
226.000000,0.002000,0.934925,-0.520507,0.940818,0.562116,0.311267,-0.052708,-2.799382,1.760410,-2.993480,0.002000,0.389251,0.000000
227.000000,0.002000,0.696905,0.324056,-0.136643,1.971815,2.034048,0.943927,-4.518524,-0.842445,1.265826,0.002000,0.551032,0.000000
228.000000,0.002000,-0.804634,-0.387030,-1.315456,1.530647,1.721298,-2.307982,1.813917,1.078800,3.281734,0.002000,-0.831054,0.000000
229.000000,0.002000,2.959661,-3.738087,1.779322,1.482305,0.279705,-0.586982,-0.440923,0.557313,-0.270679,0.002000,-0.092698,0.000000
230.000000,0.002000,0.755495,-1.114404,-2.598151,0.117384,-1.904804,-2.724880,-0.566144,0.800100,1.768072,0.002000,-0.511316,0.000000
231.000000,0.002000,1.575640,-0.418754,1.715374,0.592307,0.413020,-0.398780,-1.683483,0.425050,-1.850838,0.002000,1.276536,0.000000
232.000000,0.002000,2.241073,1.391879,-1.451516,0.598526,0.535334,-0.361883,-1.459628,-0.975874,0.939316,0.002000,0.934925,0.000000
233.000000,0.002000,0.130753,-0.231218,-0.329352,0.917571,2.526331,-0.111391,-0.924823,1.403029,2.693198,0.002000,0.696905,0.000000
234.000000,0.002000,0.021023,2.598127,-1.303785,0.607654,0.906490,-1.699605,-0.061972,-1.604877,0.995603,0.002000,-0.804634,0.000000
235.000000,0.002000,-0.400051,-2.534307,0.538411,-0.843170,-0.498825,0.338180,0.308939,2.196719,-0.401357,0.002000,2.959661,0.000000
236.000000,0.002000,-1.916594,0.967669,-1.691745,-0.356804,1.859887,-1.817252,1.146745,-0.795067,1.273637,0.002000,0.755495,0.000000
237.000000,0.002000,0.925349,1.089614,-0.352467,0.702307,-1.580839,-1.169848,-2.837835,-2.995517,0.967668,0.002000,1.575640,0.000000
238.000000,0.002000,0.644243,-1.339199,-0.469527,-1.338950,-0.192775,0.014886,-1.763357,3.532332,1.218678,0.002000,2.241073,0.000000
239.000000,0.002000,-0.359742,-2.086036,0.127464,0.974050,-0.196575,-0.686339,0.463149,2.804399,-0.207956,0.002000,0.130753,0.000000
240.000000,0.002000,0.735273,0.884547,-0.442224,0.839593,-0.532481,0.427746,-2.708920,-3.391449,1.338927,0.002000,0.021023,0.000000
241.000000,0.002000,-0.026914,-1.055529,0.385133,-1.751609,1.331762,-0.576130,0.864961,5.148893,-2.696890,0.002000,-0.400051,0.000000
242.000000,0.002000,0.185515,3.210081,-0.153271,-0.044424,2.296343,-0.537039,-0.152506,-1.920196,0.017148,0.002000,-1.916594,0.000000
243.000000,0.002000,-0.365815,0.516927,0.284450,-1.444636,2.295348,1.283377,1.873464,-3.642762,-2.573281,0.002000,0.925349,0.000000
244.000000,0.002000,0.890221,0.149866,-0.082058,0.207663,1.532097,1.705199,-5.680413,-0.076768,0.264080,0.002000,0.644243,0.000000
245.000000,0.002000,4.047490,-0.282634,-1.302286,0.831480,0.911570,-2.293079,-1.028392,0.069696,0.331324,0.002000,-0.359742,0.000000
246.000000,0.002000,-0.077787,0.151248,-0.107618,3.837435,-1.408301,2.404968,-0.828112,-0.595956,0.431857,0.002000,0.735273,0.000000
247.000000,0.002000,0.289715,0.818758,0.870351,3.504139,0.921046,-0.929508,-1.421373,-3.292078,-3.126586,0.002000,-0.026914,0.000000
248.000000,0.002000,-0.793391,1.041909,-0.811468,-0.647451,0.489158,-1.945193,2.226358,-2.754733,2.349347,0.002000,0.185515,0.000000
249.000000,0.002000,0.270025,-0.573047,0.120370,1.489302,-0.160542,-0.705424,-2.164623,3.425159,-0.725620,0.002000,-0.365815,0.000000
250.000000,0.002000,-0.255640,0.483532,0.987211,1.042691,-2.204816,-0.728885,0.859339,-1.803742,-4.498145,0.002000,0.890221,0.000000
251.000000,0.002000,-1.584148,0.698621,-1.327513,-2.413001,-0.614094,-2.185875,1.952894,-0.973337,1.707554,0.002000,4.047490,0.000000
252.000000,0.002000,0.937942,0.280984,0.293541,1.725386,2.149923,-0.502670,-5.780109,-0.502552,-0.937802,0.002000,-0.077787,0.000000
253.000000,0.002000,-0.772802,-0.571498,-0.061920,-1.429298,1.133140,0.152046,3.758339,3.363042,0.051233,0.002000,0.289715,0.000000
254.000000,0.002000,-0.158932,-1.717984,1.319290,-1.802420,-0.675086,0.387759,0.206979,2.102559,-1.717844,0.002000,-0.793391,0.000000
255.000000,0.002000,1.320903,-0.517426,0.797633,-0.232944,1.367717,0.861564,-3.141694,1.276830,-1.801361,0.002000,0.270025,0.000000
256.000000,0.002000,2.294846,-1.088172,-0.503488,0.399312,-0.636193,-0.187747,-2.086569,1.073376,0.507340,0.002000,-0.255640,0.000000
257.000000,0.002000,1.302746,-0.680450,-0.913995,0.308897,-1.280684,-1.219013,-2.578419,1.282485,1.814353,0.002000,-1.584148,0.000000
258.000000,0.002000,0.115414,0.570113,-0.081465,-0.487241,2.147005,-0.787194,-0.170456,-4.505810,-0.786421,0.002000,0.937942,0.000000
259.000000,0.002000,-1.560381,0.971102,1.604489,-0.554400,-0.876698,0.492711,1.531617,-0.977066,-1.654530,0.002000,-0.772802,0.000000
260.000000,0.002000,0.840051,-0.360304,2.075535,0.149436,-1.822659,1.119487,-0.948372,0.444481,-2.447688,0.002000,-0.158932,0.000000
261.000000,0.002000,-1.129571,1.909320,0.426851,0.912751,0.712406,0.545622,1.432632,-2.154022,-0.553974,0.002000,1.320903,0.000000
262.000000,0.002000,-1.095090,-1.051179,1.814912,-2.175097,0.145458,0.935460,2.936423,1.093733,-2.939333,0.002000,2.294846,0.000000
263.000000,0.002000,0.897205,0.187944,0.674338,-0.666431,0.454310,-2.198927,-2.677238,0.328360,-2.731013,0.002000,1.302746,0.000000
264.000000,0.002000,-1.155354,2.282056,-0.466992,-0.444602,0.452383,-0.294223,1.073607,-2.066973,0.415318,0.002000,0.115414,0.000000
265.000000,0.002000,-0.494014,0.775446,-0.212372,-0.355537,1.991419,2.001548,2.567472,-4.155609,1.437492,0.002000,-1.560381,0.000000
266.000000,0.002000,2.203760,-1.893519,0.932844,1.253979,-1.501485,0.052651,-1.328981,1.162928,-0.608371,0.002000,0.840051,0.000000
267.000000,0.002000,-1.353755,1.286891,-2.592521,-1.160214,0.421062,-0.947155,0.756009,-0.732795,1.484849,0.002000,-1.129571,0.000000
268.000000,0.002000,0.417389,0.117326,-0.329020,1.265830,-2.866651,0.315403,-1.755736,0.351876,2.540482,0.002000,-1.095090,0.000000
269.000000,0.002000,0.202146,-0.065716,-0.411114,-2.134249,-0.773657,-0.185260,-1.346645,0.524286,3.006373,0.002000,0.897205,0.000000
270.000000,0.002000,-1.652020,0.262264,-1.417877,-1.430523,-1.749082,-1.346512,2.058942,-0.442316,1.815928,0.002000,-1.155354,0.000000
271.000000,0.002000,-0.716416,-0.478149,0.766762,-0.398163,-2.115087,-0.122008,3.351842,2.279525,-4.103501,0.002000,-0.494014,0.000000
272.000000,0.002000,0.410423,-0.426721,-1.163374,0.780869,-3.774340,0.036086,-1.597865,1.339108,3.900428,0.002000,2.203760,0.000000
273.000000,0.002000,-1.830550,-0.640201,1.088511,-0.759119,1.102353,-0.405117,2.052449,0.768015,-1.233497,0.002000,-1.353755,0.000000
274.000000,0.002000,-0.051357,0.178532,0.044484,-0.221314,-0.316307,-1.226035,0.319864,-1.323269,-1.007351,0.002000,0.417389,0.000000
275.000000,0.002000,-0.405759,0.612657,0.665093,-0.447137,-1.635399,-1.953361,0.443185,-5.628785,-4.261938,0.002000,0.202146,0.000000
276.000000,0.002000,-0.173181,-1.412411,-2.982887,-0.035054,-1.643767,-2.473822,0.117738,0.770271,1.487946,0.002000,-1.652020,0.000000
277.000000,0.002000,0.769712,-0.519934,0.142440,1.772423,-2.118076,0.699441,-4.142943,2.742808,-0.482263,0.002000,-0.716416,0.000000
278.000000,0.002000,0.917413,-0.259001,-0.192561,-1.030693,-0.207119,-0.005231,-4.776619,2.315410,1.245969,0.002000,0.410423,0.000000
279.000000,0.002000,-0.080307,0.309356,-0.322129,-0.220192,2.879390,-1.454442,0.904379,-1.655740,2.512076,0.002000,-1.830550,0.000000
280.000000,0.002000,0.345287,0.263747,0.407723,0.232567,-1.018213,-1.223843,-2.551259,-2.119176,-2.672285,0.002000,-0.051357,0.000000
281.000000,0.002000,-1.235638,-0.964831,0.280960,1.219289,0.160801,1.164269,3.069001,2.286951,-0.725134,0.002000,-0.405759,0.000000
282.000000,0.002000,-1.750465,-0.962043,-1.419941,0.886254,-0.760772,-2.116917,1.747570,0.972169,1.475543,0.002000,-0.173181,0.000000
283.000000,0.002000,-0.015995,-0.854746,-0.496319,-2.220447,-1.441819,-0.005514,-0.509605,3.974485,2.896531,0.002000,0.769712,0.000000
284.000000,0.002000,-1.393419,1.653017,1.645082,-2.416929,0.806733,2.060272,0.980973,-1.383268,-1.190485,0.002000,0.917413,0.000000
285.000000,0.002000,-0.754043,-1.004126,-1.131431,-0.297782,0.178360,-0.236872,1.480812,2.068387,2.668673,0.002000,-0.080307,0.000000
286.000000,0.002000,-1.560588,-0.283280,-0.190570,-0.205588,-2.638829,-0.549743,3.776132,0.750811,0.493543,0.002000,0.345287,0.000000
287.000000,0.002000,-0.170618,-0.310654,0.570010,0.819466,0.157998,-2.242382,0.907746,2.171174,-3.574768,0.002000,-1.235638,0.000000
288.000000,0.002000,0.049554,0.252539,-0.704366,-0.383881,-0.409116,0.755076,-0.227572,-1.262100,3.922654,0.002000,-1.750465,0.000000
289.000000,0.002000,-0.542507,-0.772506,0.195396,-0.097827,1.268716,0.141010,3.138956,3.887151,-0.954682,0.002000,-0.015995,0.000000
290.000000,0.002000,-0.149883,-1.016230,1.103699,-0.412356,-0.304469,0.584432,0.328827,2.345354,-3.288200,0.002000,-1.393419,0.000000
291.000000,0.002000,-0.867561,1.568365,-1.564663,0.111954,1.424565,-2.420403,0.825019,-1.694070,1.688751,0.002000,-0.754043,0.000000
292.000000,0.002000,0.182181,1.134244,-0.722783,1.421267,0.340836,0.815552,-0.510709,-3.779209,2.341467,0.002000,-1.560588,0.000000
293.000000,0.002000,0.499112,-0.673705,0.085072,-0.153200,1.266788,0.067618,-2.772489,4.985126,0.266254,0.002000,-0.170618,0.000000
294.000000,0.002000,0.744018,-2.409999,-1.373192,-0.563320,-0.636503,-1.294398,-0.478421,1.734162,0.924653,0.002000,0.049554,0.000000
295.000000,0.002000,-0.069585,-0.186136,-1.169451,-0.341236,-0.156805,0.372936,0.573362,1.066945,5.260845,0.002000,-0.542507,0.000000
296.000000,0.002000,-0.906080,0.985277,-0.456440,-0.947396,0.261329,1.928955,2.894470,-2.968544,1.793177,0.002000,-0.149883,0.000000
297.000000,0.002000,0.259374,-1.198150,0.320170,-0.228649,-0.889649,1.559977,-0.892087,4.668464,-1.598540,0.002000,-0.867561,0.000000
298.000000,0.002000,0.987759,1.945085,-0.506222,1.486752,1.274277,-0.384279,-1.323235,-2.243964,0.764968,0.002000,0.182181,0.000000
299.000000,0.002000,-1.788195,0.538419,-1.096906,1.500698,-1.736510,0.946585,2.123851,-0.765483,1.401095,0.002000,0.499112,0.000000
300.000000,0.002000,-2.631577,1.360714,-2.434903,0.340142,-1.341584,-0.352054,0.937374,-0.489017,0.858449,0.002000,0.744018,0.000000
301.000000,0.002000,1.985879,-0.139552,-1.719512,-0.043315,-0.415560,-0.404204,-1.712189,0.115209,1.483446,0.002000,-0.069585,0.000000
302.000000,0.002000,-0.866970,0.354335,0.308244,1.818523,-1.611573,1.448435,4.203314,-1.269846,-0.337807,0.002000,-0.906080,0.000000
303.000000,0.002000,-0.415483,0.862589,-1.083401,-3.254213,0.169556,-1.669151,1.400756,-2.680536,3.184889,0.002000,0.259374,0.000000
304.000000,0.002000,1.041278,0.084340,-0.691690,1.782311,1.566430,-0.041697,-3.840191,-0.264659,2.640601,0.002000,0.987759,0.000000
305.000000,0.002000,0.771267,3.229443,0.474857,0.887281,1.298233,-0.128817,-0.422497,-1.759282,-0.298631,0.002000,-1.788195,0.000000
306.000000,0.002000,1.178789,-0.172238,0.206622,-0.444257,-0.017982,0.142970,-5.436327,1.184588,-1.842120,0.002000,-2.631577,0.000000
307.000000,0.002000,0.078187,-0.946463,-0.826581,-0.638939,-1.176864,1.514974,-1.128152,3.445456,3.100480,0.002000,1.985879,0.000000
308.000000,0.002000,0.408285,-2.846913,-1.039627,1.345384,-2.046067,-0.945469,-0.281530,1.779702,0.694638,0.002000,-0.866970,0.000000
309.000000,0.002000,1.880635,-2.621527,1.066784,1.753468,-1.327543,0.863600,-0.886846,1.226714,-0.519251,0.002000,-0.415483,0.000000
310.000000,0.002000,-0.143667,0.180528,0.879213,-2.195108,1.863287,-0.481325,0.864824,-0.817478,-5.576973,0.002000,1.041278,0.000000
311.000000,0.002000,-2.092075,-0.896140,0.852234,-1.523073,-1.727205,1.692772,2.233420,0.998856,-0.801816,0.002000,0.771267,0.000000
312.000000,0.002000,0.188293,0.540678,2.925554,-0.633832,0.252529,1.812148,0.069275,-0.278060,-1.932009,0.002000,1.178789,0.000000
313.000000,0.002000,-0.761599,-2.644672,-0.967037,-1.439006,-1.426932,-1.537471,0.521068,1.822390,0.627103,0.002000,0.078187,0.000000
314.000000,0.002000,-0.049199,-0.582736,0.704128,-1.433251,2.297201,0.105196,0.387447,3.399138,-4.258047,0.002000,0.408285,0.000000
315.000000,0.002000,1.526740,3.251357,0.113647,0.034805,-1.071267,0.040259,-0.672105,-1.386110,-0.043878,0.002000,1.880635,0.000000
316.000000,0.002000,2.196050,0.504354,-0.642341,0.768909,0.349896,1.038785,-2.414384,-0.593270,0.565392,0.002000,-0.143667,0.000000
317.000000,0.002000,-0.787962,1.182112,-0.653699,1.158835,-0.920785,-0.801064,2.375249,-3.833912,2.074972,0.002000,-2.092075,0.000000
318.000000,0.002000,0.039084,0.649819,-0.453998,0.864653,1.666946,2.414141,0.576204,-3.744362,3.969573,0.002000,0.188293,0.000000
319.000000,0.002000,-0.522274,-0.082327,0.999220,-2.150463,-0.696910,0.256522,2.208680,0.524380,-4.612755,0.002000,-0.761599,0.000000
320.000000,0.002000,0.213482,-2.610006,-0.308566,-0.266189,-2.794987,-1.722177,-0.356323,2.382094,0.162863,0.002000,-0.049199,0.000000
321.000000,0.002000,0.170311,1.289973,-0.271346,0.684313,0.142050,-0.394401,-1.167216,-5.132473,1.614260,0.002000,1.526740,0.000000
322.000000,0.002000,0.470496,-0.852357,-0.090368,-2.309969,-0.792846,0.396309,-2.742105,4.073473,0.526461,0.002000,2.196050,0.000000
323.000000,0.002000,-0.163814,0.763836,1.040072,-0.079782,0.148220,2.085287,1.415544,-2.824910,-3.338669,0.002000,-0.787962,0.000000
324.000000,0.002000,-0.279754,-0.549318,1.115962,-1.092392,0.239869,-0.493994,1.173554,1.691165,-4.362222,0.002000,0.039084,0.000000
325.000000,0.002000,-0.817980,-2.629910,-0.083522,0.115872,-0.250207,-2.581594,0.550789,2.039870,0.122418,0.002000,-0.522274,0.000000
326.000000,0.002000,-0.622129,2.332738,-0.231675,-1.072665,1.807105,-1.163350,0.592914,-2.540550,0.323147,0.002000,0.213482,0.000000
327.000000,0.002000,0.209926,0.122334,-0.319215,-0.463238,0.996024,-1.277952,-1.242324,-0.283707,2.833952,0.002000,0.170311,0.000000
328.000000,0.002000,-1.169430,-0.118869,0.623068,-0.918297,0.332736,-1.093276,4.371904,0.236290,-2.240527,0.002000,0.470496,0.000000
329.000000,0.002000,-0.714730,-0.127898,0.242267,1.545867,-0.672352,0.309599,3.167017,0.422505,-1.879165,0.002000,-0.163814,0.000000
330.000000,0.002000,-0.352969,0.617158,0.256218,2.556006,0.226566,-1.248009,1.600323,-4.075624,-1.394752,0.002000,-0.279754,0.000000
331.000000,0.002000,0.207801,-0.077089,0.316122,-1.757535,-0.118908,1.367172,-1.779756,0.079040,-3.099688,0.002000,-0.817980,0.000000
332.000000,0.002000,0.559666,1.181136,-0.245981,0.201841,0.725031,-0.680390,-1.941123,-4.074063,0.950159,0.002000,-0.622129,0.000000
333.000000,0.002000,1.879100,0.169372,-1.468822,0.132157,0.033457,-1.779878,-1.974266,-0.239549,1.464476,0.002000,0.209926,0.000000
334.000000,0.002000,-0.979647,1.145835,1.070978,-0.643509,0.612473,-0.809298,1.327125,-2.009402,-2.549851,0.002000,-1.169430,0.000000
335.000000,0.002000,0.318899,-0.242030,-0.623058,1.260420,-0.904612,-1.625239,-1.791551,0.940137,3.359079,0.002000,-0.714730,0.000000
336.000000,0.002000,-0.002075,0.343770,-0.877271,-1.803478,-1.598156,-1.445430,-0.136993,-1.488571,4.429389,0.002000,-0.352969,0.000000
337.000000,0.002000,0.133746,0.636577,-0.689021,0.668363,1.390971,2.015439,-1.210210,-2.820681,3.801307,0.002000,0.207801,0.000000
338.000000,0.002000,-0.649156,0.654055,-1.891303,1.521767,1.979581,-1.999429,0.857645,-0.831841,2.581113,0.002000,0.559666,0.000000
339.000000,0.002000,0.070785,-0.947408,0.570615,2.266740,0.483950,-0.058107,-0.055366,4.177701,-2.774521,0.002000,1.879100,0.000000
340.000000,0.002000,1.011147,-0.433264,-0.220849,1.990405,2.851147,1.653824,-4.363603,1.925313,0.783912,0.002000,-0.979647,0.000000
341.000000,0.002000,0.616186,-0.268997,-0.742802,-1.152217,-0.918251,0.951165,-2.869264,1.621246,4.112490,0.002000,0.318899,0.000000
342.000000,0.002000,1.158619,-1.830156,-1.260531,0.723391,-1.155002,-2.679089,-0.965785,1.463119,1.263074,0.002000,-0.002075,0.000000
343.000000,0.002000,-0.591291,-0.903931,0.654400,-2.099680,1.094607,1.131957,2.663608,2.964414,-2.508934,0.002000,0.133746,0.000000
344.000000,0.002000,-0.409910,0.247828,-0.268608,1.735341,1.020633,0.020563,5.632240,2.187416,1.791379,0.002000,-0.649156,0.000000
345.000000,0.002000,-1.626228,0.383448,-1.068550,-0.137116,-0.600724,0.771876,2.477051,-0.531135,1.435023,0.002000,0.070785,0.000000
346.000000,0.002000,-0.593277,-1.005929,-0.352365,0.618693,-3.621231,1.416029,2.849426,4.015057,1.153076,0.002000,1.011147,0.000000
347.000000,0.002000,-0.098891,1.829003,1.540784,0.244239,-0.605933,1.783718,0.069977,-1.852555,-1.465601,0.002000,0.616186,0.000000
348.000000,0.002000,0.635357,0.966144,0.698136,1.166389,1.269194,0.340673,-2.232342,-3.396587,-2.173998,0.002000,1.158619,0.000000
349.000000,0.002000,1.367577,0.268064,0.928641,0.446271,-1.250064,1.567349,-2.712395,-0.872879,-1.455574,0.002000,-0.591291,0.000000
350.000000,0.002000,-1.639873,-0.974457,-0.539426,-0.088725,0.539538,-1.283322,2.527481,1.517597,0.829148,0.002000,-0.409910,0.000000
351.000000,0.002000,0.520705,-0.108164,2.455530,-0.450774,-0.647412,1.132520,-0.694775,0.302398,-2.326877,0.002000,-1.626228,0.000000
352.000000,0.002000,-0.633575,2.061504,2.473893,-0.820064,-1.813351,0.261381,0.339223,-1.127546,-1.301611,0.002000,-0.593277,0.000000
353.000000,0.002000,0.127233,-2.578597,-0.590201,-0.941537,-2.416629,-1.070738,-0.032998,2.098704,0.676490,0.002000,-0.098891,0.000000
354.000000,0.002000,-0.438434,-0.150282,-1.376619,0.209877,-0.532573,0.150106,1.153672,0.293453,3.845903,0.002000,0.635357,0.000000
355.000000,0.002000,-0.353832,-0.118698,0.058800,0.548269,-0.141234,0.567126,2.805564,1.717345,-0.161309,0.002000,1.367577,0.000000
356.000000,0.002000,0.112513,-0.054297,-1.073723,-0.871722,-0.428537,-0.436312,-1.073355,-0.007857,4.468176,0.002000,-1.639873,0.000000
357.000000,0.002000,0.556069,1.736894,2.356834,0.630013,1.880565,1.145279,-0.536077,-1.300824,-1.626752,0.002000,0.520705,0.000000
358.000000,0.002000,1.138559,-1.171903,-0.475976,-1.500244,-0.499061,-1.921203,-2.220457,2.354105,1.074572,0.002000,-0.633575,0.000000
359.000000,0.002000,-1.072341,1.729267,-0.017621,0.701987,0.909523,1.220239,1.616713,-2.646921,0.139615,0.002000,0.127233,0.000000
360.000000,0.002000,-1.267114,1.807668,-0.751256,-2.479179,0.709197,-0.324534,1.414080,-2.002703,0.770229,0.002000,-0.438434,0.000000
361.000000,0.002000,0.389053,0.167755,-0.238311,-0.046045,0.593809,-1.887041,-3.690185,-1.082818,0.308417,0.002000,-0.353832,0.000000
362.000000,0.002000,-0.809130,-0.145920,-0.655956,0.008643,2.503839,-0.532962,2.939803,0.831936,2.550232,0.002000,0.112513,0.000000
363.000000,0.002000,-0.668598,-0.426683,0.461396,-1.565316,-1.165265,1.911251,3.102499,2.021084,-1.784214,0.002000,0.556069,0.000000
364.000000,0.002000,-0.251411,-1.505850,-0.403811,-1.147759,0.679795,0.025855,0.582385,4.205377,1.268613,0.002000,1.138559,0.000000
365.000000,0.002000,1.512914,0.831554,-3.471781,0.878177,0.592422,-2.785587,-0.513682,-0.270318,1.163657,0.002000,-1.072341,0.000000
366.000000,0.002000,-0.206475,-0.132638,0.487290,0.874913,-1.670007,-0.233921,2.112051,2.889163,-4.135364,0.002000,-1.267114,0.000000
367.000000,0.002000,-1.191756,-0.152909,-0.354593,1.852860,1.012325,-0.814621,3.151088,-0.322768,-2.375943,0.002000,0.389053,0.000000
368.000000,0.002000,-1.360471,-0.117949,1.332417,-1.834262,2.322235,0.518672,2.124541,0.291970,-2.434780,0.002000,-0.809130,0.000000
369.000000,0.002000,0.018851,-0.323339,-0.641642,1.842876,0.553499,-1.529787,-0.364534,1.662757,4.269229,0.002000,-0.668598,0.000000
370.000000,0.002000,0.338430,0.815536,0.319163,-0.186124,-0.758760,2.745935,-1.647542,-4.495786,-1.257893,0.002000,-0.251411,0.000000
371.000000,0.002000,1.012219,-2.071528,-1.002121,0.418252,-0.246009,-0.024818,-0.890620,1.860384,0.920078,0.002000,1.512914,0.000000
372.000000,0.002000,0.093097,-0.286417,0.012084,2.333882,-3.046397,-3.175637,-0.466068,1.875851,0.978864,0.002000,-0.206475,0.000000
373.000000,0.002000,2.136768,-0.289097,0.811445,0.987578,0.332163,2.081817,-2.347657,0.349722,-0.990849,0.002000,-1.191756,0.000000
374.000000,0.002000,-2.042730,1.158605,-0.604528,-1.104117,1.331502,0.922852,2.154288,-1.212054,0.643024,0.002000,-1.360471,0.000000
375.000000,0.002000,1.190753,0.048933,-0.531196,3.229752,-1.975322,0.390182,-4.203593,-0.072608,1.880608,0.002000,0.018851,0.000000
376.000000,0.002000,-0.241853,0.055461,-0.104203,-0.441395,-1.907423,0.834306,1.384436,-0.911890,4.015182,0.002000,0.338430,0.000000
377.000000,0.002000,0.109958,1.039704,0.614339,-0.915815,0.744038,3.911662,0.007944,-3.457604,-2.980015,0.002000,1.012219,0.000000
378.000000,0.002000,0.467206,-2.925191,0.338571,0.338472,-1.472052,0.567004,-0.283757,1.913747,-0.262940,0.002000,0.093097,0.000000
379.000000,0.002000,0.191881,0.135380,-0.082112,-0.415166,1.199442,-0.338864,-1.245879,-0.297312,1.231711,0.002000,2.136768,0.000000
380.000000,0.002000,0.252457,0.721498,1.158434,0.083628,-0.637879,1.241264,-1.069091,-2.363481,-3.985191,0.002000,-2.042730,0.000000
381.000000,0.002000,1.431791,0.745663,-1.194547,2.989587,0.822259,-2.043776,-2.207801,-1.080498,1.837823,0.002000,1.190753,0.000000
382.000000,0.002000,-1.232148,-0.121701,0.128711,-0.409198,-1.732307,1.135165,4.762489,1.037371,-0.654996,0.002000,-0.241853,0.000000
383.000000,0.002000,-0.969848,-0.317663,0.211664,-0.149928,0.204264,-1.595492,4.459650,1.848571,-1.049552,0.002000,0.109958,0.000000
384.000000,0.002000,0.058908,0.579604,0.144476,-0.403099,-1.545196,-2.630948,-0.934101,-3.604255,-1.008362,0.002000,0.467206,0.000000
385.000000,0.002000,-0.482413,-0.645726,0.443886,0.981319,2.320823,-0.510823,2.507095,4.388224,-2.884360,0.002000,0.191881,0.000000
386.000000,0.002000,0.502830,0.117162,0.123636,2.958937,-1.403468,0.510655,-4.581998,-0.809083,-1.052293,0.002000,0.252457,0.000000
387.000000,0.002000,-1.791602,0.821085,0.832770,-3.037619,0.236853,1.914991,2.404694,-1.097227,-1.126287,0.002000,1.431791,0.000000
388.000000,0.002000,1.115201,0.417749,0.950624,0.918457,0.030556,1.357429,-2.913840,-0.929783,-2.483758,0.002000,-1.232148,0.000000
389.000000,0.002000,-1.285390,1.603525,0.897959,0.563378,0.569839,1.771396,1.422587,-1.966515,-1.082831,0.002000,-0.969848,0.000000
390.000000,0.002000,0.698347,0.713998,0.269495,-1.239152,-1.773569,0.746163,-2.650421,-3.838590,-1.810099,0.002000,0.058908,0.000000
391.000000,0.002000,0.477294,-1.889103,0.898552,0.374633,-0.727040,0.188904,-0.593803,2.415525,-1.211074,0.002000,-0.482413,0.000000
392.000000,0.002000,-0.533175,1.066192,0.058094,2.215644,1.182347,-0.617399,2.099456,-3.646956,-0.416282,0.002000,0.502830,0.000000
393.000000,0.002000,0.452325,0.570106,-0.348988,-1.391379,-2.114023,-1.276015,-3.005656,-3.278784,1.887859,0.002000,-1.791602,0.000000
394.000000,0.002000,0.227052,0.701343,0.115253,2.975471,0.329995,-0.712889,-1.239058,-3.417424,-0.650510,0.002000,1.115201,0.000000
395.000000,0.002000,0.098333,-0.661164,0.988653,-0.499681,0.342839,-2.213812,-0.559434,2.661261,-4.196650,0.002000,-1.285390,0.000000
396.000000,0.002000,0.249092,0.685849,0.340548,0.096665,-0.524869,-1.609783,-1.496935,-3.753425,-1.692781,0.002000,0.698347,0.000000
397.000000,0.002000,0.486430,-0.214355,-0.195465,0.367869,-2.487482,-1.911957,-2.769588,1.096592,1.676010,0.002000,0.477294,0.000000
398.000000,0.002000,-3.099152,-0.095096,0.892143,-2.080799,-0.198779,0.452166,1.737797,0.136805,-0.511738,0.002000,-0.533175,0.000000
399.000000,0.002000,-2.877836,-0.196732,1.130713,-2.036497,0.483148,1.213360,1.745876,0.203884,-0.707719,0.002000,0.452325,0.000000
400.000000,0.002000,2.281952,0.513255,0.967511,1.618796,-1.268491,1.419081,-2.105725,-0.533363,-0.903902,0.002000,0.227052,0.000000
401.000000,0.002000,2.213656,1.169327,-2.368740,2.303936,0.457052,-2.097908,-1.047533,-0.530530,1.116945,0.002000,0.098333,0.000000
402.000000,0.002000,0.420610,-0.790736,-0.429742,0.543199,-2.291221,1.470420,-2.407682,4.144376,0.502730,0.002000,0.249092,0.000000
403.000000,0.002000,-0.521864,0.464053,-0.678930,-4.117434,0.828726,-0.537128,2.631607,-2.068535,4.594014,0.002000,0.486430,0.000000
404.000000,0.002000,-1.934863,-1.033468,1.513427,-0.373269,-0.178360,1.224463,1.609541,0.762215,-1.259030,0.002000,-3.099152,0.000000
405.000000,0.002000,-0.343971,-0.353571,-0.569238,0.002760,-1.320830,1.482770,1.845401,1.572723,2.960206,0.002000,-2.877836,0.000000
406.000000,0.002000,-0.404059,0.245669,-0.556801,0.361690,-1.484197,-0.426834,2.392369,-0.939013,3.292833,0.002000,2.281952,0.000000
407.000000,0.002000,-0.418039,-0.484178,-0.190070,1.975390,1.093849,-0.363042,3.269038,3.197742,0.962168,0.002000,2.213656,0.000000
408.000000,0.002000,-1.516718,-1.653733,-0.336273,-0.677274,0.657707,-0.333339,1.747436,1.932115,0.284180,0.002000,0.420610,0.000000
409.000000,0.002000,0.986336,0.606574,-0.099755,0.723854,-0.783890,-0.525081,-6.166470,-2.461143,-2.028371,0.002000,-0.521864,0.000000
410.000000,0.002000,-0.845039,-0.878082,-1.889809,-1.037711,-1.974763,-1.251439,0.922650,1.099594,2.146984,0.002000,-1.934863,0.000000
411.000000,0.002000,-0.829613,-1.115562,-2.077723,0.583077,-0.097863,-1.548295,0.746881,1.099217,1.948585,0.002000,-0.343971,0.000000
412.000000,0.002000,-2.618995,-0.594277,2.182869,-2.036747,-1.446241,1.640316,1.194338,0.297942,-1.024134,0.002000,-0.404059,0.000000
413.000000,0.002000,-0.303189,-0.217867,0.383638,-2.188629,-0.288885,0.902385,2.117987,1.231079,-2.566076,0.002000,-0.418039,0.000000
414.000000,0.002000,-0.147320,-0.872131,-0.363001,3.682048,-1.695735,1.382348,1.087382,8.598091,-3.986839,0.002000,-1.516718,0.000000
415.000000,0.002000,0.051864,1.115640,-1.098770,0.770887,-0.135978,1.355805,-0.329835,-2.884606,2.963770,0.002000,0.986336,0.000000
416.000000,0.002000,0.873275,1.319405,-0.609261,1.027626,-0.128474,1.077199,-2.120436,-2.870832,1.379402,0.002000,-0.845039,0.000000
417.000000,0.002000,0.456040,2.162753,2.212319,0.434021,1.585041,2.333219,-0.199472,-1.321401,-1.330624,0.002000,-0.829613,0.000000
418.000000,0.002000,-0.890794,-2.023633,1.234629,-0.180861,-0.089560,0.927112,0.829623,1.896656,-1.133769,0.002000,-2.618995,0.000000
419.000000,0.002000,0.238023,0.933151,1.868594,1.837421,3.050675,0.454511,-0.196036,-1.159767,-2.459099,0.002000,-0.303189,0.000000
420.000000,0.002000,-2.885366,0.497253,-1.014028,-1.707216,0.059299,-1.043830,1.759585,-0.358052,0.665763,0.002000,-0.147320,0.000000
421.000000,0.002000,0.101615,-1.032877,0.652666,-0.020373,-0.191947,1.553235,-0.138556,4.570188,-3.029640,0.002000,0.051864,0.000000
422.000000,0.002000,-2.883977,-1.240424,0.306699,-1.604230,-0.857149,0.427500,1.642371,0.707570,-0.206759,0.002000,0.873275,0.000000
423.000000,0.002000,0.634232,-2.836802,2.043983,0.076405,-2.728053,2.086661,-0.211759,1.218755,-0.854817,0.002000,0.456040,0.000000
424.000000,0.002000,0.357773,-1.588384,-0.284164,-1.879936,2.464712,-1.068371,-0.846597,3.569683,0.718397,0.002000,-0.890794,0.000000
425.000000,0.002000,0.610364,-0.190634,0.331719,1.444928,-0.922456,-2.459176,-3.528699,1.448879,-1.835894,0.002000,0.238023,0.000000
426.000000,0.002000,0.184548,-0.221801,-1.662077,-0.815049,0.760057,-1.357675,-0.409512,0.392908,3.511360,0.002000,-2.885366,0.000000
427.000000,0.002000,-1.449873,-1.523520,-0.547643,-1.481626,0.605633,-0.158612,1.873027,1.921226,0.666622,0.002000,0.101615,0.000000
428.000000,0.002000,-0.793468,1.022791,0.737168,-0.296887,1.019526,-1.839252,2.874977,-2.998492,-2.006437,0.002000,-2.883977,0.000000
429.000000,0.002000,0.356646,-1.001054,0.153994,-2.404372,0.324755,0.573175,-2.414511,4.484668,-0.303504,0.002000,0.634232,0.000000
430.000000,0.002000,1.940587,-0.993812,-1.880340,2.256608,-1.291303,-1.255401,-1.365963,0.682216,1.396817,0.002000,0.357773,0.000000
431.000000,0.002000,0.824452,-0.298319,-0.915091,-0.106365,1.006915,-0.758664,-3.075907,1.048702,3.515181,0.002000,0.610364,0.000000
432.000000,0.002000,0.638551,-2.592762,1.438271,-0.057610,-0.925867,0.720235,-0.402393,1.603788,-0.898907,0.002000,0.184548,0.000000
433.000000,0.002000,-0.028938,-0.117501,0.029821,-1.286024,-1.033680,-1.177192,0.000554,0.469850,-0.000075,0.002000,-1.449873,0.000000
434.000000,0.002000,-1.929468,1.724155,2.231703,1.554042,1.278059,0.466979,0.985041,-0.868066,-1.130059,0.002000,-0.793468,0.000000
435.000000,0.002000,0.055127,-0.855876,-0.290195,-0.824744,-1.076324,2.109941,-1.396611,4.442485,1.377570,0.002000,0.356646,0.000000
436.000000,0.002000,0.100894,1.301898,-1.807729,-1.312588,-0.106936,-0.573948,-0.024812,-1.594703,2.242426,0.002000,1.940587,0.000000
437.000000,0.002000,-0.210865,0.087532,-0.179066,-1.924088,0.965171,-2.089858,1.330593,-0.423552,3.468244,0.002000,0.824452,0.000000
438.000000,0.002000,0.757591,0.396191,0.121899,0.567662,0.555002,1.123065,-4.349507,-2.849921,-0.031362,0.002000,0.638551,0.000000
439.000000,0.002000,-0.444860,1.201434,0.308576,0.612892,0.608198,1.349727,1.311389,-4.118598,-1.297079,0.002000,-0.028938,0.000000
440.000000,0.002000,0.251965,0.107766,-0.964537,2.128491,0.349742,-1.027619,-1.348116,0.097552,4.240709,0.002000,-1.929468,0.000000
441.000000,0.002000,-0.189981,-0.569406,-0.144644,1.576360,-1.543468,2.189750,1.386703,3.760171,0.149881,0.002000,0.055127,0.000000
442.000000,0.002000,0.270575,0.258797,-0.486950,-0.092022,2.373108,0.903275,-1.326489,-1.450068,3.331786,0.002000,0.100894,0.000000
443.000000,0.002000,-1.479503,-1.862225,-1.080106,0.081260,-0.844127,0.326963,1.337252,1.651212,1.009425,0.002000,-0.210865,0.000000
444.000000,0.002000,-0.240655,1.106080,-0.226356,-0.400932,-0.386759,0.812566,0.895099,-4.467229,0.376037,0.002000,0.757591,0.000000
445.000000,0.002000,0.657429,-0.336247,0.482315,-0.370698,-0.255868,1.448565,-3.085407,1.502199,-2.343794,0.002000,-0.444860,0.000000
446.000000,0.002000,0.523382,0.409777,-2.328589,-0.250231,-0.530306,-0.005407,-0.573106,-0.388950,2.344806,0.002000,0.251965,0.000000
447.000000,0.002000,-0.440241,0.578112,-0.257974,-1.689555,2.389059,-0.413003,1.600013,-3.423987,1.189968,0.002000,-0.189981,0.000000
448.000000,0.002000,-0.708326,0.652982,-1.480539,-2.032830,1.501947,-0.350336,1.422931,-1.241954,3.052027,0.002000,0.270575,0.000000
449.000000,0.002000,-0.390090,-0.736233,-0.422723,-1.616929,-0.022272,-1.685640,1.763469,3.739196,2.339976,0.002000,-1.479503,0.000000
450.000000,0.002000,0.991056,0.045819,-2.214512,-0.258810,0.487259,-0.481823,-1.003819,-0.137661,2.153611,0.002000,-0.240655,0.000000
451.000000,0.002000,1.991425,-0.998915,-2.574565,0.495245,-2.656924,0.067993,-0.961055,0.496436,1.251970,0.002000,0.657429,0.000000
452.000000,0.002000,-2.759234,0.002807,0.698819,-2.834150,1.484034,1.112132,2.012426,0.156405,-0.610477,0.002000,0.523382,0.000000
453.000000,0.002000,2.175127,-0.536060,2.044987,1.948262,-0.738815,0.918384,-1.362461,0.352242,-1.309005,0.002000,-0.440241,0.000000
454.000000,0.002000,-0.253458,0.484086,0.840307,0.861088,2.485911,1.094554,0.480547,-1.745285,-3.407691,0.002000,-0.708326,0.000000
455.000000,0.002000,0.347574,-2.609457,1.433784,-0.181023,-1.273802,0.283970,-0.245945,1.676500,-0.911074,0.002000,-0.390090,0.000000
456.000000,0.002000,0.534913,0.170855,-0.244422,-0.169466,1.227938,-1.468266,-3.492098,-0.442980,0.666478,0.002000,0.991056,0.000000
457.000000,0.002000,-1.243034,-2.616201,-0.846724,-0.466943,-1.217036,-0.061830,0.764611,1.620761,0.676902,0.002000,1.991425,0.000000
458.000000,0.002000,0.228183,1.246260,0.598226,-0.077360,1.084619,-1.272345,-0.779484,-4.023024,-1.701130,0.002000,-2.759234,0.000000
459.000000,0.002000,-0.942575,0.932574,-0.355391,0.862131,0.081551,-2.562552,3.234552,-2.749880,1.136743,0.002000,2.175127,0.000000
460.000000,0.002000,-0.453110,0.451571,-0.002434,0.215063,-0.191932,0.309637,2.147943,-2.726727,0.295516,0.002000,-0.253458,0.000000
461.000000,0.002000,1.194880,0.303852,1.295437,1.851984,-0.427316,-0.538372,-3.732357,-0.761618,-1.976249,0.002000,0.347574,0.000000
462.000000,0.002000,-1.810378,0.787033,0.490725,0.865610,0.241171,0.845964,2.878968,-1.149980,-0.642861,0.002000,0.534913,0.000000
463.000000,0.002000,-0.000929,-0.965261,-0.814074,-0.870916,1.761430,-0.180982,-0.426405,3.644456,2.612039,0.002000,-1.243034,0.000000
464.000000,0.002000,1.102241,0.413075,-0.185717,0.535792,-1.554311,1.511880,-4.031466,-1.601842,0.788441,0.002000,0.228183,0.000000
465.000000,0.002000,-0.015592,-0.556899,-0.774648,0.535145,3.394632,-1.031653,-0.600591,3.250139,6.048593,0.002000,-0.942575,0.000000
466.000000,0.002000,1.986283,-1.636134,0.544214,1.836110,-1.910122,-1.054524,-1.734421,1.540018,-0.526195,0.002000,-0.453110,0.000000
467.000000,0.002000,1.140566,-0.158520,0.185002,-0.279297,0.433228,0.805587,-3.819408,0.614587,-1.121409,0.002000,1.194880,0.000000
468.000000,0.002000,-0.788604,0.755367,-1.079712,-3.510221,1.437338,-1.395187,1.723911,-2.174062,2.669105,0.002000,-1.810378,0.000000
469.000000,0.002000,0.449200,-0.286211,0.491847,0.435997,0.827585,-1.942893,-3.058815,1.219976,-2.500818,0.002000,-0.000929,0.000000
470.000000,0.002000,-0.541823,-1.195827,0.071242,-3.659674,-1.829117,0.169780,1.287519,6.661864,-0.154293,0.002000,1.102241,0.000000
471.000000,0.002000,1.408641,1.938313,-1.752416,0.814833,0.209760,-1.203490,-0.960194,-1.161879,1.220443,0.002000,-0.015592,0.000000
472.000000,0.002000,0.361556,0.598968,1.246632,-1.639920,3.218693,0.664283,-2.032993,-0.743744,-4.466211,0.002000,1.986283,0.000000
473.000000,0.002000,-0.287964,2.409699,2.963450,-2.394187,0.531751,2.202042,0.100804,-0.839156,-1.048847,0.002000,1.140566,0.000000
474.000000,0.002000,-1.194694,-0.787227,-0.107928,-0.126309,0.883359,-2.018939,3.466587,2.399251,0.178635,0.002000,-0.788604,0.000000
475.000000,0.002000,0.376249,0.490427,0.389313,1.262495,-2.455782,-1.207092,-2.395399,-1.846909,-1.830531,0.002000,0.449200,0.000000
476.000000,0.002000,0.035364,-2.776671,-0.201436,0.651894,-2.137674,0.759001,-0.005559,2.218625,0.003523,0.002000,-0.541823,0.000000
477.000000,0.002000,-1.019474,-0.827690,-0.344045,0.529182,-0.461924,-1.618939,3.309465,3.133118,0.822021,0.002000,1.408641,0.000000
478.000000,0.002000,2.003075,2.391282,-1.008287,1.570356,2.740352,-1.162581,-1.079477,-1.245072,0.564923,0.002000,0.361556,0.000000
479.000000,0.002000,-0.603978,0.862250,0.452152,-1.180676,0.517365,-2.123216,2.195081,-3.797866,-1.270716,0.002000,-0.287964,0.000000
480.000000,0.002000,-0.467305,-2.435167,-1.713015,-1.182336,-1.876965,-0.644048,0.175019,1.501916,1.113040,0.002000,-1.194694,0.000000
481.000000,0.002000,-2.519721,-0.790284,-0.072019,-1.105364,-1.330489,0.926130,2.086867,0.693498,0.047596,0.002000,0.376249,0.000000
482.000000,0.002000,-0.388433,1.684978,-2.056556,0.259497,1.718318,-0.730486,0.327330,-1.351475,1.777704,0.002000,0.035364,0.000000
483.000000,0.002000,3.313006,-1.028457,-1.318914,3.111455,-1.033973,-0.931134,-1.270230,0.363606,0.510750,0.002000,-1.019474,0.000000
484.000000,0.002000,0.614328,1.055625,0.225283,-0.363783,0.441351,-0.742417,-2.632990,-4.031765,-0.917875,0.002000,2.003075,0.000000
485.000000,0.002000,-0.203617,-0.303680,-0.034062,-1.183277,-1.387808,0.468701,1.223851,2.200552,0.374287,0.002000,-0.603978,0.000000
486.000000,0.002000,-1.176931,-1.205724,1.287149,-1.501714,-1.900440,-0.800008,1.578109,1.663512,-1.658812,0.002000,-0.467305,0.000000
487.000000,0.002000,0.994561,2.534438,0.090402,0.110265,2.476400,1.594337,-0.663399,-1.604091,-0.026110,0.002000,-2.519721,0.000000
488.000000,0.002000,-0.495614,0.414250,0.694930,0.467713,0.126759,3.962597,2.644527,-1.769783,-3.270536,0.002000,-0.388433,0.000000
489.000000,0.002000,0.184913,-1.676283,-0.348856,0.431636,-0.012830,1.261483,-0.425925,3.625405,0.749662,0.002000,3.313006,0.000000
490.000000,0.002000,1.300990,-0.595022,1.792756,1.931829,-0.042692,0.858778,-1.374589,0.720472,-1.948999,0.002000,0.614328,0.000000
491.000000,0.002000,-0.576731,0.537385,0.063257,-1.871263,0.177383,-1.298822,3.006429,-3.302271,-0.703904,0.002000,-0.203617,0.000000
492.000000,0.002000,0.872028,0.611095,0.207972,0.734114,0.310301,0.851492,-3.950718,-2.458458,-1.177153,0.002000,-1.176931,0.000000
493.000000,0.002000,-2.139229,-0.427942,-0.406391,-0.756941,0.160149,0.958328,2.644920,0.554410,0.500800,0.002000,0.994561,0.000000
494.000000,0.002000,-0.663873,0.416593,-0.412608,0.194238,-0.538685,1.217001,2.957208,-1.644259,1.753845,0.002000,-0.495614,0.000000
495.000000,0.002000,-0.502948,0.222862,0.736649,1.501502,-0.179842,-0.822590,2.812890,-0.758897,-3.217094,0.002000,0.184913,0.000000
496.000000,0.002000,2.274730,-0.739779,-2.056118,1.935559,0.207494,-1.150238,-1.319945,0.363584,1.194560,0.002000,1.300990,0.000000
497.000000,0.002000,2.599276,-5.239036,-3.097646,-0.499598,-2.047004,-0.692729,-0.179930,0.361327,0.213523,0.002000,-0.576731,0.000000
498.000000,0.002000,-0.431600,-0.877397,0.677474,1.910291,-0.080010,-0.497843,1.848366,3.238780,-3.088577,0.002000,0.872028,0.000000
499.000000,0.002000,0.617583,-2.582831,1.937305,-0.648433,-1.267875,1.317011,-0.197126,1.482311,-1.054986,0.002000,-2.139229,0.000000
500.000000,0.002000,-0.635379,-1.104057,-0.825919,-0.112605,1.155145,-0.889303,1.665043,3.199258,2.210615,0.002000,-0.663873,0.000000
501.000000,0.002000,0.736833,-0.020116,-0.570628,-0.542789,0.229315,-0.550983,-3.335679,-0.058160,2.604463,0.002000,-0.502948,0.000000
502.000000,0.002000,-2.060152,-0.385648,0.040972,-0.386230,-1.173018,1.011872,2.879951,0.648909,-0.160862,0.002000,2.274730,0.000000
503.000000,0.002000,-0.205390,-0.787649,0.606638,-0.154968,-1.227711,-1.783103,1.092083,3.599837,-3.103191,0.002000,2.599276,0.000000
504.000000,0.002000,-1.719167,0.591374,-1.530665,-1.162715,-0.537499,0.490333,1.874275,-0.672793,1.645370,0.002000,-0.431600,0.000000
505.000000,0.002000,1.799367,1.951057,-0.141011,0.063902,0.220399,0.345581,-1.729421,-1.568132,0.132947,0.002000,0.617583,0.000000
506.000000,0.002000,0.216858,0.142418,-0.063417,0.120723,-3.234141,-0.239330,-3.529587,-1.218302,-1.392044,0.002000,-0.635379,0.000000
507.000000,0.002000,2.206496,-0.354782,0.320201,0.447824,-0.248160,1.452731,-3.104846,0.757129,-0.664809,0.002000,0.736833,0.000000
508.000000,0.002000,1.921497,-1.371243,-1.865668,1.254877,-1.281400,-0.386280,-1.278990,0.951321,1.228770,0.002000,-2.060152,0.000000
509.000000,0.002000,-0.931284,-2.426677,-1.342333,-0.411022,-0.246443,-0.727653,0.646080,1.614428,0.896416,0.002000,-0.205390,0.000000
510.000000,0.002000,-1.533067,1.411203,0.668747,-2.302496,1.501532,1.953438,1.855420,-1.770252,-0.821260,0.002000,-1.719167,0.000000
511.000000,0.002000,2.463316,-3.102808,-1.882965,1.744598,-1.095465,1.002668,-0.584590,0.725099,0.467009,0.002000,1.799367,0.000000
512.000000,0.002000,-0.299266,-0.145990,-0.890856,-2.355890,0.090123,0.946076,2.786872,1.077801,4.464084,0.002000,0.216858,0.000000
513.000000,0.002000,0.645805,0.245342,-1.320871,-0.794642,-0.071292,-3.898820,-1.897177,-0.622012,3.795342,0.002000,2.206496,0.000000
514.000000,0.002000,-1.978127,0.016750,0.902521,-0.500145,1.165499,-0.068259,2.506162,0.184951,-1.284471,0.002000,1.921497,0.000000
515.000000,0.002000,-1.047831,2.684390,1.269180,-0.836225,2.443363,1.549286,0.684295,-1.543818,-0.748510,0.002000,-0.931284,0.000000
516.000000,0.002000,-0.500521,0.099597,0.095037,-2.058248,0.467343,-0.539011,4.981410,1.313457,-2.316929,0.002000,-1.533067,0.000000
517.000000,0.002000,-0.526575,0.834695,-0.591284,0.481914,-1.421009,-1.094257,2.010757,-0.682544,3.372802,0.002000,2.463316,0.000000
518.000000,0.002000,-0.565485,-0.536103,0.625724,-0.272507,-1.618884,-1.068515,2.658503,2.873042,-3.209978,0.002000,-0.299266,0.000000
519.000000,0.002000,-0.162569,1.552431,-0.165258,-0.299278,1.148669,-0.282903,0.602590,-4.167260,0.204248,0.002000,0.645805,0.000000
520.000000,0.002000,0.702384,-0.486807,0.333252,0.153524,2.273715,-0.149144,-3.778044,2.193661,-2.423543,0.002000,-1.978127,0.000000
521.000000,0.002000,-0.107694,-1.338676,-0.263156,1.935742,0.940921,-0.834559,0.034071,4.512492,0.923250,0.002000,-1.047831,0.000000
522.000000,0.002000,0.065251,0.820495,0.379764,-2.136562,0.073186,-0.354676,1.646665,-5.172177,-1.665183,0.002000,-0.500521,0.000000
523.000000,0.002000,-0.497251,0.379463,0.603631,-2.238455,0.961590,-0.895598,2.592450,-1.613390,-2.641754,0.002000,-0.526575,0.000000
524.000000,0.002000,0.609009,0.780447,-0.009442,2.714888,3.123765,-0.299179,-3.133178,-2.873772,-0.139293,0.002000,-0.565485,0.000000
525.000000,0.002000,2.289509,1.985788,-0.786246,0.656464,0.599650,0.288365,-1.389490,-1.174121,0.539017,0.002000,-0.162569,0.000000
526.000000,0.002000,1.035869,0.819198,0.729939,-0.098202,0.709591,-0.974252,-2.994322,-2.414282,-2.009376,0.002000,0.702384,0.000000
527.000000,0.002000,-0.489269,0.099280,1.134993,0.479701,0.578413,1.588898,1.616780,0.391095,-4.545523,0.002000,-0.107694,0.000000
528.000000,0.002000,1.226408,-1.230130,2.669739,1.871582,-0.620683,0.257978,-0.650870,0.370636,-2.112986,0.002000,0.065251,0.000000
529.000000,0.002000,-0.805764,-0.070326,0.699050,0.015708,-0.947894,1.626873,3.380119,0.609336,-3.914142,0.002000,-0.497251,0.000000
530.000000,0.002000,-1.365550,-1.797352,-0.875622,-0.119307,-3.313457,-1.363104,1.405498,1.835601,0.878947,0.002000,0.609009,0.000000
531.000000,0.002000,1.789546,0.006689,2.196384,0.411398,-0.059594,1.639048,-1.297499,0.039133,-1.670506,0.002000,2.289509,0.000000
532.000000,0.002000,-1.466872,0.730683,0.805376,0.948983,1.657059,1.946056,3.601051,-1.090361,-1.550225,0.002000,1.035869,0.000000
533.000000,0.002000,2.230056,0.164700,-1.080240,0.487072,1.229674,-1.648572,-2.320760,-0.168616,1.106588,0.002000,-0.489269,0.000000
534.000000,0.002000,0.444837,-0.103657,0.633567,1.123952,-0.930691,-0.715782,-2.670754,1.050427,-3.666949,0.002000,1.226408,0.000000
535.000000,0.002000,1.511820,1.339671,2.051418,1.645901,1.531572,2.062393,-1.098907,-0.981423,-1.464404,0.002000,-0.805764,0.000000
536.000000,0.002000,-1.508507,-2.763195,-0.412848,-1.096807,-1.757234,-0.348260,0.894733,1.564096,0.232258,0.002000,-1.365550,0.000000
537.000000,0.002000,1.318913,1.284272,1.521904,0.182069,-0.700261,1.173225,-1.298893,-1.376968,-1.401808,0.002000,1.789546,0.000000
538.000000,0.002000,1.163893,-1.548097,-0.432291,-1.912416,1.686694,0.919961,-1.643583,3.272441,1.575260,0.002000,-1.466872,0.000000
539.000000,0.002000,0.599252,0.699117,0.472672,-0.018221,1.077675,3.767452,-4.203975,-3.393723,-2.704650,0.002000,2.230056,0.000000
540.000000,0.002000,0.588137,0.506721,0.167575,0.114875,3.045295,-0.033668,-3.591778,-2.899428,-0.632581,0.002000,0.444837,0.000000
541.000000,0.002000,0.641020,2.164872,2.067097,0.007376,0.879364,1.085873,-0.393843,-1.372299,-1.168806,0.002000,1.511820,0.000000
542.000000,0.002000,1.459110,-0.035421,-0.381069,1.614374,0.029492,1.802893,-4.342053,0.060745,1.052903,0.002000,-1.508507,0.000000
543.000000,0.002000,-0.611742,0.607254,-1.559057,-0.430614,-0.454167,-0.222983,1.044552,-1.100787,3.183238,0.002000,1.318913,0.000000
544.000000,0.002000,0.559413,0.654260,-0.789053,-1.431903,-0.099426,0.168251,-2.420920,-2.576266,3.013811,0.002000,1.163893,0.000000
545.000000,0.002000,0.055560,-1.543343,0.271844,0.973846,-3.091514,-0.204183,-0.021560,4.287412,-0.887848,0.002000,0.599252,0.000000
546.000000,0.002000,-0.550854,0.215499,0.132402,1.105630,1.254088,-1.305591,4.234378,-1.879616,-1.685517,0.002000,0.588137,0.000000
547.000000,0.002000,-0.445130,-0.928376,0.511044,-0.202312,-0.953952,1.135897,2.217153,3.980563,-1.873290,0.002000,0.641020,0.000000
548.000000,0.002000,-1.701490,1.673535,1.872338,-0.649784,1.557254,1.435291,1.639206,-0.526985,-0.241867,0.002000,1.459110,0.000000
549.000000,0.002000,-2.303033,-0.703245,0.796486,-2.280541,1.223611,-0.506337,2.177216,0.716423,-0.697173,0.002000,-0.611742,0.000000
550.000000,0.002000,-0.184216,1.277978,-0.094925,0.713863,-1.128200,1.619203,0.720773,-4.391516,-0.309184,0.002000,0.559413,0.000000
551.000000,0.002000,0.305508,0.840225,1.686154,2.384054,1.862939,1.564967,-0.504367,-1.439083,-3.006078,0.002000,0.055560,0.000000
552.000000,0.002000,0.172009,-0.310230,-0.866584,1.959892,-1.271068,1.514725,-2.592481,0.886848,7.037328,0.002000,-0.550854,0.000000
553.000000,0.002000,0.351364,-0.209062,-2.769455,1.446499,-1.039755,-2.261308,-0.274312,0.174586,2.132238,0.002000,-0.445130,0.000000
554.000000,0.002000,-0.354934,-0.522518,-0.413695,-0.820793,0.357613,-0.454612,1.676327,2.936717,2.704110,0.002000,-1.701490,0.000000
555.000000,0.002000,-0.166199,1.119635,0.294649,-0.979404,-2.267902,-0.155548,0.985487,-4.324173,-0.569757,0.002000,-2.303033,0.000000
556.000000,0.002000,0.705749,0.427939,-1.559433,-0.500673,0.493689,0.059223,-1.261911,-0.917122,3.146917,0.002000,-0.184216,0.000000
557.000000,0.002000,0.378263,0.001242,-0.658876,2.624291,0.323072,1.322321,-2.421369,-0.230494,3.981426,0.002000,0.305508,0.000000
558.000000,0.002000,0.436479,2.118003,1.777881,1.209090,0.535822,2.090570,-0.334952,-1.597750,-1.330077,0.002000,0.172009,0.000000
559.000000,0.002000,-1.136969,-1.090188,0.343620,-1.320072,0.736349,-2.532653,2.784562,2.673831,-0.923117,0.002000,0.351364,0.000000
560.000000,0.002000,0.020616,-0.721051,-2.250511,0.289528,1.640760,-2.219117,-0.036135,0.745474,2.482766,0.002000,-0.354934,0.000000
561.000000,0.002000,-0.280252,0.113725,0.722155,-1.002437,-2.144710,1.457777,2.471138,-0.314123,-4.447053,0.002000,-0.166199,0.000000
562.000000,0.002000,0.044763,-2.078986,-0.013851,-2.872365,0.547858,0.006100,-0.032501,3.225364,-0.203900,0.002000,0.705749,0.000000
563.000000,0.002000,1.656270,-0.796871,-2.056977,1.794164,-1.137216,-0.922076,-1.290065,0.642074,1.639608,0.002000,0.378263,0.000000
564.000000,0.002000,3.000216,-0.670660,-0.262711,1.493976,-1.465995,0.693926,-1.791841,0.440199,0.147750,0.002000,0.436479,0.000000
565.000000,0.002000,1.630435,-1.082918,-0.602304,-2.541174,-0.060150,0.085988,-2.263495,1.499498,0.922855,0.002000,-1.136969,0.000000
566.000000,0.002000,0.435661,1.244924,-1.874633,0.671760,-0.220061,-0.299285,-0.553262,-0.843859,1.745570,0.002000,0.020616,0.000000
567.000000,0.002000,1.628867,-0.898202,2.250654,2.086547,-0.678249,1.700826,-1.115192,0.578026,-1.625672,0.002000,-0.280252,0.000000
568.000000,0.002000,0.075082,0.690626,-0.721529,0.662502,-0.832416,0.934485,-0.887989,-3.499160,4.098398,0.002000,0.044763,0.000000
569.000000,0.002000,0.148067,0.068567,-2.312499,-0.729705,1.605001,-0.717076,-0.147553,-0.067979,2.386132,0.002000,1.656270,0.000000
570.000000,0.002000,0.508667,-3.953795,2.849652,0.556288,-0.170874,0.441546,-0.088979,0.661404,-0.480055,0.002000,3.000216,0.000000
571.000000,0.002000,0.219076,-1.088142,-0.970602,1.052858,1.536206,-0.744530,-0.796579,3.130498,2.948982,0.002000,1.630435,0.000000
572.000000,0.002000,2.229175,0.119875,0.965194,2.694805,-0.871226,0.194321,-2.465261,-0.054036,-0.991834,0.002000,0.435661,0.000000
573.000000,0.002000,-0.189246,-0.992752,0.440264,0.346233,0.714208,-0.221442,0.523769,4.531840,-1.994441,0.002000,1.628867,0.000000
574.000000,0.002000,2.254998,-0.197229,0.259340,0.939800,-0.860242,-1.297553,-3.047735,0.077290,0.574874,0.002000,0.075082,0.000000
575.000000,0.002000,-1.116773,1.540442,0.568753,-0.889116,3.223921,0.777383,1.718884,-2.391460,-0.950139,0.002000,0.148067,0.000000
576.000000,0.002000,0.276763,1.327776,-0.567475,1.287522,-0.911060,0.590027,-0.866249,-3.858784,1.729375,0.002000,0.508667,0.000000
577.000000,0.002000,0.664487,-0.348523,-0.377776,1.215022,0.094141,2.338642,-3.902956,2.010627,1.810935,0.002000,0.219076,0.000000
578.000000,0.002000,2.271319,3.557975,0.039043,-0.159376,-0.394241,-1.031728,-0.607408,-0.934712,-0.011813,0.002000,2.229175,0.000000
579.000000,0.002000,0.027237,-2.875763,1.489905,0.022415,-1.351750,1.396249,-0.083731,1.572320,-0.801521,0.002000,-0.189246,0.000000
580.000000,0.002000,-0.903635,1.392752,0.865000,-0.487892,0.063038,-1.100016,1.205400,-3.096225,-1.207714,0.002000,2.254998,0.000000
581.000000,0.002000,-1.319805,0.060079,0.912116,-0.435686,1.630015,0.225910,3.225664,0.315490,-2.162447,0.002000,-1.116773,0.000000
582.000000,0.002000,1.523457,0.266629,2.484979,1.171779,0.852279,2.951885,-1.076236,-0.124647,-1.753826,0.002000,0.276763,0.000000
583.000000,0.002000,-0.510911,1.103048,4.225064,1.170837,1.495746,0.045593,0.114313,-0.250166,-0.985519,0.002000,0.664487,0.000000
584.000000,0.002000,0.235724,-0.573566,1.317568,0.703646,-1.000725,-0.742753,-0.159799,1.871981,-3.753135,0.002000,2.271319,0.000000
585.000000,0.002000,-2.906268,0.113899,0.484509,-1.389039,-0.683544,0.908588,2.134206,0.143627,-0.319607,0.002000,0.027237,0.000000
586.000000,0.002000,-0.693873,-0.409102,0.639169,-1.362735,0.004724,0.904972,3.533782,1.827364,-2.979887,0.002000,-0.903635,0.000000
587.000000,0.002000,-0.233512,2.634264,-1.752632,0.588918,1.625707,-1.182861,0.094257,-1.519529,1.015786,0.002000,-1.319805,0.000000
588.000000,0.002000,-0.732334,2.336227,-0.451885,-0.229876,-0.171777,-0.507818,0.758789,-2.328593,0.507182,0.002000,1.523457,0.000000
589.000000,0.002000,1.037356,-1.011432,1.895305,0.422280,0.927909,1.458136,-0.949478,1.027761,-1.925559,0.002000,-0.510911,0.000000
590.000000,0.002000,0.913669,2.661443,-0.755136,1.406452,2.062086,0.617950,-0.617343,-1.873721,0.537562,0.002000,0.235724,0.000000
591.000000,0.002000,-0.707413,-0.690632,0.147305,-0.232978,1.171960,0.532982,3.677862,3.285503,-0.727598,0.002000,-2.906268,0.000000
592.000000,0.002000,0.932895,0.342093,0.640098,1.147905,0.921735,0.479679,-3.625239,-1.443165,-2.372185,0.002000,-0.693873,0.000000
593.000000,0.002000,-2.007197,0.420482,1.769763,-2.243602,1.046948,2.040935,0.738023,-0.391842,-1.574067,0.002000,-0.233512,0.000000
594.000000,0.002000,-0.922077,-1.934533,-0.971554,-1.102551,-2.598877,0.720862,0.974336,2.250465,1.045133,0.002000,-0.732334,0.000000
595.000000,0.002000,-0.813772,-0.935190,-0.476573,0.480741,-1.818345,-0.195049,2.899489,3.340491,1.678297,0.002000,1.037356,0.000000
596.000000,0.002000,-2.033266,2.814972,-0.478632,-1.946761,1.771909,-0.001194,0.926589,-1.274307,0.197515,0.002000,0.913669,0.000000
597.000000,0.002000,-2.338780,0.413238,-1.145450,-1.259272,-1.281619,-0.938332,2.035098,-0.393022,0.909406,0.002000,-0.707413,0.000000
598.000000,0.002000,0.673553,-0.815247,0.433396,1.384623,0.481445,1.910029,-3.082658,3.548825,-1.803041,0.002000,0.932895,0.000000
599.000000,0.002000,-0.983996,-1.278522,-1.719356,-1.597717,-1.022887,-0.088816,1.005952,1.415492,1.842630,0.002000,-2.007197,0.000000
600.000000,0.002000,-1.669940,-1.433672,-1.090230,-0.321231,-1.067157,-0.033804,1.717806,1.491625,1.176976,0.002000,-0.922077,0.000000
601.000000,0.002000,1.052837,-1.207309,0.551597,0.230341,0.474154,2.097443,-2.219843,2.440849,-1.313112,0.002000,-0.813772,0.000000
602.000000,0.002000,1.550163,-0.902667,-0.344968,0.431555,-0.744571,0.308731,-2.629910,1.643254,0.692063,0.002000,-2.033266,0.000000
603.000000,0.002000,1.183381,-1.372498,-0.975238,-0.472584,-2.339347,-1.996535,-1.652896,1.885972,1.303491,0.002000,-2.338780,0.000000
604.000000,0.002000,-0.309751,-1.404487,-0.260827,-0.865060,0.244186,0.148372,1.182967,4.326032,0.697255,0.002000,0.673553,0.000000
605.000000,0.002000,0.049068,-0.669090,-0.898625,-1.674154,-0.953201,-1.341349,-0.460994,2.588710,4.225391,0.002000,-0.983996,0.000000
606.000000,0.002000,0.234135,-1.153255,0.450688,3.801992,-1.526916,-0.835788,-0.993020,4.817377,-2.030783,0.002000,-1.669940,0.000000
607.000000,0.002000,-1.041582,-0.523610,-0.795123,0.150817,0.807795,-2.228995,3.408292,1.558371,3.944692,0.002000,1.052837,0.000000
608.000000,0.002000,0.017197,-0.259015,0.576653,1.086723,-2.237011,0.332684,0.125971,0.680395,-3.911975,0.002000,1.550163,0.000000
609.000000,0.002000,0.897437,1.123932,0.116663,2.791853,2.222997,1.146409,-2.951258,-2.867943,-0.456312,0.002000,1.183381,0.000000
610.000000,0.002000,0.511926,0.977285,0.172886,0.288128,-1.106751,0.074946,-2.204729,-4.051590,-0.706797,0.002000,-0.309751,0.000000
611.000000,0.002000,-0.101275,-0.290984,-1.067929,0.240895,1.236423,0.034308,0.541137,1.318240,4.704025,0.002000,0.049068,0.000000
612.000000,0.002000,-0.213196,0.127270,0.138060,1.597595,0.020881,1.646224,1.763589,-0.638709,-1.929276,0.002000,0.234135,0.000000
613.000000,0.002000,0.754394,-0.299047,0.670391,0.555680,-0.879867,1.800517,-3.519533,1.192658,-3.292186,0.002000,-1.041582,0.000000
614.000000,0.002000,-0.820480,0.524544,1.244367,0.310895,0.378030,1.463534,1.662287,-1.355330,-3.112955,0.002000,0.017197,0.000000
615.000000,0.002000,-0.075287,-1.242658,-0.023117,-0.660321,1.815986,-1.129314,0.085482,5.341489,0.127423,0.002000,0.897437,0.000000
616.000000,0.002000,0.755237,-0.169137,-1.174242,1.746567,0.143001,0.849274,-2.256779,0.549846,3.421467,0.002000,0.511926,0.000000
617.000000,0.002000,0.796892,1.152893,0.772975,0.585754,-0.206614,0.706650,-1.899508,-2.803079,-2.014314,0.002000,-0.101275,0.000000
618.000000,0.002000,0.077736,-0.646175,-0.514560,1.194692,-1.185538,0.433848,-1.483775,2.890600,2.699858,0.002000,-0.213196,0.000000
619.000000,0.002000,0.230131,0.708078,-2.430676,0.467926,0.788140,-2.697037,-0.055677,-0.569868,2.192585,0.002000,0.754394,0.000000
620.000000,0.002000,0.260496,-0.446154,-0.146126,2.503344,0.837899,1.672667,-1.523893,2.876493,0.811646,0.002000,-0.820480,0.000000
621.000000,0.002000,-1.133759,-1.271338,-0.597141,0.237622,-0.994232,0.854713,1.974677,2.412660,1.383033,0.002000,-0.075287,0.000000
622.000000,0.002000,-1.427449,0.592079,0.481037,-0.311264,0.905348,-1.711553,3.364785,-1.399988,-1.171797,0.002000,0.755237,0.000000
623.000000,0.002000,-0.545710,0.499846,-0.217665,-0.638090,1.419264,0.367285,2.552576,-2.422888,0.471584,0.002000,0.796892,0.000000
624.000000,0.002000,-0.024980,-0.615041,0.131798,2.040718,-1.114863,0.250605,0.331233,3.791577,-0.815122,0.002000,0.077736,0.000000
625.000000,0.002000,0.788274,2.330909,0.263787,0.841639,2.870217,0.882357,-0.755097,-2.210025,-0.288277,0.002000,0.230131,0.000000
626.000000,0.002000,-1.224924,0.426099,-1.163634,-0.918122,-1.094274,0.686289,2.564420,-0.861314,2.421055,0.002000,0.260496,0.000000
627.000000,0.002000,0.478256,-0.195830,1.160985,-0.767261,-1.128021,0.314089,-1.711440,0.276605,-4.383436,0.002000,-1.133759,0.000000
628.000000,0.002000,-0.246547,-0.059760,1.127331,-1.333523,2.349225,-0.075457,0.760908,0.173092,-5.233878,0.002000,-1.427449,0.000000
629.000000,0.002000,0.984978,-0.384250,-1.563455,-1.370046,0.346059,-1.423602,-1.792616,0.841444,2.806842,0.002000,-0.545710,0.000000
630.000000,0.002000,1.420043,-0.008529,-0.087304,1.427488,0.275668,-1.225014,-4.547442,-0.041286,0.347090,0.002000,-0.024980,0.000000
631.000000,0.002000,3.040995,-1.019410,0.887315,1.653339,0.003640,0.520482,-1.532246,0.586843,-0.449133,0.002000,0.788274,0.000000
632.000000,0.002000,0.490722,0.443609,-0.298428,0.195979,-2.734042,0.557360,-3.738253,-2.767443,1.572544,0.002000,-1.224924,0.000000
633.000000,0.002000,-0.363981,2.114736,-1.684795,0.916001,1.792145,-2.286774,0.135939,-1.801736,1.344620,0.002000,0.478256,0.000000
634.000000,0.002000,0.857440,-0.511082,0.586142,0.337169,1.058606,-1.920750,-3.450084,2.355453,-2.369535,0.002000,-0.246547,0.000000
635.000000,0.002000,-0.538360,-0.981840,-0.504147,-0.923495,-0.908616,-1.218582,5.125127,6.232604,-4.609139,0.002000,0.984978,0.000000
636.000000,0.002000,0.517522,0.808983,-0.820577,0.019099,0.985919,-0.167954,-2.019000,-2.925374,2.907259,0.002000,1.420043,0.000000
637.000000,0.002000,1.710655,1.679065,-1.647009,1.386325,1.513969,-0.782090,-1.217196,-1.187990,1.089871,0.002000,3.040995,0.000000
638.000000,0.002000,3.224749,0.102775,1.025916,2.021643,0.098645,0.810951,-1.682597,-0.106580,-0.480242,0.002000,0.490722,0.000000
639.000000,0.002000,0.410223,-0.620820,-2.600833,0.961497,-0.222488,-0.357632,-0.331877,0.715402,2.157456,0.002000,-0.363981,0.000000
640.000000,0.002000,-0.651867,0.116872,0.032661,-3.211382,0.080568,-0.484849,4.020388,0.162164,-0.758900,0.002000,0.857440,0.000000
641.000000,0.002000,0.560296,-0.776360,-0.215356,1.949747,-0.414682,2.138102,-3.167441,3.839624,1.133735,0.002000,-0.538360,0.000000
642.000000,0.002000,0.013530,0.175185,0.631114,-0.151353,0.521239,-2.220434,-1.685168,1.950334,-4.230001,0.002000,0.517522,0.000000
643.000000,0.002000,-2.287554,-1.232813,-0.506086,-2.338235,0.586607,0.460093,2.009862,1.070844,0.389937,0.002000,1.710655,0.000000
644.000000,0.002000,0.729676,-2.278903,-0.453039,0.978941,-0.265414,-0.957073,-0.789403,2.298070,0.461234,0.002000,3.224749,0.000000
645.000000,0.002000,0.441935,0.230091,-0.268052,0.827830,-1.828356,-1.489649,-2.056804,-1.859416,1.120839,0.002000,0.410223,0.000000
646.000000,0.002000,-1.551640,1.117885,2.447554,-0.866962,0.974004,2.061864,1.027509,-0.513085,-1.480402,0.002000,-0.651867,0.000000
647.000000,0.002000,0.759892,-1.006152,-2.257208,1.091421,-1.270628,-0.408283,-0.808363,0.905940,1.901308,0.002000,0.560296,0.000000
648.000000,0.002000,1.785078,0.375656,-0.467969,1.739746,-1.071665,-0.019194,-3.279386,-0.730654,0.776010,0.002000,0.013530,0.000000
649.000000,0.002000,-0.095733,-0.607812,0.083146,-0.248740,-0.453708,-0.587169,0.923554,3.188863,0.204566,0.002000,-2.287554,0.000000
650.000000,0.002000,-1.459807,0.616207,0.641944,-2.566809,-2.455241,0.907331,3.102163,-1.164086,-1.425958,0.002000,0.729676,0.000000
651.000000,0.002000,-0.801332,1.158325,2.286983,-2.204736,1.472691,1.908841,0.708586,0.144335,-2.175678,0.002000,0.441935,0.000000
652.000000,0.002000,-0.588295,-0.553534,0.170967,1.318780,-1.256195,-2.254452,3.233985,2.802828,-1.050457,0.002000,-1.551640,0.000000
653.000000,0.002000,-0.845231,2.013051,-0.287552,-1.395163,3.126523,0.641054,1.160716,-2.551003,0.451210,0.002000,0.759892,0.000000
654.000000,0.002000,-1.987654,1.347072,0.630502,0.322270,0.300728,1.105021,1.946247,-1.318526,-0.535625,0.002000,1.785078,0.000000
655.000000,0.002000,1.998013,-1.259189,0.089667,1.890394,0.926116,1.187492,-2.041697,1.326105,-0.112541,0.002000,-0.095733,0.000000
656.000000,0.002000,1.738859,-0.060393,0.569054,-1.113992,-0.025363,0.697564,-3.260416,0.002421,-1.120988,0.002000,-1.459807,0.000000
657.000000,0.002000,-1.033378,0.183757,0.277992,-0.454209,0.451728,-1.976231,4.824142,-0.300629,-1.354582,0.002000,-0.801332,0.000000
658.000000,0.002000,-1.189267,0.006610,0.427003,-0.091441,0.046077,-0.002070,4.114696,0.540430,-1.797695,0.002000,-0.588295,0.000000
659.000000,0.002000,-1.105009,-0.306906,1.946219,-0.099943,0.505805,1.667295,1.149892,0.393892,-2.261340,0.002000,-0.845231,0.000000
660.000000,0.002000,-0.689423,-0.996381,-0.816257,-1.687333,0.125467,0.660136,1.855442,2.941039,2.444323,0.002000,-1.987654,0.000000
661.000000,0.002000,-0.973211,-1.478308,-1.117126,-0.908542,0.329521,0.022892,1.398155,1.900379,1.571456,0.002000,1.998013,0.000000
662.000000,0.002000,-1.945872,0.650465,1.685619,-2.420943,0.103244,0.138926,1.660473,-0.530121,-1.452923,0.002000,1.738859,0.000000
663.000000,0.002000,1.864818,0.376339,1.426624,0.767231,0.118356,-0.555337,-2.070746,-0.356356,-1.471579,0.002000,-1.033378,0.000000
664.000000,0.002000,-0.562998,1.144745,0.262500,-0.540600,-0.542306,0.949357,1.760627,-3.977673,-1.171919,0.002000,-1.189267,0.000000
665.000000,0.002000,0.899110,-0.150119,0.220816,-0.610624,-2.393855,-0.740427,-4.084233,0.886198,-1.187437,0.002000,-1.105009,0.000000
666.000000,0.002000,-0.153761,0.217242,0.548010,0.551664,2.463639,-2.039303,1.449873,-0.960279,-4.001342,0.002000,-0.689423,0.000000
667.000000,0.002000,-0.302399,-0.604766,0.000817,-1.041681,0.614386,-3.065809,2.121427,2.779589,-0.151664,0.002000,-0.973211,0.000000
668.000000,0.002000,1.066305,1.127196,2.113001,-0.408481,0.519706,0.452685,-0.937923,-1.013260,-1.874689,0.002000,-1.945872,0.000000
669.000000,0.002000,1.269424,-1.075730,-0.675473,-0.960898,-0.445293,-0.863906,-2.279397,1.945949,1.366795,0.002000,1.864818,0.000000
670.000000,0.002000,-0.077803,0.936708,0.018165,0.723417,-0.923782,-1.143898,0.732544,-4.441603,-0.034961,0.002000,-0.562998,0.000000
671.000000,0.002000,-1.289258,-0.750949,-1.896103,-0.011635,-1.081981,-0.148986,1.409819,0.888054,1.755294,0.002000,0.899110,0.000000
672.000000,0.002000,0.568174,0.273493,-0.284681,-1.231352,-0.753700,1.103482,-4.380395,-2.678975,2.307415,0.002000,-0.153761,0.000000
673.000000,0.002000,2.460858,-3.163558,-1.578561,0.230237,-1.162465,1.584718,-0.619894,0.793810,0.372722,0.002000,-0.302399,0.000000
674.000000,0.002000,-0.080310,1.814888,0.186646,0.825555,3.032879,1.798949,-0.200814,-3.348902,-0.470203,0.002000,1.066305,0.000000
675.000000,0.002000,2.185538,0.416445,1.209548,1.654092,1.627723,0.833087,-1.984593,-0.546315,-1.155724,0.002000,1.269424,0.000000
676.000000,0.002000,-0.830851,-0.501262,0.393334,1.081482,0.396912,-1.016983,4.119699,2.583159,-1.295127,0.002000,-0.077803,0.000000
677.000000,0.002000,-0.617275,-0.162559,0.387608,-2.620675,-0.443944,-0.864366,3.685323,1.311000,-2.210187,0.002000,-1.289258,0.000000
678.000000,0.002000,0.020712,0.983445,0.744031,-0.411197,0.568512,-1.522974,-0.586115,-4.366900,-3.147937,0.002000,0.568174,0.000000
679.000000,0.002000,-2.515899,0.139788,1.050842,-2.468987,0.787147,1.405597,1.990861,-0.000263,-0.885138,0.002000,2.460858,0.000000
680.000000,0.002000,-0.875080,-0.788448,-0.321077,-2.714531,-3.128916,0.392056,3.504061,2.773234,1.033849,0.002000,-0.080310,0.000000
681.000000,0.002000,1.098301,-1.545450,1.560565,-0.361168,-0.441957,0.096308,-0.953797,1.460793,-1.559046,0.002000,2.185538,0.000000
682.000000,0.002000,0.635841,-0.853375,0.082984,0.215963,-0.486641,-0.106967,-3.014963,3.941166,-0.221617,0.002000,-0.830851,0.000000
683.000000,0.002000,0.170061,0.818073,-1.255038,0.409019,-1.739148,2.553643,-0.663071,-1.717989,3.546445,0.002000,-0.617275,0.000000
684.000000,0.002000,-1.625613,2.955026,-0.704253,-0.803212,1.258375,-0.306510,0.796389,-1.442379,0.360882,0.002000,0.020712,0.000000
685.000000,0.002000,-1.012314,0.493665,0.015185,-1.107710,-2.105948,-0.419196,4.631134,-2.305499,-0.147931,0.002000,-2.515899,0.000000
686.000000,0.002000,0.062532,-0.003345,-0.687152,-0.750137,1.530839,1.576522,-0.350221,-0.252362,3.628285,0.002000,-0.875080,0.000000
687.000000,0.002000,-0.482536,-3.063180,-2.100110,-0.256046,-2.533867,-0.587759,0.174657,1.142811,0.803789,0.002000,1.098301,0.000000
688.000000,0.002000,-1.280486,-1.875932,-0.700858,-0.169242,0.105012,-1.086834,1.341217,1.965960,0.692726,0.002000,0.635841,0.000000
689.000000,0.002000,0.996154,2.008071,1.764436,0.289561,2.420343,1.478950,-0.794539,-1.473662,-1.278311,0.002000,0.170061,0.000000
690.000000,0.002000,-1.009309,-0.443750,-2.396530,-0.462778,-1.107219,-2.820297,0.668539,0.290200,2.010926,0.002000,-1.625613,0.000000
691.000000,0.002000,-2.814235,-1.493590,-0.085194,-2.115914,-1.644259,0.307458,1.555472,0.882025,0.042692,0.002000,-1.012314,0.000000
692.000000,0.002000,0.268864,-0.131235,1.056892,0.193452,-0.912128,-0.397298,-1.462329,0.558434,-4.731081,0.002000,0.062532,0.000000
693.000000,0.002000,0.407983,0.928322,1.023014,0.942735,1.563882,-0.352396,-1.304207,-2.930184,-3.153944,0.002000,-0.482536,0.000000
694.000000,0.002000,-0.093287,1.777430,-0.653844,1.011673,-0.145822,0.612819,0.088435,-3.131711,1.142853,0.002000,-1.280486,0.000000
695.000000,0.002000,-1.876084,1.807668,0.178840,-1.794529,-0.038321,0.375019,1.670741,-1.536174,-0.086336,0.002000,0.996154,0.000000
696.000000,0.002000,2.207629,0.587081,-1.316436,2.886692,0.393341,-1.168520,-1.867376,-0.508766,1.115144,0.002000,-1.009309,0.000000
697.000000,0.002000,-0.268555,-1.299131,0.160053,-1.617739,2.759820,-1.796827,0.894005,4.553817,-0.695914,0.002000,-2.814235,0.000000
698.000000,0.002000,0.027280,0.014532,-0.276560,0.117565,-0.154898,1.658609,-0.786819,-0.090965,1.367205,0.002000,0.268864,0.000000
699.000000,0.002000,0.053171,0.273791,0.002597,1.240954,-3.154207,0.389133,-0.870683,-2.482044,-0.342669,0.002000,0.407983,0.000000
700.000000,0.002000,-1.718284,-0.378689,-0.038262,-0.569500,0.909896,2.006183,3.647691,0.875888,0.104809,0.002000,-0.093287,0.000000
701.000000,0.002000,0.156349,-0.756618,-0.212769,-0.911568,-0.073788,-1.346929,-1.986425,5.471170,1.058877,0.002000,-1.876084,0.000000
702.000000,0.002000,-1.783215,-0.147922,-2.274762,-2.032926,0.895872,-0.742358,1.325509,0.186263,1.628379,0.002000,2.207629,0.000000
703.000000,0.002000,0.772889,1.016081,-1.720076,1.214771,-0.286713,-0.203236,-1.080816,-1.364863,2.262266,0.002000,-0.268555,0.000000
704.000000,0.002000,2.195786,-1.017202,-1.906665,2.262062,-0.092219,-1.358671,-1.334539,0.591288,1.152147,0.002000,0.027280,0.000000
705.000000,0.002000,0.423382,0.572210,2.939583,0.788461,-0.043901,3.543982,-0.383647,-0.369429,-1.920148,0.002000,0.053171,0.000000
706.000000,0.002000,-0.609394,0.112808,-3.028433,-1.302148,-0.005722,-1.988397,0.337970,-0.020880,1.888907,0.002000,-1.718284,0.000000
707.000000,0.002000,2.708463,-0.435717,0.255583,2.043131,0.006410,1.352477,-2.139075,0.333850,-0.230714,0.002000,0.156349,0.000000
708.000000,0.002000,1.067608,1.124866,0.056854,-0.687886,-0.721619,-1.427686,-3.374183,-2.789280,-0.252312,0.002000,-1.783215,0.000000
709.000000,0.002000,-0.785741,-0.374445,-0.572007,1.643626,-0.633201,0.389753,3.588079,1.160072,1.809558,0.002000,0.772889,0.000000
710.000000,0.002000,0.222618,-0.681024,0.851094,0.335257,-1.973915,0.614579,-1.338485,2.786858,-4.501601,0.002000,2.195786,0.000000
711.000000,0.002000,0.896674,0.269767,-1.558494,-2.448990,0.989940,-1.917835,-1.628262,-0.510692,2.982826,0.002000,0.423382,0.000000
712.000000,0.002000,-0.350298,0.383308,-0.233316,1.404429,-0.296080,0.940057,2.586731,-3.553338,1.091245,0.002000,-0.609394,0.000000
713.000000,0.002000,-1.925428,0.943749,-1.167933,-0.315452,1.482570,-1.041185,1.839120,-1.172169,1.005582,0.002000,2.708463,0.000000
714.000000,0.002000,-0.910329,-0.277442,1.426823,-0.015225,-0.833065,-0.728125,1.875138,0.453871,-3.101656,0.002000,1.067608,0.000000
715.000000,0.002000,-0.217445,-0.831553,2.775117,-0.915172,-1.765205,2.685047,0.193866,0.657847,-2.150464,0.002000,-0.785741,0.000000
716.000000,0.002000,1.399001,-1.952126,-2.138200,0.289021,-1.745689,-1.297925,-0.776945,0.995306,1.168758,0.002000,0.222618,0.000000
717.000000,0.002000,-2.176231,0.146379,2.295088,-1.436160,-0.521711,0.911373,1.248113,-0.072573,-1.356948,0.002000,0.896674,0.000000
718.000000,0.002000,-0.613492,0.067595,-0.674844,1.817513,3.652175,-0.149671,2.939059,-0.406337,3.510009,0.002000,-0.350298,0.000000
719.000000,0.002000,-2.630422,0.017748,0.382840,-1.774476,-1.273085,-0.567658,2.122999,0.196436,-0.246432,0.002000,-1.925428,0.000000
720.000000,0.002000,2.577311,1.251668,0.557122,2.468148,0.841283,-0.406840,-1.746758,-0.881112,-0.428020,0.002000,-0.910329,0.000000
721.000000,0.002000,-0.693119,0.733120,-0.524352,0.820158,0.866196,0.640862,3.636347,-2.564670,2.421913,0.002000,-0.217445,0.000000
722.000000,0.002000,-0.975312,0.259614,-0.094107,2.347045,-0.184344,-0.935504,5.409706,-1.266618,0.628070,0.002000,1.399001,0.000000
723.000000,0.002000,0.373264,-0.757326,-0.139889,2.601803,-0.482117,0.501865,-2.566528,4.165011,0.843719,0.002000,-2.176231,0.000000
724.000000,0.002000,-0.162313,-0.205172,-1.536567,2.378917,-0.368607,-2.990588,0.570000,0.467733,3.962375,0.002000,-0.613492,0.000000
725.000000,0.002000,0.235934,-0.566480,0.362965,1.219146,1.433543,2.304275,-1.189694,3.292594,-2.444422,0.002000,-2.630422,0.000000
726.000000,0.002000,-1.972150,-2.454889,-0.354255,-0.899738,-1.341971,-0.811034,1.152724,1.374725,0.203752,0.002000,2.577311,0.000000
727.000000,0.002000,2.021540,-1.873075,-0.508719,0.958431,-0.246599,-1.243073,-1.803742,1.389475,0.197755,0.002000,-0.693119,0.000000
728.000000,0.002000,0.318218,-0.562712,-0.858878,-2.227476,-1.183315,0.908025,-1.634666,2.416733,3.924826,0.002000,-0.975312,0.000000
729.000000,0.002000,-1.210876,0.100562,-0.247159,-1.362473,-1.862281,0.070881,4.456638,-0.067321,1.266353,0.002000,0.373264,0.000000
730.000000,0.002000,-1.483027,-0.518986,0.327901,0.753301,-1.790969,-0.045126,3.601887,1.306636,-0.842958,0.002000,-0.162313,0.000000
731.000000,0.002000,-0.901542,0.818279,0.696280,-1.291560,-0.248587,0.376956,3.051633,-3.007163,-2.350265,0.002000,0.235934,0.000000
732.000000,0.002000,-0.731139,-0.637754,0.647499,0.780647,-2.505716,0.284133,3.190468,3.002501,-2.835175,0.002000,-1.972150,0.000000
733.000000,0.002000,1.049319,-0.509584,1.752221,1.378633,1.613889,2.381081,-1.342380,0.774302,-2.385046,0.002000,2.021540,0.000000
734.000000,0.002000,-0.715215,-0.369913,-0.422789,-0.332495,1.430520,0.791788,3.210886,2.150328,2.074210,0.002000,0.318218,0.000000
735.000000,0.002000,-1.324414,1.216205,1.613786,0.577458,0.248910,1.179561,1.234868,-1.383585,-1.661993,0.002000,-1.210876,0.000000
736.000000,0.002000,-0.569673,1.067787,-0.709790,-1.256111,0.221771,0.281013,1.544472,-3.294567,2.349995,0.002000,-1.483027,0.000000
737.000000,0.002000,0.311241,-0.187616,0.005135,0.113108,-1.111161,2.558065,-3.276270,1.540708,-1.074973,0.002000,-0.901542,0.000000
738.000000,0.002000,-2.772346,0.840811,1.397584,-1.749193,0.349732,1.127913,1.583241,-0.500799,-0.782513,0.002000,-0.731139,0.000000
739.000000,0.002000,0.015208,-1.815701,3.631720,0.640647,0.831151,-0.086144,-0.007285,0.525286,-1.059949,0.002000,1.049319,0.000000
740.000000,0.002000,-0.011925,0.774549,-0.418498,0.160064,0.273473,1.178377,0.385959,-4.267485,2.195458,0.002000,-0.715215,0.000000
741.000000,0.002000,0.645413,-0.491922,0.985793,-1.066282,-0.095754,2.031070,-1.898257,1.995265,-4.117494,0.002000,-1.324414,0.000000
742.000000,0.002000,-0.603835,-0.626924,-0.617020,0.580867,0.678678,-1.093786,3.251751,2.933118,2.777074,0.002000,-0.569673,0.000000
743.000000,0.002000,0.128347,-1.414127,1.876277,0.769899,-0.823107,-0.057157,-0.159290,1.519637,-1.979829,0.002000,0.311241,0.000000
744.000000,0.002000,-0.619532,0.320700,-1.115175,0.074130,-0.638057,-1.578418,1.950707,-0.806921,5.399114,0.002000,-2.772346,0.000000
745.000000,0.002000,2.669034,-1.609436,1.145035,2.273513,-0.306863,-1.152997,-1.325852,0.825633,-0.602341,0.002000,0.015208,0.000000
746.000000,0.002000,-2.780811,-0.895435,-0.644438,-2.007990,-0.763138,-0.370241,1.822560,0.582320,0.316073,0.002000,-0.011925,0.000000
747.000000,0.002000,0.579292,-0.518487,1.176378,1.247198,-3.382892,-0.498886,-1.418155,2.576108,-3.440005,0.002000,0.645413,0.000000
748.000000,0.002000,0.176734,-3.112281,-0.997339,0.480374,-2.283069,-0.522389,-0.087186,1.701597,0.515139,0.002000,-0.603835,0.000000
749.000000,0.002000,2.567550,1.110452,0.792128,2.621988,1.013643,1.045440,-1.761050,-0.824806,-0.551881,0.002000,0.128347,0.000000
750.000000,0.002000,-0.165206,0.277533,0.574159,-1.161671,-0.678660,0.259716,1.775655,-2.339326,-4.596529,0.002000,-0.619532,0.000000
751.000000,0.002000,-0.837790,0.550084,-1.155094,1.307982,0.793603,0.686140,2.072122,-1.276762,3.332066,0.002000,2.669034,0.000000
752.000000,0.002000,2.502915,-1.996297,0.913775,-0.111744,1.485667,0.788821,-1.251949,1.007757,-0.481868,0.002000,-2.780811,0.000000
753.000000,0.002000,0.933980,1.541106,-1.603525,0.080858,0.256374,-0.262538,-0.978326,-1.560869,1.683753,0.002000,0.579292,0.000000
754.000000,0.002000,-1.818509,-1.095320,0.801976,0.330688,0.055275,-0.152286,2.128480,1.331043,-0.965748,0.002000,0.176734,0.000000
755.000000,0.002000,-0.762640,1.726238,1.967204,-1.522177,1.411557,-0.047674,0.662518,-1.395973,-1.510690,0.002000,2.567550,0.000000
756.000000,0.002000,-0.587233,-2.122224,2.007587,-0.083066,-2.091166,1.008693,0.188078,1.348158,-1.403382,0.002000,-0.165206,0.000000
757.000000,0.002000,2.530450,-0.130083,-0.245730,1.158330,-0.050794,-0.077588,-2.283298,0.104160,0.267762,0.002000,-0.837790,0.000000
758.000000,0.002000,0.093067,-0.389486,-0.112941,0.118072,-0.137398,-2.174666,-0.656113,2.378505,0.512926,0.002000,2.502915,0.000000
759.000000,0.002000,0.385158,0.927522,0.007681,-2.316622,0.209640,1.210014,-1.804271,-3.978047,-0.044520,0.002000,0.933980,0.000000
760.000000,0.002000,0.947472,1.303727,-0.140842,1.961673,-0.872360,-0.957572,-2.490636,-3.213820,0.476449,0.002000,-1.818509,0.000000
761.000000,0.002000,-1.253709,0.143049,-0.226788,-1.668916,-0.037797,1.714131,4.573712,-0.688353,1.061638,0.002000,-0.762640,0.000000
762.000000,0.002000,-0.995278,-1.701227,-1.377216,-1.263168,0.151743,-0.981791,1.027553,1.764269,1.501574,0.002000,-0.587233,0.000000
763.000000,0.002000,-0.198252,-0.732577,-0.000074,-1.731893,2.297115,-0.358075,1.553771,4.043703,-0.084480,0.002000,2.530450,0.000000
764.000000,0.002000,-0.744638,0.248058,0.444775,0.448549,0.601979,-1.312681,3.494998,-0.683748,-2.508614,0.002000,0.093067,0.000000
765.000000,0.002000,-1.549766,-0.658463,0.126164,0.872330,0.842882,-2.986356,3.363284,1.392432,-0.464046,0.002000,0.385158,0.000000
766.000000,0.002000,0.166946,0.962842,0.230044,0.332257,0.814794,2.438560,-0.545998,-4.633388,-1.071357,0.002000,0.947472,0.000000
767.000000,0.002000,-1.601156,-0.536290,-0.043765,-0.146968,-1.985990,-1.087037,3.708482,1.073975,0.152556,0.002000,-1.253709,0.000000
768.000000,0.002000,-0.503701,0.627541,-0.240455,-2.056444,-1.043331,-1.478144,2.388468,-3.697326,1.016115,0.002000,-0.995278,0.000000
769.000000,0.002000,-0.226919,0.083934,0.375958,-1.327746,0.119399,-0.311590,2.355378,-0.072381,-3.200890,0.002000,-0.198252,0.000000
770.000000,0.002000,0.108417,0.813505,-0.361775,-2.907354,0.783220,-0.243357,-1.570869,-5.860655,0.686390,0.002000,-0.744638,0.000000
771.000000,0.002000,-0.670360,2.058305,0.606300,-0.422016,3.153733,0.727467,0.791772,-2.438061,-0.701483,0.002000,-1.549766,0.000000
772.000000,0.002000,0.359566,2.389139,-0.212263,0.254212,1.483214,1.341917,-0.391855,-2.433696,0.264046,0.002000,0.166946,0.000000
773.000000,0.002000,-0.953995,1.083799,1.823107,-0.676852,-0.301476,2.330047,1.095414,-1.166425,-2.051905,0.002000,-1.601156,0.000000
774.000000,0.002000,0.424527,0.602652,-0.660840,1.787804,0.811273,-0.795990,-2.733821,-2.677450,3.454983,0.002000,-0.503701,0.000000
775.000000,0.002000,2.663757,-1.300682,0.113230,2.490812,-1.490811,0.644715,-1.799853,0.900614,-0.083525,0.002000,-0.226919,0.000000
776.000000,0.002000,-0.255998,-1.410165,0.518264,1.143282,-3.739324,-0.559386,0.683219,3.946737,-1.733850,0.002000,0.108417,0.000000
777.000000,0.002000,1.113985,0.581135,-0.548249,-1.545386,0.205249,-1.147375,-4.100234,-1.975701,1.768485,0.002000,-0.670360,0.000000
778.000000,0.002000,-0.559411,-0.613784,-0.992579,1.435215,1.560344,-0.191407,2.798409,1.831214,3.557831,0.002000,0.359566,0.000000
779.000000,0.002000,0.756532,-1.188706,-1.066160,1.073009,0.566718,-0.271867,-0.999567,2.351106,1.887708,0.002000,-0.953995,0.000000
780.000000,0.002000,1.826850,2.551125,-0.456628,0.508440,1.751753,-0.420197,-1.011792,-1.419703,0.210932,0.002000,0.424527,0.000000
781.000000,0.002000,1.523337,1.904475,0.439114,1.223225,0.861491,-1.126478,-1.443504,-1.799491,-0.351262,0.002000,2.663757,0.000000
782.000000,0.002000,1.555403,-0.150721,0.904908,-0.367771,-1.130349,0.758872,-2.923537,0.281103,-1.706934,0.002000,-0.255998,0.000000
783.000000,0.002000,-0.216776,-1.469958,-3.243429,0.261765,-0.846909,-2.259217,0.118070,0.667155,1.404936,0.002000,1.113985,0.000000
784.000000,0.002000,1.034028,0.339194,-1.237561,-1.564973,0.224907,-0.680303,-2.394917,-0.780005,2.676627,0.002000,-0.559411,0.000000
785.000000,0.002000,-0.375078,0.701374,-1.742557,-0.848170,0.846789,2.565421,0.624365,-1.155830,2.816654,0.002000,0.756532,0.000000
786.000000,0.002000,-1.730537,0.122736,2.014878,-0.384426,-0.525806,2.241479,1.399597,0.000947,-1.732735,0.002000,1.826850,0.000000
787.000000,0.002000,0.076632,-1.168431,0.209269,-0.541296,2.988883,2.565533,-0.260852,4.693117,-1.215962,0.002000,1.523337,0.000000
788.000000,0.002000,-0.892910,-0.265387,-0.892855,-0.197834,-2.339807,-0.009968,3.326361,1.002030,3.441995,0.002000,1.555403,0.000000
789.000000,0.002000,-0.536567,-1.005402,0.854599,-0.125771,-0.203725,0.897803,1.423727,2.934955,-2.869342,0.002000,-0.216776,0.000000
790.000000,0.002000,-0.564634,-1.772920,-1.283514,0.013358,-0.755051,0.749820,0.633796,2.133585,1.449236,0.002000,1.034028,0.000000
791.000000,0.002000,-2.859293,1.035611,1.586899,-2.081458,1.306105,0.752697,1.388489,-0.525649,-0.787489,0.002000,-0.375078,0.000000
792.000000,0.002000,-0.434460,1.028498,-0.456938,-1.441443,-1.806087,-0.319194,1.642187,-4.035056,1.516806,0.002000,-1.730537,0.000000
793.000000,0.002000,0.342685,-0.213700,0.189541,-2.031568,2.286556,-0.091846,-2.921498,1.335192,-1.351113,0.002000,0.076632,0.000000
794.000000,0.002000,-0.640446,-0.956954,0.014249,2.062993,0.688225,1.261721,3.060198,3.891966,-0.206661,0.002000,-0.892910,0.000000
795.000000,0.002000,0.440280,-1.963591,2.260765,0.007330,-0.914439,2.197056,-0.295716,1.249578,-1.369093,0.002000,-0.536567,0.000000
796.000000,0.002000,2.291478,1.127897,-1.625289,1.067860,-0.212837,-1.156226,-1.570343,-0.700696,1.026342,0.002000,-0.564634,0.000000
797.000000,0.002000,0.183259,-0.427638,-0.430747,0.913074,-2.004977,1.039891,-1.663722,3.618799,2.515149,0.002000,-2.859293,0.000000
798.000000,0.002000,-0.559544,1.073160,-0.216579,2.126146,0.513974,-0.658501,1.958010,-3.928234,0.848126,0.002000,-0.434460,0.000000
799.000000,0.002000,0.312986,2.032158,1.709566,0.619645,-1.480248,0.045958,-0.203574,-1.613781,-1.375611,0.002000,0.342685,0.000000
800.000000,0.002000,-0.186481,-0.655178,0.153706,-2.168480,1.006734,0.773552,1.503975,4.332944,-1.533650,0.002000,-0.640446,0.000000
801.000000,0.002000,0.122287,-0.552457,0.282838,-0.580452,2.189251,1.655081,-1.378131,3.671344,-1.747753,0.002000,0.440280,0.000000
802.000000,0.002000,0.359456,0.543733,-0.052208,-1.613990,-0.739011,-0.615508,-1.961784,-3.167536,-0.473688,0.002000,2.291478,0.000000
803.000000,0.002000,-1.682597,-1.914799,-1.080338,-1.471518,-0.574183,-0.140228,1.364727,1.495494,0.850039,0.002000,0.183259,0.000000
804.000000,0.002000,0.263836,-0.088147,-0.711432,-1.928147,1.340109,0.684221,-1.436298,0.586467,3.851956,0.002000,-0.559544,0.000000
805.000000,0.002000,-0.107396,-0.999784,-0.776786,1.642309,0.603298,1.015928,0.546407,3.778647,2.844365,0.002000,0.312986,0.000000
806.000000,0.002000,-1.386899,-1.325772,-1.275976,-1.985876,-1.968754,-2.415570,1.542720,1.421949,1.542503,0.002000,-0.186481,0.000000
807.000000,0.002000,1.477473,-0.584008,-0.042492,0.798375,0.947626,-0.945444,-3.839801,1.286509,0.138194,0.002000,0.122287,0.000000
808.000000,0.002000,0.328827,-0.946391,0.399211,1.013830,0.267437,1.574596,-2.530617,4.523012,-1.752081,0.002000,0.359456,0.000000
809.000000,0.002000,-0.102308,-0.528451,-0.862780,-1.636218,1.496624,0.549254,0.441793,2.412073,4.527556,0.002000,-1.682597,0.000000
810.000000,0.002000,-0.854493,0.169555,0.073984,-1.246054,-0.769585,-0.302182,4.196690,-0.628650,-0.465052,0.002000,0.263836,0.000000
811.000000,0.002000,-0.271850,-1.813148,1.378917,0.088498,-0.961438,-0.755546,0.486931,1.722106,-1.668075,0.002000,-0.107396,0.000000
812.000000,0.002000,0.817717,0.269269,0.241787,-1.081219,-1.202440,-2.340002,-4.053435,-1.059934,-1.964769,0.002000,-1.386899,0.000000
813.000000,0.002000,1.408261,1.516162,-1.542612,0.484381,0.005561,-0.161309,-1.264149,-1.264668,1.370256,0.002000,1.477473,0.000000
814.000000,0.002000,-0.999775,-1.448467,-0.325653,0.544875,0.791302,-0.520604,1.921578,2.853596,0.540335,0.002000,0.328827,0.000000
815.000000,0.002000,1.616922,0.942692,-1.115247,0.103739,1.044312,-0.523815,-2.061482,-1.126593,1.440938,0.002000,-0.102308,0.000000
816.000000,0.002000,0.057547,0.611849,-0.377545,-2.957371,-0.097823,0.561114,0.075619,-3.028432,1.819387,0.002000,-0.854493,0.000000
817.000000,0.002000,-1.279012,-0.125078,-2.785451,-0.820890,0.372924,-0.953261,0.771292,0.098315,1.785966,0.002000,-0.271850,0.000000
818.000000,0.002000,-2.282131,1.160256,0.378607,-1.274308,2.413806,-0.880821,2.036929,-1.071702,-0.247762,0.002000,0.817717,0.000000
819.000000,0.002000,-0.181595,-0.324986,0.682938,-2.655479,1.364560,0.444257,0.865310,2.293628,-4.087740,0.002000,1.408261,0.000000
820.000000,0.002000,1.558229,-1.283552,-2.011526,0.837407,-0.828585,-1.736696,-1.129803,0.918875,1.573118,0.002000,-0.999775,0.000000
821.000000,0.002000,1.796162,2.118234,0.119168,0.380941,1.698674,0.436817,-1.378138,-1.569831,-0.047264,0.002000,1.616922,0.000000
822.000000,0.002000,-1.034580,0.775007,-0.692822,1.801996,-1.525696,2.314232,3.286215,-2.107045,1.933558,0.002000,0.057547,0.000000
823.000000,0.002000,0.499402,-0.386061,1.588816,0.643636,0.398726,3.351489,-1.426768,0.771893,-3.224803,0.002000,-1.279012,0.000000
824.000000,0.002000,0.653722,-1.786993,0.247385,0.054867,-0.090050,0.367166,-1.558311,2.752159,-0.050842,0.002000,-2.282131,0.000000
825.000000,0.002000,0.554710,1.089016,2.073088,3.077227,0.032059,-0.086019,-0.666760,-1.111668,-2.067282,0.002000,-0.181595,0.000000
826.000000,0.002000,0.329255,-0.417535,-0.692605,2.787287,-0.251781,0.189893,-1.387283,1.701163,3.822007,0.002000,1.558229,0.000000
827.000000,0.002000,0.571061,0.332195,0.191565,-0.481489,-3.020555,0.266055,-3.770999,-1.735954,-1.398797,0.002000,1.796162,0.000000
828.000000,0.002000,0.998459,-0.648151,-0.627161,0.197646,-2.192363,-0.019696,-3.105703,2.308055,2.245370,0.002000,-1.034580,0.000000
829.000000,0.002000,0.589333,0.253658,-1.951527,-0.417522,-0.475359,-3.147038,-0.843603,-0.431577,2.539129,0.002000,0.499402,0.000000
830.000000,0.002000,-0.477444,-1.542923,-0.382197,0.353596,1.053294,0.769730,0.728453,3.919816,0.924031,0.002000,0.653722,0.000000
831.000000,0.002000,-0.682359,1.336541,0.524219,0.774082,-0.749917,1.773751,1.471853,-3.386516,-1.346585,0.002000,0.554710,0.000000
832.000000,0.002000,0.723530,-0.321166,0.333808,2.130555,-1.946834,0.940053,-4.095530,0.282507,-1.485214,0.002000,0.329255,0.000000
833.000000,0.002000,0.391094,0.598429,0.850163,0.447454,0.080122,2.196592,-1.634630,-2.627136,-4.039676,0.002000,0.571061,0.000000
834.000000,0.002000,0.220084,-0.549769,-0.010098,-2.953477,-0.344257,1.412567,-2.232444,2.886955,-0.008542,0.002000,0.998459,0.000000
835.000000,0.002000,-0.177233,2.630417,1.512359,1.192026,1.655906,1.208374,0.145770,-1.645742,-0.993238,0.002000,0.589333,0.000000
836.000000,0.002000,-0.412825,1.752389,-1.905241,0.763082,-0.804397,1.665481,0.367927,-1.448529,1.676482,0.002000,-0.477444,0.000000
837.000000,0.002000,0.640435,-0.303030,1.580426,-1.410593,0.144006,-0.448473,-1.320009,0.712218,-3.248832,0.002000,-0.682359,0.000000
838.000000,0.002000,-0.550683,-0.631846,1.559560,-1.147301,0.089268,-0.620042,0.946515,1.343087,-3.403479,0.002000,0.723530,0.000000
839.000000,0.002000,-0.014079,-0.244238,-0.157273,-1.998187,-2.307024,-1.618969,0.875335,1.414657,0.252382,0.002000,0.391094,0.000000
840.000000,0.002000,-1.589886,1.920753,0.083076,0.031179,0.280962,-0.768071,1.532714,-1.879844,0.014931,0.002000,0.220084,0.000000
841.000000,0.002000,1.793860,-0.268554,-0.078314,-0.320155,0.440891,1.427591,-3.245995,0.621667,0.230455,0.002000,-0.177233,0.000000
842.000000,0.002000,-0.257799,0.323231,-0.358369,0.434492,0.988134,-1.048277,1.172213,-1.813772,2.467537,0.002000,-0.412825,0.000000
843.000000,0.002000,-0.443470,0.147161,0.183079,-0.928178,-0.177673,0.253141,3.280275,0.810749,-3.146701,0.002000,0.640435,0.000000
844.000000,0.002000,1.258834,0.822002,0.300556,-0.948403,-0.699272,0.439065,-3.092991,-2.407674,-0.807243,0.002000,-0.550683,0.000000
845.000000,0.002000,0.272961,1.184629,0.290200,2.896083,-1.405802,1.793105,-0.913193,-4.171125,-0.850454,0.002000,-0.014079,0.000000
846.000000,0.002000,0.369076,0.694578,-0.097216,-1.232759,-0.502690,-1.389216,-2.891835,-3.660810,-0.358143,0.002000,-1.589886,0.000000
847.000000,0.002000,-1.216291,2.047155,-1.176243,-1.993741,2.051454,-0.647771,0.949439,-1.867013,0.962040,0.002000,1.793860,0.000000
848.000000,0.002000,-0.180996,0.618248,-0.146590,0.632346,0.306619,3.025400,1.316773,-4.289034,0.234275,0.002000,-0.257799,0.000000
849.000000,0.002000,-0.729259,-0.441834,0.263089,-2.170698,2.289649,-2.918084,5.098231,1.171179,0.754934,0.002000,-0.443470,0.000000
850.000000,0.002000,1.369442,0.058465,0.057880,1.236052,0.561371,0.239455,-4.584522,-0.411177,-0.108945,0.002000,1.258834,0.000000
851.000000,0.002000,-0.981973,-0.837455,0.559994,-1.066990,-0.563257,2.176426,3.131070,2.575086,-1.799231,0.002000,0.272961,0.000000
852.000000,0.002000,-0.644510,0.263670,0.710194,-1.823440,-0.894617,-0.533260,2.903754,-1.111284,-3.310488,0.002000,0.369076,0.000000
853.000000,0.002000,-0.080578,-0.977549,-0.134806,-2.417357,-0.644736,0.530976,0.503484,5.045516,0.397567,0.002000,-1.216291,0.000000
854.000000,0.002000,0.252182,0.495261,0.908320,-1.412549,-0.193232,1.404690,-1.770947,-2.266784,-4.246831,0.002000,-0.180996,0.000000
855.000000,0.002000,1.287896,-0.242953,-0.045045,-0.245256,-2.341728,-1.265373,-4.273941,1.653837,0.566927,0.002000,-0.729259,0.000000
856.000000,0.002000,0.275193,0.149171,0.973703,0.542815,-1.234916,-0.391375,-1.421626,-0.384967,-4.689052,0.002000,1.369442,0.000000
857.000000,0.002000,-0.532472,0.305188,0.849099,-0.432858,0.672589,2.454777,2.633992,-1.171994,-4.093245,0.002000,-0.981973,0.000000
858.000000,0.002000,0.375701,0.261697,-0.672785,2.849320,1.522272,-0.500943,-1.898212,-1.167451,3.757123,0.002000,-0.644510,0.000000
859.000000,0.002000,0.992002,1.502516,-1.389988,-0.184550,2.256570,-1.482844,-1.200562,-1.757944,1.679204,0.002000,-0.080578,0.000000
860.000000,0.002000,0.580364,-0.600226,0.623033,0.323876,1.154270,1.560745,-3.204080,2.706108,-2.921716,0.002000,0.252182,0.000000
861.000000,0.002000,-0.215606,2.155707,-0.884692,2.720006,0.688970,0.591190,0.089791,-2.413911,0.995797,0.002000,1.287896,0.000000
862.000000,0.002000,-0.361774,0.573846,-0.607445,-2.386987,0.127386,-0.525198,1.460030,-2.870280,3.013511,0.002000,0.275193,0.000000
863.000000,0.002000,-0.281682,-2.700172,1.173757,-1.304289,-1.605428,1.001931,0.063380,1.846166,-0.705851,0.002000,-0.532472,0.000000
864.000000,0.002000,-1.767629,-2.699832,1.192782,-1.038333,-2.863438,0.394194,0.836954,1.251101,-0.565627,0.002000,0.375701,0.000000
865.000000,0.002000,-0.468873,1.789193,-1.070557,0.182495,1.282380,-2.795691,0.756263,-2.289109,1.483012,0.002000,0.992002,0.000000
866.000000,0.002000,-1.002033,1.105367,1.453917,-0.323045,-0.637414,0.444501,1.342394,-1.478773,-2.071429,0.002000,0.580364,0.000000
867.000000,0.002000,2.387587,2.049731,-0.437564,1.686602,1.334074,-0.022990,-1.376556,-1.151319,0.217646,0.002000,-0.215606,0.000000
868.000000,0.002000,1.058135,-1.922904,-0.194849,0.109700,-0.277595,-1.709653,-1.160170,2.422805,0.115700,0.002000,-0.361774,0.000000
869.000000,0.002000,-0.141435,-0.093658,-0.488478,0.416845,-3.328623,-0.331465,0.803596,0.634637,3.218979,0.002000,-0.281682,0.000000
870.000000,0.002000,-0.550724,-1.284569,0.550864,1.104070,-0.073901,-1.553459,2.004715,4.687643,-1.979454,0.002000,-1.767629,0.000000
871.000000,0.002000,0.217505,-0.920959,-0.606050,0.506635,-1.046264,1.224472,-1.109488,4.100223,2.658574,0.002000,-0.468873,0.000000
872.000000,0.002000,-0.067606,0.076214,0.215024,-2.563438,-3.817780,0.964462,-0.184272,-0.337229,-1.670676,0.002000,-1.002033,0.000000
873.000000,0.002000,0.269743,1.108378,2.123865,0.341602,1.605830,2.864551,-0.233927,-1.204081,-2.137606,0.002000,2.387587,0.000000
874.000000,0.002000,-0.877159,-1.289326,-2.732280,-0.977128,-1.360934,-2.356619,0.506111,0.742578,1.624667,0.002000,1.058135,0.000000
875.000000,0.002000,0.891489,-2.611813,-1.738419,0.302809,-1.463482,-0.860648,-0.525910,1.483124,0.929106,0.002000,-0.141435,0.000000
876.000000,0.002000,-1.655956,-0.430643,-1.508848,-0.364419,0.290948,0.160744,1.917318,0.731759,1.558081,0.002000,-0.550724,0.000000
877.000000,0.002000,-1.743825,-0.424047,1.154817,-1.828420,-0.618295,2.691934,2.278710,0.558421,-1.506807,0.002000,0.217505,0.000000
878.000000,0.002000,-1.041128,-0.433539,-2.587679,-1.522875,-0.217079,-1.409021,0.711729,0.277102,2.061495,0.002000,-0.067606,0.000000
879.000000,0.002000,0.308194,-0.612792,-0.201812,1.034553,-1.712553,-1.693572,-2.567074,3.855697,1.600901,0.002000,0.269743,0.000000
880.000000,0.002000,-1.860892,0.130014,2.697962,-1.755505,0.243406,1.493430,0.921654,-0.091426,-1.403495,0.002000,-0.877159,0.000000
881.000000,0.002000,0.657191,0.632106,0.074495,-1.020638,-0.870197,-0.602917,-3.390850,-3.163565,-0.589694,0.002000,0.891489,0.000000
882.000000,0.002000,-1.099949,0.794558,-2.223654,-1.000725,-0.944882,-2.026102,0.895848,-0.696941,1.986986,0.002000,-1.655956,0.000000
883.000000,0.002000,0.323265,-0.245220,-0.479213,-0.673137,0.255707,-3.358797,-2.097630,0.844690,3.183025,0.002000,-1.743825,0.000000
884.000000,0.002000,-1.319930,0.267556,-0.055637,0.843407,-0.178331,-0.287909,4.237978,-0.513178,0.165790,0.002000,-1.041128,0.000000
885.000000,0.002000,-2.205035,-0.566056,1.128033,-2.861335,-1.044444,0.449298,2.086591,0.529178,-1.039069,0.002000,0.308194,0.000000
886.000000,0.002000,-1.662228,-1.128998,-0.896571,-0.937830,0.663480,0.072719,1.972823,1.232824,1.061966,0.002000,-1.860892,0.000000
887.000000,0.002000,0.598370,0.250648,-0.233129,-1.861993,1.461597,-1.920623,-4.453282,-1.564058,1.149895,0.002000,0.657191,0.000000
888.000000,0.002000,-1.496898,-2.914274,0.296189,-1.641998,-1.988513,0.616123,0.815058,1.588580,-0.184964,0.002000,-1.099949,0.000000
889.000000,0.002000,0.120551,-0.382485,-0.214588,-0.367580,-1.283041,0.960673,-1.378947,2.771331,1.748689,0.002000,0.323265,0.000000
890.000000,0.002000,1.701068,-0.245588,-0.794300,3.791550,0.250560,-0.010526,-2.936491,0.434934,1.306344,0.002000,-1.319930,0.000000
891.000000,0.002000,-0.745859,0.778762,-0.654869,-0.419092,2.938171,1.165282,3.584032,-2.537327,2.210475,0.002000,-2.205035,0.000000
892.000000,0.002000,0.052522,0.167818,-1.329849,-0.564050,-1.097307,0.003113,-0.121074,-0.406553,4.593519,0.002000,-1.662228,0.000000
893.000000,0.002000,-0.249231,1.873578,0.133961,1.872772,2.349891,-1.304769,0.469734,-3.157950,-0.247356,0.002000,0.598370,0.000000
894.000000,0.002000,-0.244234,-0.378303,-0.892307,0.874907,-2.155821,-0.091253,-0.559694,2.461492,3.693485,0.002000,-1.496898,0.000000
895.000000,0.002000,0.993256,1.862803,-1.691820,-0.474567,1.058920,-1.776059,-0.825775,-1.514628,1.336416,0.002000,0.120551,0.000000
896.000000,0.002000,1.474455,-0.743090,0.234715,-0.733974,-0.859396,-0.491972,-3.307620,1.635173,-0.689817,0.002000,1.701068,0.000000
897.000000,0.002000,0.387072,-0.340532,0.133673,-0.355073,-1.286869,0.691428,-3.525107,1.938244,-0.928177,0.002000,-0.745859,0.000000
898.000000,0.002000,-0.087023,3.143972,1.650653,0.077461,1.853036,1.699933,0.035768,-1.406783,-0.734182,0.002000,0.052522,0.000000
899.000000,0.002000,0.201418,-0.969908,0.414956,-0.494832,-1.581708,-0.357597,-0.534773,4.526438,-2.575555,0.002000,-0.249231,0.000000
900.000000,0.002000,0.924602,-1.847091,1.870369,1.027286,-0.228258,1.046734,-0.680290,1.373414,-1.440571,0.002000,-0.244234,0.000000
901.000000,0.002000,-0.617263,-1.012143,0.970374,2.145520,2.754024,0.772022,1.801264,2.867142,-2.677554,0.002000,0.993256,0.000000
