# 
#                 columns are tag, mass, x, y, z, vx, vy, vz, ax, ay, az, EK, EU, E
#                 Time=4.000000
# 
1.000000,0.002000,-5.077817,2.353014,1.938092,-0.794097,0.823327,0.879304,0.453659,-0.209707,-0.158757,40.698356,-84.968756,-44.270400
2.000000,0.002000,-3.853035,-0.793101,-2.030681,-0.637880,-1.161758,1.301739,0.676707,0.148811,0.365349,0.000000,0.000000,0.000000
3.000000,0.002000,1.005502,-0.921946,0.366289,1.136544,-2.234555,0.793126,-2.919502,2.962521,-1.335575,0.000000,0.000000,0.000000
4.000000,0.002000,0.232998,1.697846,0.096878,-0.737897,-1.335766,-1.839889,0.750767,-4.070053,-0.586204,nan,0.000000,0.000000
5.000000,0.002000,0.575490,0.194483,-0.438951,-0.252440,-0.025579,2.461805,-3.926154,-1.065291,1.923142,0.000000,0.000000,0.000000
6.000000,0.002000,0.516776,-0.418125,0.738072,1.713768,1.543060,1.333923,-2.809254,2.715099,-3.376319,nan,0.000000,0.000000
7.000000,0.002000,-0.477652,-1.438209,5.600955,-0.088281,-0.790532,1.430628,0.040141,0.131677,-0.508136,0.000000,0.002000,0.000000
8.000000,0.002000,0.946719,1.000605,1.214139,0.235997,0.019845,1.313860,-1.604755,-1.863998,-2.308409,0.000000,0.002000,0.000000
9.000000,0.002000,-4.704111,2.943044,0.480101,-1.311669,0.792775,0.241362,0.455485,-0.298176,-0.040457,0.000000,0.002000,0.000000
10.000000,0.002000,4.611439,-0.584267,-3.534847,0.713541,0.287978,-0.144003,-0.398464,0.064900,0.314466,0.000000,0.002000,0.000000
11.000000,0.002000,0.697939,0.950465,0.273169,0.714881,1.585708,-1.307511,-2.758063,-3.173465,-1.247574,0.000000,0.002000,0.000000
12.000000,0.002000,5.764951,3.646932,0.137808,0.946899,0.786725,0.085081,-0.348318,-0.219232,-0.001263,0.000000,0.002000,0.000000
13.000000,0.002000,-0.813688,0.149620,1.069773,-1.458602,-2.354508,-0.493169,2.552469,-0.350052,-3.722203,0.000000,0.002000,0.000000
14.000000,0.002000,-3.182430,0.662526,3.547077,-0.316877,-0.256346,-0.206445,0.433958,-0.077261,-0.503206,nan,0.002000,0.000000
15.000000,0.002000,1.020566,-3.358739,-0.077351,0.046229,-1.563612,-0.315363,0.057446,1.783379,-0.102259,0.000000,0.002000,0.000000
16.000000,0.002000,1.266174,-2.760182,-4.552506,0.050776,-1.001159,-0.405547,-0.112278,0.303666,0.460366,nan,0.002000,0.000000
17.000000,0.002000,0.165764,0.203207,0.339731,2.580406,-2.386603,0.313760,-0.774382,0.212111,-2.572339,0.000000,0.002000,0.000000
18.000000,0.002000,-1.283143,-1.183763,0.373382,0.284225,1.107172,0.980340,2.601230,2.314179,-0.685352,nan,0.002000,0.000000
19.000000,0.002000,-0.113404,0.578539,0.512798,-0.040383,0.269293,1.009657,0.860454,-3.181064,-3.243711,0.000000,0.002000,0.000000
20.000000,0.002000,0.111644,-0.812981,-0.258037,1.624205,0.841536,1.011874,-0.732243,4.067992,1.781733,nan,0.002000,0.000000
21.000000,0.002000,0.355561,-0.594975,-0.425844,-1.926263,-0.675657,-1.752635,-1.798289,3.166481,3.049607,0.000000,0.002000,0.000000
22.000000,0.002000,-1.745684,1.150027,-0.478467,-0.729020,0.753108,-0.374515,2.165122,-1.453329,0.611706,nan,0.002000,0.000000
23.000000,0.002000,-1.987198,0.060529,-1.669487,-0.699250,1.679548,0.854974,1.371650,-0.006726,1.247441,0.000000,0.002000,0.000000
24.000000,0.002000,0.364985,0.624265,0.129178,-1.360901,2.518150,0.419477,-2.141232,-3.330838,-1.005694,nan,0.002000,0.000000
25.000000,0.002000,-0.452306,0.594911,-0.222347,-1.522561,-2.188364,-1.734607,2.680141,-3.429264,1.337779,0.000000,0.002000,0.000000
26.000000,0.002000,2.316035,-1.527219,-2.661083,-0.745318,-0.422586,0.081633,-0.569051,0.400383,0.654684,nan,0.002000,0.000000
27.000000,0.002000,-0.418147,-1.164653,0.411359,-0.088093,0.787991,-1.167379,1.349440,4.096185,-1.272935,0.000000,0.002000,0.000000
28.000000,0.002000,-0.360211,-0.368182,0.579473,-0.922043,-3.000359,0.013052,1.232487,2.354869,-3.308158,nan,0.002000,0.000000
29.000000,0.002000,-5.424960,-5.731593,0.752947,-1.236781,-1.274248,0.432959,0.216539,0.225727,-0.027443,0.000000,0.002000,0.000000
30.000000,0.002000,0.749859,0.511050,1.677518,0.683721,0.934762,0.486035,-1.348259,-0.872549,-2.849107,nan,0.002000,0.000000
31.000000,0.002000,-1.293619,0.045329,0.370438,-0.602052,1.732408,0.270878,1.470784,3.497293,-2.579533,0.000000,0.002000,0.000000
32.000000,0.002000,0.639357,-0.344996,0.048773,0.298151,1.898446,1.343782,-3.650875,0.482597,-0.947102,nan,0.002000,0.000000
33.000000,0.002000,-0.238030,0.528854,-0.708879,0.842806,-2.267811,1.491297,-0.302653,1.354851,2.272320,0.000000,0.002000,0.000000
34.000000,0.002000,-0.491452,0.584586,-1.076228,2.436958,0.983847,1.945138,1.614370,-1.816773,4.520271,nan,0.002000,0.000000
35.000000,0.002000,-1.722903,-3.189781,5.828855,-0.728489,-0.479513,1.014586,0.097030,0.179164,-0.340701,0.000000,0.002000,0.000000
36.000000,0.002000,-1.897011,-2.618942,4.168049,0.307740,-0.473735,0.333352,0.209271,0.302848,-0.473458,nan,0.002000,0.000000
37.000000,0.002000,-5.723246,-5.833637,1.403516,-1.221061,-1.377465,0.711347,0.201614,0.202342,-0.053504,0.000000,0.002000,0.000000
38.000000,0.002000,1.633609,1.171386,0.078812,-0.118153,0.802523,-0.945491,-2.441408,-1.636554,-0.016447,nan,0.002000,0.000000
39.000000,0.002000,-0.314702,0.759370,0.082038,0.176849,-0.278118,2.682199,-0.067678,-2.875653,-2.006143,0.000000,0.002000,0.000000
40.000000,0.002000,1.383379,-0.566982,0.946053,-2.013727,1.403924,-0.295240,-2.751274,1.205100,-1.726795,nan,0.002000,0.000000
41.000000,0.002000,-0.551846,0.191681,1.320906,0.204803,0.925036,-1.713519,1.566967,-0.585958,-3.891620,0.000000,0.002000,0.000000
42.000000,0.002000,-1.475871,2.432402,-2.967403,0.261638,0.456714,-1.170684,0.331020,-0.548086,0.626609,nan,0.002000,0.000000
43.000000,0.002000,-4.101243,-0.410839,3.001831,-0.499821,0.878493,0.555974,0.507841,0.053902,-0.358262,0.000000,0.002000,0.000000
44.000000,0.002000,-0.489170,-0.562549,0.943081,1.387983,-0.968306,-0.234199,1.404628,2.142830,-3.409973,nan,0.002000,0.000000
45.000000,0.002000,0.684550,-0.330298,-0.577932,-0.942463,-0.864650,-2.319715,-3.506168,0.771261,2.840160,0.000000,0.002000,0.000000
46.000000,0.002000,0.998647,0.015203,0.495950,0.392759,1.065617,-1.449923,-4.556986,-0.011060,-2.010181,nan,0.002000,0.000000
47.000000,0.002000,0.864687,-0.355559,-0.835794,3.015613,-0.104627,-1.095128,-2.994064,1.090025,3.189396,0.000000,0.002000,0.000000
48.000000,0.002000,0.635169,-1.233317,-0.208427,1.008748,-0.372256,0.525496,-1.963144,3.776482,0.676325,nan,0.002000,0.000000
49.000000,0.002000,-6.565082,-2.098444,0.821261,-1.553914,-0.482243,0.097902,0.394944,0.120800,-0.039880,0.000000,0.002000,0.000000
50.000000,0.002000,1.275525,0.504250,1.398957,-0.969056,0.727218,0.026560,-1.963076,-0.636263,-2.251199,nan,0.002000,0.000000
51.000000,0.002000,-0.423649,0.431997,-0.011895,1.677393,-3.305096,1.007113,2.582325,-2.761111,0.958935,0.000000,0.002000,0.000000
52.000000,0.002000,0.283683,0.006649,1.391891,-1.340648,-0.304821,-0.662177,-1.104708,0.176141,-4.148287,nan,0.002000,0.000000
53.000000,0.002000,0.314613,-1.329770,-1.170587,-0.617063,0.718720,0.531479,-0.565839,2.497391,2.232025,0.000000,0.002000,0.000000
54.000000,0.002000,0.445784,0.318380,1.725537,-2.062224,-1.244116,-0.899058,-0.824150,-0.509196,-3.248337,nan,0.002000,0.000000
55.000000,0.002000,-1.395157,0.160389,-0.032850,-0.769895,0.353387,-1.328653,4.707035,-0.496442,0.278520,0.000000,0.002000,0.000000
56.000000,0.002000,-0.312916,0.262342,0.282128,0.211396,-1.301501,3.269506,1.769354,-1.280113,-2.264075,nan,0.002000,0.000000
57.000000,0.002000,-0.835921,2.811929,2.227239,0.979168,0.492797,0.980132,0.255556,-0.794156,-0.655468,0.000000,0.002000,0.000000
58.000000,0.002000,-1.786950,-4.585512,-1.390752,-0.213199,-0.484607,-0.473055,0.205934,0.560343,0.169813,nan,0.002000,0.000000
59.000000,0.002000,0.764735,-0.321331,-1.084249,-1.133667,0.730156,-1.492439,-2.387991,0.736041,3.435058,0.000000,0.002000,0.000000
60.000000,0.002000,-0.871329,0.134728,-0.141380,0.265923,1.144275,-1.161067,5.064263,-0.476961,1.325217,nan,0.002000,0.000000
61.000000,0.002000,-0.241588,1.176852,0.423119,2.409929,-0.465948,-0.832013,0.707046,-4.247393,-1.981860,0.000000,0.002000,0.000000
62.000000,0.002000,-0.712597,-0.645612,7.447643,-0.643703,-0.032379,1.600816,0.032365,0.029568,-0.340757,nan,0.002000,0.000000
63.000000,0.002000,-0.481024,0.178130,-0.276199,-2.501119,0.771154,-1.192248,2.615307,-1.288768,1.780567,0.000000,0.002000,0.000000
64.000000,0.002000,0.220795,1.294570,0.527587,-1.879325,-0.762566,-1.028837,-0.567343,-3.929388,-1.863542,nan,0.002000,0.000000
65.000000,0.002000,0.718631,0.707074,0.180446,-1.506017,2.452216,-1.836845,-3.535406,-2.853957,-0.654091,0.000000,0.002000,0.000000
66.000000,0.002000,-1.936714,-0.052271,-0.557171,0.135064,-0.555536,-0.798200,2.886755,0.132111,0.885358,nan,0.002000,0.000000
67.000000,0.002000,-3.216656,-3.931049,1.461085,-0.637635,-1.238707,0.463664,0.374558,0.444720,-0.180375,0.000000,0.002000,0.000000
68.000000,0.002000,-0.617270,1.817031,0.141293,0.925524,-1.573214,1.488065,1.022949,-3.161645,-0.156412,nan,0.002000,0.000000
69.000000,0.002000,2.818821,0.686418,2.400438,1.023286,-1.050383,0.459825,-0.779383,-0.192009,-0.586330,0.000000,0.002000,0.000000
70.000000,0.002000,1.020757,-1.039398,0.830125,1.570081,-0.298346,-0.657702,-2.322556,2.347233,-1.723481,nan,0.002000,0.000000
71.000000,0.002000,-1.286981,-1.168216,-0.442632,-0.178008,1.041490,-1.383453,2.467815,2.266830,0.786069,0.000000,0.002000,0.000000
72.000000,0.002000,0.147137,-0.708300,1.813906,0.513995,0.689401,0.498163,-0.533499,1.662173,-3.147948,nan,0.002000,0.000000
73.000000,0.002000,-2.450045,1.831776,-4.977571,-0.958833,0.755652,-1.098166,0.224145,-0.156284,0.448901,0.000000,0.002000,0.000000
74.000000,0.002000,-0.098497,-0.892696,-0.470360,0.093787,-1.247459,-0.972574,0.335626,4.601576,1.742857,nan,0.002000,0.000000
75.000000,0.002000,-5.322877,0.414471,1.927835,-0.942912,0.278518,-0.333780,0.517395,-0.023062,-0.194366,0.000000,0.002000,0.000000
76.000000,0.002000,1.545852,-0.792586,-0.797231,-0.337045,-0.073167,-0.011566,-2.450663,1.456241,1.423193,nan,0.002000,0.000000
77.000000,0.002000,0.581022,0.312757,0.456896,2.648653,1.156725,-0.594958,-3.142094,-1.545457,-2.725915,0.000000,0.002000,0.000000
78.000000,0.002000,0.538449,0.527022,-0.436755,-1.386219,-2.172092,-1.401734,-2.931256,-2.311712,2.295385,nan,0.002000,0.000000
79.000000,0.002000,-0.137578,-0.972086,-0.928655,2.267691,1.318209,0.169684,0.515604,3.092054,3.071527,0.000000,0.002000,0.000000
80.000000,0.002000,1.581386,4.530146,-2.583744,-0.373971,1.367914,-0.452781,-0.171289,-0.474264,0.276126,nan,0.002000,0.000000
81.000000,0.002000,-0.649584,-0.315639,0.005837,-1.863829,-0.590300,0.488524,3.437842,2.042415,-0.749797,0.000000,0.002000,0.000000
82.000000,0.002000,-0.660550,-0.536826,-0.373034,-1.106138,-0.556936,3.381780,2.890592,2.564911,1.860685,nan,0.002000,0.000000
83.000000,0.002000,0.706516,0.081926,0.990110,-2.017259,-1.995987,1.412789,-2.505520,-0.341052,-3.356442,0.000000,0.002000,0.000000
84.000000,0.002000,4.179884,1.435964,0.367875,-0.271316,0.271022,-0.210137,-0.732666,-0.366326,-0.136161,nan,0.002000,0.000000
85.000000,0.002000,1.729760,-2.055130,2.682276,-0.421722,0.221003,0.599933,-0.453295,0.536430,-0.699493,0.000000,0.002000,0.000000
86.000000,0.002000,-0.609179,0.855792,0.244786,0.612200,-1.661906,2.739078,2.964431,-3.964664,-1.452448,nan,0.002000,0.000000
87.000000,0.002000,-0.605429,-1.306989,-1.098954,1.218562,0.309311,0.918214,1.016722,2.543295,1.829917,0.000000,0.002000,0.000000
88.000000,0.002000,0.594675,-0.941320,0.276012,-0.786583,-1.572496,-0.214627,-2.193850,3.943016,-0.793758,nan,0.002000,0.000000
89.000000,0.002000,-0.004344,-4.236272,-1.230884,-0.689376,-0.011126,0.197186,0.005124,0.713818,0.232837,0.000000,0.002000,0.000000
90.000000,0.002000,0.207318,0.128063,-0.324435,-0.408410,1.131121,0.250547,-1.491177,-0.509152,2.363399,nan,0.002000,0.000000
91.000000,0.002000,-2.935160,0.722811,-5.218496,-1.173341,-0.822738,-1.577860,0.239399,-0.060430,0.424086,0.000000,0.002000,0.000000
92.000000,0.002000,0.171759,-0.114960,-0.048217,-1.810066,2.594755,1.262209,-2.824385,0.880657,1.359624,nan,0.002000,0.000000
93.000000,0.002000,3.947267,-3.392261,0.481587,0.624740,-0.417589,-0.759860,-0.450220,0.405014,-0.028085,0.000000,0.002000,0.000000
94.000000,0.002000,-4.444979,2.751388,1.619875,-0.773770,0.803692,0.883196,0.473770,-0.305329,-0.046625,nan,0.002000,0.000000
95.000000,0.002000,-0.242480,0.110690,-0.042168,0.171740,4.035371,1.123095,1.073040,-0.518053,0.351646,0.000000,0.002000,0.000000
96.000000,0.002000,0.665257,-0.150807,0.910447,-1.222933,1.012493,-2.060668,-2.274295,0.217389,-4.259796,nan,0.002000,0.000000
97.000000,0.002000,0.276233,-0.686494,0.451134,2.970377,0.212404,0.576937,-1.487797,4.108193,-2.725384,0.000000,0.002000,0.000000
98.000000,0.002000,0.641307,-5.087630,4.121632,0.077650,-1.078252,1.083105,-0.049552,0.328855,-0.272213,nan,0.002000,0.000000
99.000000,0.002000,-0.131103,0.974783,0.172751,-0.470171,0.956601,1.244127,-0.371002,-4.313498,-1.106452,0.000000,0.002000,0.000000
100.000000,0.002000,-0.805049,0.948417,-0.580982,-0.379655,0.953174,-0.843709,2.614271,-3.294514,1.713588,nan,0.002000,0.000000
101.000000,0.002000,0.863688,0.677179,-1.396361,0.463532,-1.697388,1.034225,-1.681546,-1.111285,2.719084,0.000000,0.002000,0.000000
102.000000,0.002000,0.995447,-0.598609,-0.301673,-0.626019,1.500981,-1.810562,-4.231492,1.870381,0.834113,nan,0.002000,0.000000
103.000000,0.002000,0.500543,4.506870,-3.462262,-0.248274,0.428518,-0.369645,-0.057348,-0.422941,0.332771,0.000000,0.002000,0.000000
104.000000,0.002000,0.588140,-0.983318,0.102950,0.349231,-0.739866,1.886240,-2.252085,3.928617,-0.460016,nan,0.002000,0.000000
105.000000,0.002000,-2.107750,-1.561030,-0.418956,-0.098272,-1.008557,1.497887,1.398660,1.064579,0.319513,0.000000,0.002000,0.000000
106.000000,0.002000,0.399779,0.154175,-0.196879,1.516902,1.545631,0.540801,-2.420649,-0.893008,0.424621,nan,0.002000,0.000000
107.000000,0.002000,0.154333,0.562979,-0.615538,-1.420031,-1.739968,-0.428006,-1.047180,-2.058669,3.225749,0.000000,0.002000,0.000000
108.000000,0.002000,-1.265426,-0.206391,-1.115271,0.980699,-0.055731,1.016396,2.719878,0.486683,2.432054,nan,0.002000,0.000000
109.000000,0.002000,-0.429392,-0.546276,0.646620,-1.780179,0.662586,-1.769989,1.274440,1.544079,-2.779036,0.000000,0.002000,0.000000
110.000000,0.002000,-3.277496,0.699730,-3.345965,-0.898411,0.061977,-1.410787,0.485024,-0.092002,0.492574,nan,0.002000,0.000000
111.000000,0.002000,-1.337747,-0.178339,0.564431,-0.142811,-1.360024,1.016485,4.026410,0.914543,-1.661463,0.000000,0.002000,0.000000
112.000000,0.002000,6.930370,3.758286,1.361529,1.439623,0.471593,0.425953,-0.273836,-0.144164,-0.052308,nan,0.002000,0.000000
113.000000,0.002000,-1.081288,-4.854356,-4.100695,0.779729,-0.548813,0.048874,0.068746,0.331313,0.285252,0.000000,0.002000,0.000000
114.000000,0.002000,-0.647818,0.832420,0.998551,-0.835386,-2.186232,-1.005661,2.060803,-2.400970,-2.869839,nan,0.002000,0.000000
115.000000,0.002000,1.283738,0.286499,0.683936,-0.240898,-0.581952,0.176275,-3.611920,-0.722605,-1.879033,0.000000,0.002000,0.000000
116.000000,0.002000,-0.117648,-0.161046,0.142473,0.763601,0.974080,-0.082321,0.774529,1.637707,-1.305109,nan,0.002000,0.000000
117.000000,0.002000,-0.310849,0.556347,-0.550976,2.532714,0.452498,-1.092826,2.389269,-2.239705,2.780720,0.000000,0.002000,0.000000
118.000000,0.002000,0.415719,0.056403,0.463483,0.216622,-3.034105,-1.443815,-2.489977,-0.484649,-1.615889,nan,0.002000,0.000000
119.000000,0.002000,2.579383,2.871729,0.334313,-0.423463,-0.292324,-0.571073,-0.644048,-0.692176,-0.072778,0.000000,0.002000,0.000000
120.000000,0.002000,-0.398707,-0.479560,0.394198,-1.110073,-1.051595,-1.384781,1.873371,2.764437,-1.796865,nan,0.002000,0.000000
121.000000,0.002000,-1.067948,-0.916547,-0.494053,0.490807,-0.428141,1.071985,2.941872,2.248671,1.048683,0.000000,0.002000,0.000000
122.000000,0.002000,0.447296,0.317207,0.315161,-0.483947,0.489594,-0.548711,-3.141308,-1.225608,-1.867855,nan,0.002000,0.000000
123.000000,0.002000,-1.709824,2.461313,-1.924045,0.079733,-0.771082,0.165367,0.532938,-0.768381,0.574431,0.000000,0.002000,0.000000
124.000000,0.002000,0.274331,-0.033952,0.847662,-0.226437,0.784628,2.984385,-1.611105,0.472177,-4.353702,nan,0.002000,0.000000
125.000000,0.002000,-0.444673,0.099075,1.929485,-0.722072,0.221677,-0.586433,0.687922,-0.174720,-2.940582,0.000000,0.002000,0.000000
126.000000,0.002000,-1.082306,-5.052933,0.159795,-0.149777,-1.170072,-0.599725,0.131966,0.606390,-0.027189,nan,0.002000,0.000000
127.000000,0.002000,3.537903,-0.832081,-2.783073,-0.069697,0.480443,-0.917162,-0.552068,0.159776,0.448237,0.000000,0.002000,0.000000
128.000000,0.002000,-0.138694,4.501629,1.382705,0.050133,1.285807,0.317503,0.010418,-0.670842,-0.219024,nan,0.002000,0.000000
129.000000,0.002000,-0.969264,0.610368,0.468702,1.978077,-2.281013,-1.280473,3.966873,-2.216408,-2.029806,0.000000,0.002000,0.000000
130.000000,0.002000,-1.423757,-0.436443,-0.684255,-0.924649,-1.898027,-1.030972,3.284045,1.326086,1.699581,nan,0.002000,0.000000
131.000000,0.002000,-0.754167,-0.146190,1.186114,1.627737,-1.056593,-0.831486,2.686504,0.382110,-3.713857,0.000000,0.002000,0.000000
132.000000,0.002000,0.968726,-0.639327,1.094664,0.824561,1.906734,-0.539002,-2.535176,1.756504,-2.401913,nan,0.002000,0.000000
133.000000,0.002000,4.646761,-2.023453,0.652386,0.866633,0.311839,0.829773,-0.567815,0.230871,-0.064702,0.000000,0.002000,0.000000
134.000000,0.002000,-4.327566,2.809558,-2.350949,-0.647331,0.379554,-0.955823,0.411404,-0.268950,0.229941,nan,0.002000,0.000000
135.000000,0.002000,-2.042240,-5.830807,2.045631,-0.274142,-1.121593,-0.032971,0.130428,0.398348,-0.151595,0.000000,0.002000,0.000000
136.000000,0.002000,-0.489220,-0.587134,0.651501,1.008612,2.320991,-0.720478,2.727736,3.222803,-3.598518,nan,0.002000,0.000000
137.000000,0.002000,-0.007245,-0.119554,0.804081,-1.321455,-2.545493,0.885775,-0.052654,1.385180,-4.379785,0.000000,0.002000,0.000000
138.000000,0.002000,-0.562868,-3.880421,-0.711366,0.599838,0.173884,-0.056182,0.086641,0.863358,0.194901,nan,0.002000,0.000000
139.000000,0.002000,2.710026,-0.527583,0.169609,-0.840411,-0.361040,-0.177247,-1.663262,0.351346,-0.069707,0.000000,0.002000,0.000000
140.000000,0.002000,-1.513307,-0.722561,3.467118,0.412783,1.123198,0.505885,0.356651,0.202572,-0.903778,nan,0.002000,0.000000
141.000000,0.002000,0.572879,-5.575449,1.756179,0.438087,-1.479623,-0.151885,-0.060583,0.480875,-0.155463,0.000000,0.002000,0.000000
142.000000,0.002000,0.382060,-0.501126,0.082644,1.451918,-2.296943,0.155547,-2.645576,2.363128,-0.789187,nan,0.002000,0.000000
143.000000,0.002000,-0.272622,7.979990,2.111882,0.079473,1.797926,0.528100,0.010060,-0.286445,-0.073899,0.000000,0.002000,0.000000
144.000000,0.002000,0.082463,-1.015908,1.339900,0.226672,-0.843597,-0.241618,-0.334737,2.305565,-2.867519,nan,0.002000,0.000000
145.000000,0.002000,-1.076984,-0.045146,-0.341072,0.321148,0.864709,-2.487129,5.165725,-0.336260,1.040506,0.000000,0.002000,0.000000
146.000000,0.002000,0.297226,0.007400,-0.622106,-0.192293,1.511983,2.046347,-1.817674,-0.627906,3.686240,nan,0.002000,0.000000
147.000000,0.002000,-0.900330,0.784193,0.674094,-0.326178,-1.734945,-0.866447,2.980191,-2.603134,-2.562380,0.000000,0.002000,0.000000
148.000000,0.002000,2.374239,2.729432,-3.424082,-0.104378,0.285487,-0.302463,-0.323167,-0.348859,0.448026,nan,0.002000,0.000000
149.000000,0.002000,0.909477,0.241815,-0.065917,0.397637,0.455267,-1.748298,-5.248735,0.693693,0.915345,0.000000,0.002000,0.000000
150.000000,0.002000,0.221413,0.819939,-0.763701,-2.391342,-0.719028,-0.879428,-0.944709,-3.388042,3.012447,nan,0.002000,0.000000
151.000000,0.002000,-0.345951,0.600708,0.326797,-0.262287,3.321535,1.740265,2.041753,-4.322507,-2.807801,0.000000,0.002000,0.000000
152.000000,0.002000,-0.531109,1.171953,-0.048997,-0.661293,0.421702,-2.949783,2.074943,-3.948830,0.351994,nan,0.002000,0.000000
153.000000,0.002000,3.041968,0.084634,1.829363,-0.656863,-0.826450,-0.223106,-0.947721,-0.001154,-0.565470,0.000000,0.002000,0.000000
154.000000,0.002000,-0.190390,0.254773,0.024904,1.827244,0.374740,3.001771,0.025392,-1.781880,1.092048,nan,0.002000,0.000000
155.000000,0.002000,-0.228478,0.534274,-0.618769,1.584358,0.523074,0.996696,0.995325,-1.883249,2.614144,0.000000,0.002000,0.000000
156.000000,0.002000,-3.568555,-0.148280,-5.218376,-0.086003,-0.328042,-1.434347,0.258308,0.013150,0.381083,nan,0.002000,0.000000
157.000000,0.002000,5.898782,2.830179,4.564186,1.103567,0.732188,0.827174,-0.231573,-0.106445,-0.180221,0.000000,0.002000,0.000000
158.000000,0.002000,-0.560400,-0.070088,-0.694330,-2.321609,-0.744345,-0.006746,2.263756,-0.025547,4.173266,nan,0.002000,0.000000
159.000000,0.002000,1.059055,0.465444,-0.348726,-0.626236,-0.706951,-3.037813,-4.263151,-1.881151,1.749721,0.000000,0.002000,0.000000
160.000000,0.002000,1.799027,0.274199,1.972149,-1.332883,0.578112,-0.634578,-1.209854,-0.120241,-1.325877,nan,0.002000,0.000000
161.000000,0.002000,-0.291904,-1.127754,-0.115147,-1.164893,1.610580,1.339489,1.176573,4.534455,0.218869,0.000000,0.002000,0.000000
162.000000,0.002000,-1.696013,-5.422018,1.247647,-0.700142,-1.475713,-0.526246,0.142018,0.488527,-0.118684,nan,0.002000,0.000000
163.000000,0.002000,-1.220547,-4.403111,-2.591080,0.276811,-0.816788,-0.616021,0.136066,0.502356,0.297830,0.000000,0.002000,0.000000
164.000000,0.002000,0.424908,-0.515621,-0.564676,-1.083933,-1.376923,1.086945,-1.844575,2.015261,2.679626,nan,0.002000,0.000000
165.000000,0.002000,-1.598795,-7.918370,-1.124863,-0.227260,-1.926954,0.195298,0.058544,0.289622,0.040803,0.000000,0.002000,0.000000
166.000000,0.002000,0.156306,-1.753059,0.456799,-0.674482,1.627051,-1.731900,-0.479055,3.019002,-0.724964,nan,0.002000,0.000000
167.000000,0.002000,0.120401,0.273397,-1.430428,2.038462,0.429397,-1.512672,-0.584621,-0.449856,4.126988,0.000000,0.002000,0.000000
168.000000,0.002000,0.286910,0.967974,-0.698984,0.724599,0.041394,-0.645363,-1.000492,-3.796096,2.585825,nan,0.002000,0.000000
169.000000,0.002000,-0.454553,0.205902,-1.857535,-0.267638,0.557332,-1.299892,0.759593,-0.422043,2.963194,0.000000,0.002000,0.000000
170.000000,0.002000,1.519740,4.588324,-4.747962,0.034679,0.915838,-0.912290,-0.094347,-0.292569,0.286298,nan,0.002000,0.000000
171.000000,0.002000,-5.966065,-0.681481,-0.757752,-1.180997,0.231595,-0.611766,0.540079,0.097898,0.046926,0.000000,0.002000,0.000000
172.000000,0.002000,5.306665,-3.133094,3.005745,0.909475,-0.987045,0.862720,-0.309384,0.199493,-0.192405,nan,0.002000,0.000000
173.000000,0.002000,1.001264,-0.860009,0.076624,1.980064,0.359792,0.455558,-3.342633,2.935105,-0.272500,0.000000,0.002000,0.000000
174.000000,0.002000,-2.759148,-4.963163,1.582294,-0.157295,-1.367629,0.121181,0.254787,0.448237,-0.142317,nan,0.002000,0.000000
175.000000,0.002000,-1.975068,-1.336297,0.137599,-0.208248,1.665032,1.005537,1.734173,1.267055,-0.181293,0.000000,0.002000,0.000000
176.000000,0.002000,-1.700156,-2.075522,1.766959,0.040489,1.287928,0.175137,0.674054,0.858039,-0.717300,nan,0.002000,0.000000
177.000000,0.002000,3.332514,-5.159872,0.421917,0.349553,-1.743007,-0.735370,-0.255396,0.398658,-0.027277,0.000000,0.002000,0.000000
178.000000,0.002000,0.845614,-0.040780,-0.503681,-0.722939,1.829054,0.974732,-4.173792,0.107323,2.229234,nan,0.002000,0.000000
179.000000,0.002000,0.395601,0.166396,0.398762,0.639939,1.583028,-2.801486,-4.708637,-0.614713,-4.127346,0.000000,0.002000,0.000000
180.000000,0.002000,-0.278640,1.087050,-0.424965,-1.156788,1.148845,-1.351301,1.008548,-4.550333,1.582467,nan,0.002000,0.000000
181.000000,0.002000,0.551879,-0.649370,1.241301,-0.938121,-0.279246,-2.614241,-1.323288,1.619931,-3.443530,0.000000,0.002000,0.000000
182.000000,0.002000,0.828456,3.143354,1.803807,1.325511,0.758793,0.276129,-0.239257,-0.872883,-0.509005,nan,0.002000,0.000000
183.000000,0.002000,-1.026062,0.170270,-6.003381,0.011915,-0.826981,-1.549758,0.061728,-0.017308,0.494681,0.000000,0.002000,0.000000
184.000000,0.002000,0.648979,-0.201253,0.045875,-0.561707,0.870341,3.048115,-3.703882,0.653463,-0.351909,nan,0.002000,0.000000
185.000000,0.002000,0.614132,-1.821945,0.573247,-0.255190,-0.965902,0.842620,-0.896069,2.614270,-0.779052,0.000000,0.002000,0.000000
186.000000,0.002000,-2.392725,0.721046,-3.437463,-0.423130,-0.801365,-1.480820,0.525041,-0.140550,0.724265,nan,0.002000,0.000000
187.000000,0.002000,4.057704,-1.125596,-3.663704,0.989560,-0.627443,-0.738911,-0.473415,0.165731,0.326950,0.000000,0.002000,0.000000
188.000000,0.002000,-0.022991,0.988163,1.327135,0.435865,-1.708677,1.065263,0.164943,-2.345207,-3.027709,nan,0.002000,0.000000
189.000000,0.002000,0.809687,0.684644,-0.333712,-0.130405,-3.701383,0.128076,-3.223864,-2.682883,1.588831,0.000000,0.002000,0.000000
190.000000,0.002000,0.691739,0.684021,0.627337,1.102216,-1.422211,0.261962,-3.421418,-2.098947,-2.701688,nan,0.002000,0.000000
191.000000,0.002000,0.502036,1.232056,-0.452822,1.064524,1.042036,-0.923462,-1.671362,-4.183687,1.388269,0.000000,0.002000,0.000000
192.000000,0.002000,1.301104,-0.564182,1.065091,0.280069,-1.044197,1.181069,-2.177764,1.373216,-1.749600,nan,0.002000,0.000000
193.000000,0.002000,-0.135793,1.026506,0.305830,-0.553744,-1.643048,-0.712439,0.056955,-4.316875,-1.876871,0.000000,0.002000,0.000000
194.000000,0.002000,-5.188888,-1.255054,3.047244,-0.808208,-0.751058,0.449191,0.399179,0.104268,-0.230840,nan,0.002000,0.000000
195.000000,0.002000,-0.735813,-0.228031,1.285691,0.589762,-1.166723,2.122276,2.134360,0.500683,-3.900699,0.000000,0.002000,0.000000
196.000000,0.002000,-0.172065,-0.741350,0.353192,-2.513247,0.034980,1.344104,1.058917,4.072696,-1.566016,nan,0.002000,0.000000
197.000000,0.002000,0.495525,-5.863965,-1.884368,0.187273,0.432138,-0.405627,-0.043105,0.456086,0.160693,0.000000,0.002000,0.000000
198.000000,0.002000,0.116098,-0.134441,-0.663030,2.046554,-0.004664,-1.470531,0.233877,1.368694,3.312188,nan,0.002000,0.000000
199.000000,0.002000,0.080839,-0.726036,-0.792788,0.822949,0.410044,-1.911176,0.321325,3.182838,4.571416,0.000000,0.002000,0.000000
200.000000,0.002000,-0.526860,-0.016066,-0.998553,-0.614723,-1.633065,-0.825974,2.063875,0.189222,4.351776,nan,0.002000,0.000000
201.000000,0.002000,5.262416,-2.105920,4.077773,1.075480,-0.436469,0.841042,-0.289992,0.124619,-0.243008,0.000000,0.002000,0.000000
202.000000,0.002000,2.350774,4.699034,1.426781,0.392513,0.285757,0.029788,-0.241408,-0.501855,-0.155604,nan,0.002000,0.000000
203.000000,0.002000,0.426720,0.987306,-1.439914,-0.193542,1.362232,0.976107,-0.911807,-1.885377,2.808017,0.000000,0.002000,0.000000
204.000000,0.002000,1.073482,-0.562221,0.213904,1.607590,1.983388,1.863885,-3.652698,1.988430,-1.314048,nan,0.002000,0.000000
205.000000,0.002000,-0.361403,-1.419495,-0.805381,-1.389885,-1.363039,0.931721,1.076077,3.450250,1.224213,0.000000,0.002000,0.000000
206.000000,0.002000,1.020826,0.169216,0.725708,0.589352,1.173911,-0.419278,-3.235982,-0.042138,-2.273079,nan,0.002000,0.000000
207.000000,0.002000,-5.369174,4.051344,-2.235088,-1.061832,0.708340,-0.345584,0.310148,-0.221525,0.147525,0.000000,0.002000,0.000000
208.000000,0.002000,-0.387873,0.763189,0.871301,1.668117,-1.272805,-0.907804,0.968849,-2.376277,-3.481249,nan,0.002000,0.000000
209.000000,0.002000,-0.688552,-0.497801,-0.729716,0.563049,-1.278977,1.397376,2.633685,2.487587,3.566294,0.000000,0.002000,0.000000
210.000000,0.002000,0.374114,0.371275,-0.879294,-2.798263,1.161443,-1.609722,-2.183556,-1.008919,3.978416,nan,0.002000,0.000000
211.000000,0.002000,0.406779,-0.638895,0.454225,-1.376458,1.148016,0.147612,-2.412073,3.884651,-2.622229,0.000000,0.002000,0.000000
212.000000,0.002000,-0.382283,-0.276179,0.661079,0.315337,0.142557,0.119877,1.397809,1.423083,-3.846911,nan,0.002000,0.000000
213.000000,0.002000,0.867266,-0.605329,0.435920,0.365264,-0.750108,2.330342,-3.267782,2.650080,-1.654824,0.000000,0.002000,0.000000
214.000000,0.002000,1.747794,-3.526438,-3.838607,0.677022,-0.442247,-0.048047,-0.170787,0.424096,0.347916,nan,0.002000,0.000000
215.000000,0.002000,1.204958,-1.101931,-0.654984,-1.615724,1.433094,-1.362880,-2.383390,2.196456,1.233071,0.000000,0.002000,0.000000
216.000000,0.002000,-0.034562,-0.665027,1.187317,-0.233433,1.595282,-0.245734,0.099297,2.177976,-3.954750,nan,0.002000,0.000000
217.000000,0.002000,-0.194143,0.673398,0.029401,-1.017152,-1.576291,3.401741,0.430824,-4.404866,0.219322,0.000000,0.002000,0.000000
218.000000,0.002000,-0.823319,-4.135969,-3.582203,-1.143032,-0.804629,-0.622194,0.081048,0.426589,0.367954,nan,0.002000,0.000000
219.000000,0.002000,0.112258,0.556246,0.321125,-1.188829,-0.988237,1.697788,-0.899518,-3.149162,-1.647026,0.000000,0.002000,0.000000
220.000000,0.002000,-0.748351,0.646694,2.812612,-0.419462,-0.171547,-1.278072,0.389993,-0.336993,-1.382540,nan,0.002000,0.000000
221.000000,0.002000,-1.087251,3.284867,1.676211,-0.830507,0.458007,0.927521,0.304796,-0.818304,-0.438370,0.000000,0.002000,0.000000
222.000000,0.002000,0.210066,-0.383373,-0.474224,-1.829688,0.937820,-0.522394,-2.593782,2.635331,2.987925,nan,0.002000,0.000000
223.000000,0.002000,0.974108,-3.990748,2.581600,0.366804,-1.079143,0.291485,-0.133776,0.556843,-0.365771,0.000000,0.002000,0.000000
224.000000,0.002000,-0.881119,5.619728,-1.089412,-0.072652,0.927879,-0.914969,0.032879,-0.485548,-0.003412,nan,0.002000,0.000000
225.000000,0.002000,-0.595293,1.093122,-1.391399,0.925383,1.164238,-0.924494,1.045831,-1.927849,2.537159,0.000000,0.002000,0.000000
226.000000,0.002000,-1.035088,0.182204,-0.698252,0.602284,-0.870562,0.967953,4.077373,-0.642431,2.784859,nan,0.002000,0.000000
227.000000,0.002000,-0.632597,-0.400868,-0.080559,-1.360388,-2.058291,-1.684525,2.800489,2.864016,-1.010627,0.000000,0.002000,0.000000
228.000000,0.002000,2.310092,2.334294,-1.510260,0.979035,0.651507,1.036822,-0.623228,-0.690311,0.590853,nan,0.002000,0.000000
229.000000,0.002000,4.954132,-2.284344,0.250163,0.481270,1.072013,-0.850858,-0.519451,0.236208,-0.010615,0.000000,0.002000,0.000000
230.000000,0.002000,0.593581,-4.026505,-6.306674,-0.155432,-1.171258,-1.371851,-0.027793,0.191707,0.288794,nan,0.002000,0.000000
231.000000,0.002000,-1.413979,0.115267,-0.984702,-1.836484,-0.561744,-0.050837,2.836479,-0.276860,1.978371,0.000000,0.002000,0.000000
232.000000,0.002000,1.079377,0.869614,-0.713278,-2.095045,-1.290481,1.322534,-3.106402,-2.077769,1.942183,nan,0.002000,0.000000
233.000000,0.002000,-0.257409,-0.757904,0.067077,-0.068016,-1.827698,-1.145446,0.787882,3.492457,-0.857243,0.000000,0.002000,0.000000
234.000000,0.002000,0.957006,2.370178,-3.214032,0.286741,-0.798132,-0.277078,-0.207314,-0.492442,0.679231,nan,0.002000,0.000000
235.000000,0.002000,-0.547716,0.172195,0.178742,2.039171,3.294891,-1.176560,3.302011,-1.026743,-1.514249,0.000000,0.002000,0.000000
236.000000,0.002000,-1.291339,3.392084,-3.767831,0.619677,0.710648,-0.472937,0.140862,-0.404754,0.449035,nan,0.002000,0.000000
237.000000,0.002000,-1.206741,-0.465251,0.707456,0.030732,2.073842,0.816838,3.456116,1.449503,-1.946357,0.000000,0.002000,0.000000
238.000000,0.002000,0.023390,1.507324,0.482765,1.446069,-0.617312,-0.051642,-0.116835,-3.757129,-1.417037,nan,0.002000,0.000000
239.000000,0.002000,-0.149870,1.715188,0.198576,-1.254734,0.720608,1.014585,0.135085,-4.088249,-0.173775,0.000000,0.002000,0.000000
240.000000,0.002000,-0.929859,-0.257102,0.216987,1.001943,1.608107,-0.756744,4.227682,1.725691,-0.952149,nan,0.002000,0.000000
241.000000,0.002000,0.499341,1.125279,-0.426416,0.837502,-1.930992,0.920711,-1.896642,-4.199609,1.645191,0.000000,0.002000,0.000000
242.000000,0.002000,0.017322,5.739822,-1.086425,-0.114593,0.586446,-0.382969,-0.021576,-0.500689,0.098241,nan,0.002000,0.000000
243.000000,0.002000,0.407558,-0.531831,-0.318247,1.721375,-2.426207,-1.052144,-2.474544,2.745207,2.299754,0.000000,0.002000,0.000000
244.000000,0.002000,-0.466525,-0.642193,-0.649273,1.812868,-0.749578,-1.406237,1.855817,2.821072,3.064250,nan,0.002000,0.000000
245.000000,0.002000,4.404904,1.483922,-5.167786,-0.233471,0.809976,-1.596750,-0.256635,-0.090085,0.282562,0.000000,0.002000,0.000000
246.000000,0.002000,3.768107,-1.612809,2.558030,0.904391,-0.499388,0.652722,-0.528682,0.228392,-0.374179,nan,0.002000,0.000000
247.000000,0.002000,3.457712,0.037684,-2.000377,0.268559,-0.762191,-1.131130,-0.798780,0.004624,0.426592,0.000000,0.002000,0.000000
248.000000,0.002000,0.287354,-0.554112,0.165755,0.961076,-0.653537,3.369550,-1.190620,3.463986,-0.875271,nan,0.002000,0.000000
249.000000,0.002000,-0.656202,0.152821,0.367667,0.704199,-1.136678,0.091532,2.774642,-0.329390,-2.362322,0.000000,0.002000,0.000000
250.000000,0.002000,0.184515,-0.417806,-1.515671,-0.662188,1.467255,0.957977,-0.335697,1.106462,3.655516,nan,0.002000,0.000000
251.000000,0.002000,-4.401994,-0.846198,-3.964244,-0.821597,-0.701483,-0.820118,0.374740,0.086200,0.325537,0.000000,0.002000,0.000000
252.000000,0.002000,-0.663853,-0.185394,-0.194422,-1.072440,-2.912943,1.147402,3.681934,3.232257,-0.562587,nan,0.002000,0.000000
253.000000,0.002000,0.954546,-0.429640,0.070145,-0.758649,-1.826982,-0.127119,-4.454318,1.847482,-0.573933,0.000000,0.002000,0.000000
254.000000,0.002000,-1.729395,-0.061692,-0.088212,1.253571,1.931657,-1.342583,3.759910,0.220182,0.294032,nan,0.002000,0.000000
255.000000,0.002000,-0.972484,-0.223777,-1.008671,0.980540,-1.593924,-0.177454,3.230074,0.965029,3.366582,0.000000,0.002000,0.000000
256.000000,0.002000,-0.491544,0.081172,0.095711,-2.978679,2.574474,0.975472,3.089032,0.678640,-0.582271,nan,0.002000,0.000000
257.000000,0.002000,-0.644944,0.153960,0.246233,-0.600403,2.674109,2.398969,2.211152,-0.224271,-1.808020,0.000000,0.002000,0.000000
258.000000,0.002000,0.187024,-1.001863,0.532638,0.514802,-0.098452,0.573857,-1.088347,3.109984,-2.343725,nan,0.002000,0.000000
259.000000,0.002000,0.710406,-0.420827,-0.698398,2.115226,1.261508,-1.885999,-2.867015,1.652633,3.328030,0.000000,0.002000,0.000000
260.000000,0.002000,0.147597,-2.354194,1.247308,-0.650409,0.125656,-1.488940,-0.119603,1.591946,-0.829552,nan,0.002000,0.000000
261.000000,0.002000,0.508115,-1.388713,-0.396577,-1.160494,-2.182231,-1.066053,-1.372214,4.098275,0.816141,0.000000,0.002000,0.000000
262.000000,0.002000,-3.347452,0.158221,1.457440,-0.158955,0.751287,-0.848989,0.827564,0.014548,-0.383917,nan,0.002000,0.000000
263.000000,0.002000,-1.143633,-0.401223,-0.411711,1.275577,0.182522,1.889497,4.478817,1.607741,1.988262,0.000000,0.002000,0.000000
264.000000,0.002000,0.360548,-0.655050,0.090131,2.064104,-2.917082,1.056239,-1.587442,4.128982,-0.452207,nan,0.002000,0.000000
265.000000,0.002000,0.327921,-0.659747,-0.078198,-0.297045,-1.142378,-2.860319,-1.160720,4.097471,0.316056,0.000000,0.002000,0.000000
266.000000,0.002000,3.022312,-3.314687,0.414434,-0.207816,-0.075677,-0.401034,-0.511234,0.571355,-0.047579,nan,0.002000,0.000000
267.000000,0.002000,-2.387856,1.159018,-2.526422,0.108250,-0.424240,0.799641,0.753424,-0.296726,0.771107,0.000000,0.002000,0.000000
268.000000,0.002000,-0.537529,0.192909,0.321729,-0.129851,2.934238,-1.312890,2.748769,-0.936840,-2.633038,nan,0.002000,0.000000
269.000000,0.002000,0.797552,0.353640,0.027152,1.277173,-0.169913,-1.404999,-3.550549,-1.517649,-0.467448,0.000000,0.002000,0.000000
270.000000,0.002000,-2.217497,-2.667133,-2.073253,0.441895,-0.966646,0.340560,0.490275,0.594237,0.465630,nan,0.002000,0.000000
271.000000,0.002000,0.390224,1.212442,-0.230754,-0.766030,1.185534,1.224009,-1.498011,-4.420568,0.940826,0.000000,0.002000,0.000000
272.000000,0.002000,0.641505,-4.620133,1.021100,-0.139076,-1.019854,1.188275,-0.087223,0.653363,-0.140131,nan,0.002000,0.000000
273.000000,0.002000,1.278611,0.241537,-0.487543,1.862862,-1.764327,0.480292,-4.049035,-0.652692,1.640943,0.000000,0.002000,0.000000
274.000000,0.002000,0.128562,0.381975,0.436922,-0.022361,0.688144,-0.169745,-0.502612,-1.680591,-2.385235,nan,0.002000,0.000000
275.000000,0.002000,0.702674,-0.553943,-0.584089,-0.219945,1.720529,1.964484,-4.096514,2.419469,2.354570,0.000000,0.002000,0.000000
276.000000,0.002000,-0.177427,-3.830437,-6.418515,0.055236,-0.936031,-1.268294,0.019370,0.209906,0.283708,nan,0.002000,0.000000
277.000000,0.002000,-0.306618,0.140903,0.053876,-2.102466,2.847116,-1.179427,1.635204,-0.970446,-0.979334,0.000000,0.002000,0.000000
278.000000,0.002000,-0.090840,0.246167,0.029577,2.461438,-0.662877,-0.630508,-0.177517,-1.339391,0.195369,nan,0.002000,0.000000
279.000000,0.002000,0.054370,-0.387302,0.350306,0.283871,-2.907913,1.178741,-0.750844,2.132756,-1.779645,0.000000,0.002000,0.000000
280.000000,0.002000,0.056292,0.433375,0.453143,1.311602,0.734643,0.746061,-0.217011,-2.273325,-2.664621,nan,0.002000,0.000000
281.000000,0.002000,0.973832,1.094268,-0.924769,-1.290488,-0.286015,-0.838406,-2.221169,-2.283975,1.966687,0.000000,0.002000,0.000000
282.000000,0.002000,1.294777,-1.047910,-3.038692,1.503737,0.463709,0.347067,-0.411887,0.334677,0.991083,nan,0.002000,0.000000
283.000000,0.002000,0.293816,0.855573,0.311660,2.830441,0.358348,-0.707693,-1.631282,-4.074347,0.626546,0.000000,0.002000,0.000000
284.000000,0.002000,-4.903277,2.151970,4.371531,-1.336342,-0.005205,0.942774,0.271287,-0.153916,-0.298956,nan,0.002000,0.000000
285.000000,0.002000,0.964693,0.907877,1.118417,0.098947,-0.359142,-0.088365,-1.732855,-1.601679,-2.376119,0.000000,0.002000,0.000000
286.000000,0.002000,1.117366,-1.816451,-0.355245,1.346016,1.376672,0.393086,-1.301905,2.146384,0.401672,nan,0.002000,0.000000
287.000000,0.002000,-0.203837,0.134096,0.410569,-0.759180,-1.003062,2.791682,1.266058,-0.490335,-3.327975,0.000000,0.002000,0.000000
288.000000,0.002000,0.143326,0.211038,-0.359798,-0.210504,0.752408,-1.717947,-1.494067,-1.561301,2.195312,nan,0.002000,0.000000
289.000000,0.002000,0.117542,-0.216410,-0.046987,-1.741283,-1.864196,0.419286,-2.766225,1.801146,-0.061912,0.000000,0.002000,0.000000
290.000000,0.002000,0.324928,0.869837,-1.076558,0.157364,-0.435064,0.351419,-1.188827,-2.383331,3.881665,nan,0.002000,0.000000
291.000000,0.002000,0.009961,2.749309,-4.302483,0.521539,0.076626,-0.626979,-0.022684,-0.333494,0.530813,0.000000,0.002000,0.000000
292.000000,0.002000,-0.904605,-0.943009,0.161587,-0.946183,1.060707,-1.232363,2.959369,3.189746,-0.469391,nan,0.002000,0.000000
293.000000,0.002000,0.022444,-0.432838,-0.026985,1.363832,-1.661166,0.313099,0.018396,2.422183,0.403385,0.000000,0.002000,0.000000
294.000000,0.002000,-0.635822,-1.347847,-2.188548,-0.612985,1.488385,0.667331,0.385908,0.926263,1.540309,nan,0.002000,0.000000
295.000000,0.002000,0.201147,0.108056,0.432492,0.047895,-0.258757,-2.622021,-1.712435,0.188996,-2.314111,0.000000,0.002000,0.000000
296.000000,0.002000,1.008251,-0.798662,-0.233845,0.168095,0.478813,-2.261897,-3.450736,3.117749,0.868893,nan,0.002000,0.000000
297.000000,0.002000,0.078958,1.012928,-1.055968,0.553616,-0.539695,-1.203464,-0.313156,-2.670207,3.232201,0.000000,0.002000,0.000000
298.000000,0.002000,2.003854,1.733465,-0.470290,-0.506927,-1.183373,0.314622,-1.329858,-1.141199,0.321515,nan,0.002000,0.000000
299.000000,0.002000,2.883921,-0.520208,1.848524,1.275616,0.633727,0.826677,-0.943115,0.190371,-0.603351,0.000000,0.002000,0.000000
300.000000,0.002000,-0.051603,-1.410221,-0.944712,2.123765,-0.492390,2.360404,0.104885,2.945659,2.500963,nan,0.002000,0.000000
301.000000,0.002000,-0.925025,0.187723,0.908692,-1.426327,0.857269,2.200931,2.886032,-0.640653,-3.769400,0.000000,0.002000,0.000000
302.000000,0.002000,1.370047,-0.433913,-0.557078,-1.469844,1.191582,-0.738310,-3.618122,1.218362,1.580681,nan,0.002000,0.000000
303.000000,0.002000,-4.384106,-0.217212,-1.706821,-1.055768,-0.665181,0.247063,0.666331,0.047526,0.282423,0.000000,0.002000,0.000000
304.000000,0.002000,-0.811499,-0.352543,0.386401,-1.520781,-2.467750,-0.693199,3.689652,2.120587,-1.568862,nan,0.002000,0.000000
305.000000,0.002000,1.835198,3.563134,0.052490,0.190761,-0.710367,-0.254931,-0.402236,-0.794224,0.002189,0.000000,0.002000,0.000000
306.000000,0.002000,-0.463973,0.089835,-0.144926,2.705530,-0.247528,0.406462,2.092571,-1.233159,1.938768,nan,0.002000,0.000000
307.000000,0.002000,0.267070,1.309083,0.101547,0.642767,-0.308268,-2.011798,-1.024215,-4.623050,-0.273910,0.000000,0.002000,0.000000
308.000000,0.002000,2.510075,-5.014847,-2.138313,0.764541,-0.435601,-0.341229,-0.224745,0.394283,0.158321,nan,0.002000,0.000000
309.000000,0.002000,4.241555,-3.875214,2.134081,0.779811,-0.149107,0.303322,-0.185340,0.362006,-0.085333,0.000000,0.002000,0.000000
310.000000,0.002000,0.078714,-0.275296,-1.011508,1.793504,-1.505876,1.495447,-0.384119,1.108081,4.401863,nan,0.002000,0.000000
311.000000,0.002000,-3.134343,-3.160708,3.130027,0.028046,-0.689319,0.712417,0.348496,0.358853,-0.347807,0.000000,0.002000,0.000000
312.000000,0.002000,-0.869971,0.646067,4.036234,-0.355126,-0.105487,-0.399530,0.228000,-0.197125,-0.714130,nan,0.002000,0.000000
313.000000,0.002000,-2.777952,-3.542479,-3.000618,-0.666534,0.120658,-0.615010,0.290721,0.367884,0.324306,0.000000,0.002000,0.000000
314.000000,0.002000,0.155315,0.490202,-1.096028,0.819892,-2.115521,0.999445,-1.228173,-1.821097,5.123548,nan,0.002000,0.000000
315.000000,0.002000,-0.860611,-1.599990,-0.112462,-2.051306,-1.833761,-0.277994,1.499285,2.922439,0.265892,0.000000,0.002000,0.000000
316.000000,0.002000,-0.775413,-0.093913,0.587553,-2.998535,-0.945615,-1.736309,3.351233,0.786727,-3.002775,nan,0.002000,0.000000
317.000000,0.002000,0.275470,-0.955820,1.155193,-1.084866,1.194746,0.225406,0.390121,2.209869,-3.807500,0.000000,0.002000,0.000000
318.000000,0.002000,0.034522,-0.805702,0.743117,-0.765839,-0.652644,-2.657286,-0.111232,3.627659,-3.342507,nan,0.002000,0.000000
319.000000,0.002000,0.994371,0.400055,-0.479490,1.592640,0.642057,1.379797,-3.734493,-1.550108,2.031667,0.000000,0.002000,0.000000
320.000000,0.002000,-0.459818,-5.843393,-3.117868,-0.338156,-0.996378,-1.133263,0.024211,0.366447,0.203752,nan,0.002000,0.000000
321.000000,0.002000,-0.587029,-0.944184,0.405379,-0.178791,1.552123,-0.016103,2.044455,3.802079,-1.468127,0.000000,0.002000,0.000000
322.000000,0.002000,0.260284,0.883972,-0.028085,2.561671,-1.027471,-0.409713,0.337605,-3.625516,-0.568597,nan,0.002000,0.000000
323.000000,0.002000,0.100421,-0.389808,-1.061765,-0.164434,0.362203,-2.317726,-0.783151,1.508750,4.359712,0.000000,0.002000,0.000000
324.000000,0.002000,0.697377,0.308063,-0.544831,-0.298829,-0.641873,2.021527,-4.358515,-1.841606,2.569475,nan,0.002000,0.000000
325.000000,0.002000,0.023470,-0.578441,-3.822167,0.534902,1.668004,-0.903729,-0.019709,0.135348,0.931131,0.000000,0.002000,0.000000
326.000000,0.002000,-1.852516,3.281596,-1.838628,-0.237694,-0.394008,-0.430829,0.371718,-0.672478,0.367685,nan,0.002000,0.000000
327.000000,0.002000,0.145302,-0.576927,0.509068,0.331209,-0.140374,-0.656366,-1.369893,3.265464,-2.729374,0.000000,0.002000,0.000000
328.000000,0.002000,1.225809,-0.216991,0.185002,-0.751452,-0.537913,1.609711,-4.594251,0.603015,-0.754013,nan,0.002000,0.000000
329.000000,0.002000,-0.490293,0.402692,-0.106069,-2.346279,-0.419831,0.888686,2.155320,-3.067719,1.079415,0.000000,0.002000,0.000000
330.000000,0.002000,0.045837,-0.616133,-0.131265,-2.558747,1.170184,1.545823,-0.896086,3.958046,1.556131,nan,0.002000,0.000000
331.000000,0.002000,0.736072,0.126902,-0.378976,0.784926,0.067791,0.657026,-3.746530,-0.695998,2.189120,0.000000,0.002000,0.000000
332.000000,0.002000,-0.498022,-0.992633,0.654069,0.463975,0.853643,0.135555,2.028904,4.726360,-2.255254,nan,0.002000,0.000000
333.000000,0.002000,-0.103155,0.031820,-2.017993,-1.552993,-0.132476,1.598711,0.075398,-0.006513,2.952205,0.000000,0.002000,0.000000
334.000000,0.002000,1.114221,-1.243537,-0.335311,0.553078,-0.731639,1.350967,-2.333848,2.706029,0.873810,nan,0.002000,0.000000
335.000000,0.002000,-0.670272,0.580508,0.968543,-0.286026,0.238320,0.490313,2.480982,-2.302969,-2.921467,0.000000,0.002000,0.000000
336.000000,0.002000,0.150435,-0.083864,0.778936,2.145005,2.244999,0.208750,-0.936464,1.040062,-4.105736,nan,0.002000,0.000000
337.000000,0.002000,-0.316323,-0.892834,0.059181,-0.135870,0.340787,-2.865415,1.273137,4.263306,-0.484908,0.000000,0.002000,0.000000
338.000000,0.002000,2.386690,3.217753,-3.171900,1.242802,0.763523,0.063008,-0.310092,-0.373931,0.372987,nan,0.002000,0.000000
339.000000,0.002000,-0.774453,0.479115,-0.417725,-1.349909,-1.951156,1.278358,3.759484,-2.508927,2.077392,0.000000,0.002000,0.000000
340.000000,0.002000,0.485214,3.409289,2.028645,-0.991818,0.836340,0.480916,-0.103655,-0.799080,-0.484542,nan,0.002000,0.000000
341.000000,0.002000,-0.305633,0.666237,0.433754,1.640371,-0.108418,-2.084068,1.325635,-3.256741,-3.040102,0.000000,0.002000,0.000000
342.000000,0.002000,1.672250,-2.552562,-4.967747,0.015175,0.049055,-1.277553,-0.180899,0.253532,0.334926,nan,0.002000,0.000000
343.000000,0.002000,0.612379,0.654544,-0.660782,1.927217,-2.171480,-0.701328,-2.899432,-1.976004,1.836632,0.000000,0.002000,0.000000
344.000000,0.002000,-0.648654,-0.357653,-0.049589,-1.478029,0.686096,-1.055886,3.498831,2.091622,-0.369293,nan,0.002000,0.000000
345.000000,0.002000,1.782966,-0.077715,0.657452,0.360314,0.637596,-0.468427,-3.106754,0.105713,-1.006229,0.000000,0.002000,0.000000
346.000000,0.002000,1.425039,-3.975381,2.238067,0.875468,-0.436487,0.935300,-0.201853,0.577277,-0.321767,nan,0.002000,0.000000
347.000000,0.002000,0.340667,-1.069626,1.599581,-0.022669,-1.246395,-2.106316,-0.493476,1.844807,-2.416647,0.000000,0.002000,0.000000
348.000000,0.002000,-0.892513,-1.017780,-0.479558,-0.858852,-0.792843,0.104423,2.579680,3.193837,1.387228,nan,0.002000,0.000000
349.000000,0.002000,-0.862972,-0.445190,-0.260725,-0.768953,2.091540,-2.360660,4.527198,2.668409,1.325837,0.000000,0.002000,0.000000
350.000000,0.002000,1.256055,0.476380,0.935506,0.267650,-0.739613,1.897797,-2.546218,-1.467694,-2.457216,nan,0.002000,0.000000
351.000000,0.002000,-0.525335,-0.579239,0.795689,0.033613,0.777771,-3.247120,2.264289,2.482909,-3.565389,0.000000,0.002000,0.000000
352.000000,0.002000,-0.699190,-2.004729,-0.062521,1.153718,-0.808912,-2.585812,0.887303,2.497429,0.075997,nan,0.002000,0.000000
353.000000,0.002000,-1.450487,-5.066779,-2.078535,-0.624727,-0.538355,-0.498638,0.136665,0.476946,0.206653,0.000000,0.002000,0.000000
354.000000,0.002000,0.226176,0.492232,1.212129,-0.553533,0.379450,-1.334941,-0.918310,-1.340789,-4.069157,nan,0.002000,0.000000
355.000000,0.002000,-0.417450,0.080553,-0.121744,-1.403051,-0.023194,0.703279,2.766957,-0.815145,0.933720,0.000000,0.002000,0.000000
356.000000,0.002000,0.437057,0.292993,0.722931,0.375229,0.139544,-1.792151,-4.943089,-0.184568,-3.292511,nan,0.002000,0.000000
357.000000,0.002000,1.216322,3.867110,2.894513,0.125431,0.448903,-0.273890,-0.081862,-0.524172,-0.362607,0.000000,0.002000,0.000000
358.000000,0.002000,-1.684356,1.177397,-0.096295,0.472768,1.155068,1.893541,2.633544,-1.912334,0.186942,nan,0.002000,0.000000
359.000000,0.002000,0.591583,-1.061763,-0.045138,-0.996748,-1.870459,-1.992201,-1.942231,3.802049,0.085843,0.000000,0.002000,0.000000
360.000000,0.002000,-4.069093,1.312912,-0.661123,-0.535058,-0.723638,0.247780,0.754095,-0.253492,0.117877,nan,0.002000,0.000000
361.000000,0.002000,0.105354,-0.274573,1.051502,0.833555,0.262181,-0.034629,-0.286014,1.307874,-4.557296,0.000000,0.002000,0.000000
362.000000,0.002000,0.535728,-0.537686,0.567726,-1.174106,-2.264065,-0.672137,-3.080540,2.795781,-2.346065,nan,0.002000,0.000000
363.000000,0.002000,0.583656,0.377988,-0.482269,1.152736,1.352338,-2.131454,-3.370842,-1.759344,2.138047,0.000000,0.002000,0.000000
364.000000,0.002000,0.834941,1.086617,0.330959,0.530368,-1.499865,-0.296802,-2.922386,-3.094899,-1.302858,nan,0.002000,0.000000
365.000000,0.002000,2.741101,1.724340,-7.755016,0.463715,0.358154,-1.746572,-0.091939,-0.057521,0.259312,0.000000,0.002000,0.000000
366.000000,0.002000,-0.408734,0.709271,0.182375,-0.682613,-0.031367,1.542192,2.092720,-3.335136,-0.908469,nan,0.002000,0.000000
367.000000,0.002000,1.287941,0.069358,0.837457,-1.771330,-0.567970,0.353051,-3.548948,0.270574,-2.307801,0.000000,0.002000,0.000000
368.000000,0.002000,-2.246225,3.282533,0.380068,0.395930,0.908611,-0.848301,0.538490,-0.751207,-0.096259,nan,0.002000,0.000000
369.000000,0.002000,-0.740695,-0.179774,0.798617,-1.451098,-1.155213,-0.548779,2.403991,1.100966,-3.469084,0.000000,0.002000,0.000000
370.000000,0.002000,-0.408101,-1.220050,0.000767,0.148286,1.289737,-2.308976,-1.558183,1.340188,-3.867356,nan,0.002000,0.000000
371.000000,0.002000,-0.614800,1.097801,0.461703,-1.744756,1.994128,0.640345,2.210963,-3.791333,-1.854642,0.000000,0.002000,0.000000
372.000000,0.002000,2.592453,-3.089902,-3.820044,0.741850,-0.747985,-1.253784,-0.271472,0.285731,0.356356,nan,0.002000,0.000000
373.000000,0.002000,1.551838,0.496093,3.142387,-1.083192,0.328983,0.243968,-0.554816,-0.148816,-0.970321,0.000000,0.002000,0.000000
374.000000,0.002000,-1.551297,1.751722,1.328433,1.345900,-0.709137,0.588800,1.066218,-1.186999,-0.885471,nan,0.002000,0.000000
375.000000,0.002000,3.842525,-2.799722,1.033090,0.414801,-0.923026,0.816886,-0.797295,0.549708,0.005914,0.000000,0.002000,0.000000
376.000000,0.002000,-0.133391,0.907126,-0.302266,-0.808164,0.663373,-0.675716,0.088084,-4.261982,1.275793,nan,0.002000,0.000000
377.000000,0.002000,-1.358576,0.194170,4.863566,-0.510212,-0.697242,1.102400,0.171960,-0.015684,-0.621311,0.000000,0.002000,0.000000
378.000000,0.002000,0.670750,-3.292363,0.963849,-0.111756,0.861674,0.057985,-0.218934,1.050665,-0.305817,nan,0.002000,0.000000
379.000000,0.002000,0.209628,-0.285230,0.064216,0.524422,0.756935,-0.341986,0.407144,3.321411,-1.782350,0.000000,0.002000,0.000000
380.000000,0.002000,-0.246550,-0.016673,-1.300804,0.288408,1.562686,0.204818,0.162332,-0.030127,4.482202,nan,0.002000,0.000000
381.000000,0.002000,5.341363,1.542795,-3.751320,1.401015,0.209431,-0.870183,-0.335740,-0.098091,0.241394,0.000000,0.002000,0.000000
382.000000,0.002000,0.868480,0.851793,-0.442584,-1.294587,1.393864,-0.763859,-3.442940,-2.536734,1.587261,nan,0.002000,0.000000
383.000000,0.002000,0.429356,0.063117,0.662130,-2.038787,-0.874475,0.775305,-1.421107,-0.323635,-3.872337,0.000000,0.002000,0.000000
384.000000,0.002000,-0.083324,-0.545789,-0.007026,0.574986,2.369416,2.189320,1.042182,5.085975,-0.628549,nan,0.002000,0.000000
385.000000,0.002000,0.329025,0.297719,-0.385098,-1.645673,-2.226762,1.271773,-1.321202,-1.278078,3.068725,0.000000,0.002000,0.000000
386.000000,0.002000,-0.062790,-0.270260,-0.027429,-2.920794,2.092188,-0.580188,0.778828,1.903420,0.083576,nan,0.002000,0.000000
387.000000,0.002000,-5.661807,0.655400,3.375948,-1.332316,-0.193067,0.898703,0.370862,-0.036821,-0.222210,0.000000,0.002000,0.000000
388.000000,0.002000,-0.914374,-0.204667,-0.991193,-0.905540,0.262187,-1.644671,2.673467,0.638972,3.295814,nan,0.002000,0.000000
389.000000,0.002000,0.957008,0.011744,1.363029,0.659746,-1.727176,-1.951219,-2.153785,-0.094825,-2.964899,0.000000,0.002000,0.000000
390.000000,0.002000,-0.477037,-0.276997,-0.499453,1.839756,2.192189,0.434881,1.753488,2.118533,2.855864,nan,0.002000,0.000000
391.000000,0.002000,-0.356092,1.241372,-0.507977,-1.082484,2.131306,-0.839769,0.972291,-3.728621,1.320577,0.000000,0.002000,0.000000
392.000000,0.002000,0.001752,-1.120113,0.050228,-2.561297,0.131845,0.750688,0.245971,4.689334,-0.349515,nan,0.002000,0.000000
393.000000,0.002000,-0.281551,-0.160508,0.614462,2.023615,2.345317,-0.160049,1.095154,0.768985,-3.864514,0.000000,0.002000,0.000000
394.000000,0.002000,-0.202020,-0.651769,-0.179864,-3.006418,0.801192,1.098934,0.651190,3.692024,-1.381933,nan,0.002000,0.000000
395.000000,0.002000,-0.088424,1.153999,-1.425469,0.265602,-0.213197,1.328179,0.060030,-1.907879,2.629841,0.000000,0.002000,0.000000
396.000000,0.002000,-0.135368,0.048307,0.530168,0.586368,2.058039,1.064605,1.034575,0.000150,-3.351433,nan,0.002000,0.000000
397.000000,0.002000,-0.443061,0.285973,0.235605,0.517084,2.837373,1.758276,2.993235,-1.651963,-2.400829,0.000000,0.002000,0.000000
398.000000,0.002000,-5.125416,-0.298724,1.246084,-0.261953,-0.033772,-0.003064,0.593432,0.048866,-0.140710,nan,0.002000,0.000000
399.000000,0.002000,-4.930171,0.825668,2.679682,-0.375350,0.477524,0.456014,0.483810,-0.059934,-0.269921,0.000000,0.002000,0.000000
400.000000,0.002000,3.073266,-1.944956,2.544383,-0.382429,-0.975033,0.243513,-0.535506,0.339649,-0.459500,nan,0.002000,0.000000
401.000000,0.002000,5.700780,1.609073,-5.428492,1.408597,0.103492,-1.202801,-0.217276,-0.061468,0.204623,0.000000,0.002000,0.000000
402.000000,0.002000,-0.403868,0.905204,0.102949,-0.052896,1.450175,-2.490694,1.588799,-4.300625,-0.115809,nan,0.002000,0.000000
403.000000,0.002000,-4.874710,0.592418,0.012139,-1.127553,-0.157124,0.532585,0.643655,-0.147535,0.019526,0.000000,0.002000,0.000000
404.000000,0.002000,-0.249777,-0.083286,1.265766,1.910024,1.055135,-2.255332,1.085105,-0.003999,-4.687260,nan,0.002000,0.000000
405.000000,0.002000,0.126416,0.673452,-0.545397,-0.915840,-0.746068,-1.645697,-0.950558,-3.383203,2.161170,0.000000,0.002000,0.000000
406.000000,0.002000,-0.186015,0.651954,0.199333,-1.132954,0.841737,-1.707417,-1.486718,-5.444957,-1.225115,nan,0.002000,0.000000
407.000000,0.002000,-0.544620,-0.216727,0.152484,-1.587638,-1.667078,-0.615435,3.583139,1.818090,-1.368996,0.000000,0.002000,0.000000
408.000000,0.002000,1.446291,0.930265,0.340800,1.993409,-0.406702,0.805268,-3.203607,-1.791625,-0.614540,nan,0.002000,0.000000
409.000000,0.002000,-0.945538,0.157913,0.217162,1.442328,1.445678,0.090676,4.542927,-0.755498,-0.414046,0.000000,0.002000,0.000000
410.000000,0.002000,-1.722124,-3.125025,-2.179599,-0.001620,-0.416719,0.499885,0.357274,0.633300,0.449136,nan,0.002000,0.000000
411.000000,0.002000,0.719868,-0.115957,-1.859766,0.511600,0.854061,1.977144,-0.964636,0.280729,2.620387,0.000000,0.002000,0.000000
412.000000,0.002000,-5.403186,-3.020367,4.379155,-1.005066,-1.030809,0.784209,0.244339,0.140805,-0.198207,nan,0.002000,0.000000
413.000000,0.002000,1.087872,0.185327,-0.426165,0.693623,-0.365754,0.297373,-4.526091,-1.084376,2.194593,0.000000,0.002000,0.000000
414.000000,0.002000,4.100482,-0.452077,2.118225,1.051351,0.704218,0.813747,-0.623065,0.091157,-0.343758,nan,0.002000,0.000000
415.000000,0.002000,-0.505366,-1.316496,0.632316,-0.469051,0.537594,-1.501480,1.186555,3.503897,-1.630652,0.000000,0.002000,0.000000
416.000000,0.002000,-1.259104,-1.022685,-0.013129,-0.767494,0.509265,-1.288602,2.932348,2.479790,0.061405,nan,0.002000,0.000000
417.000000,0.002000,1.080341,3.987594,5.352918,0.261664,0.494504,1.094756,-0.011458,-0.255838,-0.377764,0.000000,0.002000,0.000000
418.000000,0.002000,0.271957,0.681289,-0.125729,1.151962,1.744564,-3.161471,-2.127658,-3.923377,0.247359,nan,0.002000,0.000000
419.000000,0.002000,2.947670,5.118243,1.042416,0.996034,1.439328,-0.713114,-0.259350,-0.442705,-0.093442,0.000000,0.002000,0.000000
420.000000,0.002000,-4.057212,0.342431,-2.188113,0.198137,-0.143701,-0.234007,0.641715,-0.043034,0.371677,nan,0.002000,0.000000
421.000000,0.002000,-0.121758,0.477523,-1.126169,0.087504,-0.965477,0.169860,0.551040,-1.749473,4.787008,0.000000,0.002000,0.000000
422.000000,0.002000,-4.033756,-2.012562,0.830815,0.183503,-0.036007,0.122671,0.635564,0.305408,-0.117603,nan,0.002000,0.000000
423.000000,0.002000,0.601197,-7.091389,5.346814,-0.057134,-1.797321,1.404469,-0.017233,0.197406,-0.150820,0.000000,0.002000,0.000000
424.000000,0.002000,-1.179262,4.020121,0.444179,0.070966,1.631465,0.787552,0.257958,-0.787326,-0.099797,nan,0.002000,0.000000
425.000000,0.002000,-0.641741,0.295773,0.059627,-0.313568,0.560679,3.079746,3.631604,-1.955325,-0.359490,0.000000,0.002000,0.000000
426.000000,0.002000,-0.095835,0.039651,1.155696,1.465455,-1.267050,2.029828,-0.345921,-0.713930,-3.994477,nan,0.002000,0.000000
427.000000,0.002000,0.277898,0.945260,0.240790,3.344961,-0.375605,0.589677,-0.961975,-4.814090,-0.519083,0.000000,0.002000,0.000000
428.000000,0.002000,0.864586,-1.205753,-0.058131,0.000066,-0.324088,2.325497,-2.420125,3.009423,0.511122,nan,0.002000,0.000000
429.000000,0.002000,-0.051251,1.380236,-0.299089,1.923354,-1.153091,-0.192011,0.182885,-4.319343,0.825854,0.000000,0.002000,0.000000
430.000000,0.002000,4.933365,-2.762142,-3.179662,1.017863,-0.627413,-0.310839,-0.311787,0.189200,0.216662,nan,0.002000,0.000000
431.000000,0.002000,-0.742349,-0.310899,1.001047,0.927772,-0.928676,-0.569742,2.653812,1.223218,-2.456715,0.000000,0.002000,0.000000
432.000000,0.002000,0.072476,-2.015734,1.411491,-0.363624,1.496714,-0.816464,-0.090236,1.697768,-1.184378,nan,0.002000,0.000000
433.000000,0.002000,0.443341,0.462250,0.499186,-0.140048,-0.440540,0.021808,-1.987954,-1.239137,-2.643856,0.000000,0.002000,0.000000
434.000000,0.002000,1.797810,2.416903,1.254822,1.633268,-0.631580,-1.258708,-0.751534,-0.939700,-0.484172,nan,0.002000,0.000000
435.000000,0.002000,0.217005,0.877020,-0.427498,0.746321,-0.743513,-2.263970,-1.234942,-3.636491,2.077783,0.000000,0.002000,0.000000
436.000000,0.002000,-0.104949,-0.651319,1.007022,2.431588,-0.263924,1.806426,1.150525,2.372084,-3.353755,nan,0.002000,0.000000
437.000000,0.002000,0.574359,-0.249829,0.639544,1.513224,-0.666493,1.559732,-2.827407,1.324108,-2.867141,0.000000,0.002000,0.000000
438.000000,0.002000,-0.459174,-0.289839,-0.603682,1.243307,0.731543,0.054215,1.136132,2.138842,3.169260,nan,0.002000,0.000000
439.000000,0.002000,0.008571,-1.089159,-0.856660,-1.073327,0.696909,-0.796177,0.013092,3.490313,2.317258,0.000000,0.002000,0.000000
440.000000,0.002000,-0.921863,-0.074788,0.767354,-2.097850,-0.412811,-0.477926,3.433516,0.915865,-2.916277,nan,0.002000,0.000000
441.000000,0.002000,-0.057853,0.695093,0.014695,-1.760433,0.010891,-2.566475,-0.190244,-3.627152,-0.151577,0.000000,0.002000,0.000000
442.000000,0.002000,-0.056889,-0.840507,-0.246465,0.654404,-1.241090,-1.885279,-0.012928,4.590522,1.329282,nan,0.002000,0.000000
443.000000,0.002000,0.466627,0.498818,0.486018,0.724461,3.462210,0.227201,-3.336395,-3.034164,-2.177598,0.000000,0.002000,0.000000
444.000000,0.002000,0.543196,-0.449051,-0.093292,-0.228678,2.404450,-0.667994,-2.320551,2.320996,1.768332,nan,0.002000,0.000000
445.000000,0.002000,0.035660,0.312836,-0.827183,1.273051,-0.381287,0.769337,-0.648150,-0.831478,4.292550,0.000000,0.002000,0.000000
446.000000,0.002000,-0.347232,0.010726,1.932126,0.111771,0.568119,1.460385,0.409938,0.099623,-2.989176,nan,0.002000,0.000000
447.000000,0.002000,0.434094,-0.542855,0.201820,1.973182,-2.487691,0.178318,-3.061830,2.761449,-1.545910,0.000000,0.002000,0.000000
448.000000,0.002000,-2.025297,1.390974,0.272087,0.760835,-0.696039,1.285842,1.580048,-1.330469,-0.067360,nan,0.002000,0.000000
449.000000,0.002000,0.776312,0.298610,0.920202,0.698883,-1.113369,0.944458,-3.068251,-1.929121,-3.645942,0.000000,0.002000,0.000000
450.000000,0.002000,-0.470308,-0.117791,1.373106,-0.037562,-1.072703,2.383296,1.094386,0.453220,-4.051146,nan,0.002000,0.000000
451.000000,0.002000,1.760960,-5.080960,-1.127906,-0.472865,-1.448464,1.024791,-0.192386,0.480918,0.095540,0.000000,0.002000,0.000000
452.000000,0.002000,-6.379635,2.754268,2.290826,-1.253118,1.223978,0.618315,0.329496,-0.127980,-0.112454,nan,0.002000,0.000000
453.000000,0.002000,4.391551,-1.507976,2.440942,0.502748,-0.271959,-0.239123,-0.490832,0.178814,-0.287319,0.000000,0.002000,0.000000
454.000000,0.002000,0.176037,-0.331525,-0.586379,-1.549797,-2.924546,-0.311315,-1.251952,1.938647,3.392406,nan,0.002000,0.000000
455.000000,0.002000,-0.200402,-2.639692,0.804047,-0.278015,1.225204,-0.805919,0.090742,1.599889,-0.502891,0.000000,0.002000,0.000000
456.000000,0.002000,0.056279,-0.655845,0.658592,1.331755,-0.031340,-0.377652,-0.068305,3.425871,-3.039591,nan,0.002000,0.000000
457.000000,0.002000,-1.050120,-2.676186,-0.289461,0.572797,1.123997,0.482622,0.497121,1.443221,0.171866,0.000000,0.002000,0.000000
458.000000,0.002000,-0.062519,-1.264479,0.366602,0.258312,0.294961,1.793383,0.158011,4.423247,-0.807209,nan,0.002000,0.000000
459.000000,0.002000,1.167759,-1.004779,0.012188,-0.781419,-0.072545,2.324920,-3.135881,2.729568,-0.077023,0.000000,0.002000,0.000000
460.000000,0.002000,-0.257986,0.328430,-0.050540,-1.511727,1.101855,-0.013411,0.507507,-2.259840,0.696461,nan,0.002000,0.000000
461.000000,0.002000,-0.555231,-0.248113,-0.906946,-3.010668,0.651561,0.872624,1.474734,0.940628,3.866376,0.000000,0.002000,0.000000
462.000000,0.002000,1.443514,-0.943801,-1.053193,-0.426231,-0.600521,-1.221949,-1.978976,1.357386,1.525396,nan,0.002000,0.000000
463.000000,0.002000,0.342184,0.525368,1.153291,0.584085,-2.027381,-0.653260,-1.545598,-1.377998,-3.883129,0.000000,0.002000,0.000000
464.000000,0.002000,-1.109192,0.285328,-0.290182,1.100791,1.735859,-1.324420,4.112976,-1.131732,1.391333,nan,0.002000,0.000000
465.000000,0.002000,0.322991,2.839953,1.154508,-0.029734,-0.186631,1.150509,-0.165138,-1.338660,-0.511663,0.000000,0.002000,0.000000
466.000000,0.002000,3.918175,-3.808196,-1.658616,0.434828,-0.568655,-0.983798,-0.375721,0.354397,0.150061,nan,0.002000,0.000000
467.000000,0.002000,-0.838652,-0.040504,-0.506610,2.083306,-0.277161,0.139725,4.483560,0.293392,2.223915,0.000000,0.002000,0.000000
468.000000,0.002000,-5.510283,2.097541,-2.004171,-1.701997,0.336923,-0.104315,0.410198,-0.182275,0.178307,nan,0.002000,0.000000
469.000000,0.002000,-0.311755,-0.171199,0.484836,1.224855,-1.280258,2.022742,1.814285,0.145767,-2.970383,0.000000,0.002000,0.000000
470.000000,0.002000,-5.342320,-1.924359,0.177864,-1.663840,0.192765,0.032800,0.438269,0.417211,0.063903,nan,0.002000,0.000000
471.000000,0.002000,1.654048,0.871578,-2.261444,-0.571126,-1.070981,0.681828,-0.858343,-0.434591,1.166678,0.000000,0.002000,0.000000
472.000000,0.002000,-2.391528,3.709023,-0.142978,-0.888968,0.497943,-1.001794,0.439299,-0.662605,0.047287,nan,0.002000,0.000000
473.000000,0.002000,-4.657747,2.647334,6.121454,-1.979070,-0.081979,1.203621,0.167209,-0.094444,-0.228072,0.000000,0.002000,0.000000
474.000000,0.002000,1.208621,0.672090,0.449990,-0.504868,-1.088712,2.080147,-3.756896,-1.752662,-1.199316,nan,0.002000,0.000000
475.000000,0.002000,-0.682998,-0.822794,-0.631150,-0.373795,2.198126,1.227016,2.557757,3.319760,2.549711,0.000000,0.002000,0.000000
476.000000,0.002000,1.109409,-4.611950,1.170000,0.377333,-0.092515,0.546205,-0.171991,0.615992,-0.157380,nan,0.002000,0.000000
477.000000,0.002000,0.466124,0.900979,1.161223,-1.398608,-0.335689,1.144892,-1.368745,-2.424043,-3.297596,0.000000,0.002000,0.000000
478.000000,0.002000,4.134333,6.578785,-2.764376,0.807254,1.721264,-0.714787,-0.146797,-0.231411,0.101628,nan,0.002000,0.000000
479.000000,0.002000,0.799133,-0.921497,-0.041865,0.496749,0.603398,2.522584,-3.625179,3.314631,1.291075,0.000000,0.002000,0.000000
480.000000,0.002000,-2.331572,-4.240113,-1.878578,-0.676997,-0.233959,0.273716,0.231747,0.511596,0.215640,nan,0.002000,0.000000
481.000000,0.002000,-2.193386,-2.079960,1.453208,1.104892,0.050093,0.413139,0.774239,0.761952,-0.531826,0.000000,0.002000,0.000000
482.000000,0.002000,0.276463,3.079260,-1.566261,0.292569,-0.242846,0.899189,-0.111941,-1.032516,0.520825,nan,0.002000,0.000000
483.000000,0.002000,8.251362,-2.700744,-2.705049,2.108790,-0.720523,-0.569587,-0.218017,0.072203,0.070623,0.000000,0.002000,0.000000
484.000000,0.002000,-0.315329,-0.847308,0.222332,1.140312,1.417278,0.945455,-0.021570,3.447490,-2.413864,nan,0.002000,0.000000
485.000000,0.002000,0.498341,0.652359,-0.410077,-0.513047,-0.476789,-0.411425,-2.733505,-3.196224,1.448684,0.000000,0.002000,0.000000
486.000000,0.002000,-1.921383,-2.568113,-1.233268,0.446441,0.306857,-1.159716,0.652899,0.854724,0.419343,nan,0.002000,0.000000
487.000000,0.002000,0.633111,5.333607,2.804116,-0.301724,0.744299,1.101022,-0.050766,-0.449207,-0.224130,0.000000,0.002000,0.000000
488.000000,0.002000,1.092934,-0.272398,4.006786,0.690071,-0.393156,0.379923,-0.232942,0.073756,-0.822722,nan,0.002000,0.000000
489.000000,0.002000,-0.333638,1.613885,-0.460685,-0.334445,-0.409676,-1.329930,0.705085,-3.558051,1.125076,0.000000,0.002000,0.000000
490.000000,0.002000,2.851764,-0.028641,1.270420,-0.314273,0.435309,-0.980794,-1.236340,0.040367,-0.548350,nan,0.002000,0.000000
491.000000,0.002000,0.977894,-0.175485,0.535309,0.314106,0.753681,1.194696,-4.089431,0.761973,-2.311537,0.000000,0.002000,0.000000
492.000000,0.002000,-0.730129,-0.295549,-0.545035,1.110624,1.057287,-0.109933,3.921661,1.919401,2.513753,nan,0.002000,0.000000
493.000000,0.002000,1.146012,0.222442,0.120441,2.312460,-0.193553,-1.862798,-4.781398,-0.499532,-0.308950,0.000000,0.002000,0.000000
494.000000,0.002000,0.067597,0.143314,-0.433886,-2.052285,1.033954,-0.884472,-0.775931,-0.460133,3.048520,nan,0.002000,0.000000
495.000000,0.002000,-0.387051,0.055111,0.060619,-1.716596,0.805863,2.030213,2.746894,0.722505,-1.225266,0.000000,0.002000,0.000000
496.000000,0.002000,4.489845,0.009421,-3.016233,0.537018,0.448546,-0.035942,-0.480181,0.007962,0.304227,nan,0.002000,0.000000
497.000000,0.002000,1.387873,-8.759665,-4.170979,-0.665280,-1.528281,-0.419904,-0.029156,0.185617,0.087355,0.000000,0.002000,0.000000
498.000000,0.002000,-0.410010,0.818004,-0.273684,-1.411251,-1.689624,1.485147,2.323347,-3.050055,1.622547,nan,0.002000,0.000000
499.000000,0.002000,-0.835176,-3.376727,3.127939,-0.688219,0.236249,0.014593,0.119413,0.514217,-0.482231,0.000000,0.002000,0.000000
500.000000,0.002000,0.582350,0.334154,1.145944,-0.418240,-1.719254,-0.122617,-2.616177,-0.875279,-3.941694,nan,0.002000,0.000000
501.000000,0.002000,0.010580,-0.095196,0.273507,1.749958,-0.050264,-1.593588,0.330099,0.799727,-2.122668,0.000000,0.002000,0.000000
502.000000,0.002000,1.022945,0.053039,0.116902,1.461168,2.234030,-1.886061,-5.069954,-0.491279,-0.310559,nan,0.002000,0.000000
503.000000,0.002000,0.105863,1.057749,0.349478,-0.220662,-0.815955,2.307513,-0.543647,-4.282302,-2.188232,0.000000,0.002000,0.000000
504.000000,0.002000,0.550944,-0.353049,0.780069,3.358258,0.567234,-0.211429,-2.616457,1.486663,-3.869202,nan,0.002000,0.000000
505.000000,0.002000,-0.902735,-1.074384,-0.027105,-1.445824,-2.112783,-0.692988,2.204706,3.037007,0.603025,0.000000,0.002000,0.000000
506.000000,0.002000,-0.271482,0.115135,0.125634,0.466865,3.534683,-0.168989,1.266492,-0.492452,-1.647047,nan,0.002000,0.000000
507.000000,0.002000,-0.759210,0.062481,0.596235,-2.353461,0.609416,-2.680426,3.771052,-0.264266,-3.151753,0.000000,0.002000,0.000000
508.000000,0.002000,2.811708,-2.648745,-1.352564,-0.197905,-0.068551,0.633728,-0.593260,0.567141,0.294932,nan,0.002000,0.000000
509.000000,0.002000,-0.448764,-0.260649,-0.770672,1.283433,2.672007,2.128659,1.518923,1.412836,3.973176,0.000000,0.002000,0.000000
510.000000,0.002000,-4.308565,2.843243,3.453952,-0.879089,0.313073,1.009623,0.310309,-0.220655,-0.288649,nan,0.002000,0.000000
511.000000,0.002000,4.967911,-4.219851,0.516104,0.835734,-0.158726,1.251098,-0.342727,0.299717,-0.017761,0.000000,0.002000,0.000000
512.000000,0.002000,0.789344,0.091367,0.496940,1.130192,-0.135387,-2.524127,-3.410419,-0.926960,-2.631939,nan,0.002000,0.000000
513.000000,0.002000,-1.462467,-0.101226,-5.728038,-1.009002,-0.191759,-1.317408,0.127593,-0.021801,0.534131,0.000000,0.002000,0.000000
514.000000,0.002000,1.179556,-0.201275,-0.499479,1.575414,-2.225892,-0.061873,-3.555952,0.212349,1.726596,nan,0.002000,0.000000
515.000000,0.002000,-2.056858,5.916582,3.474259,-0.331384,1.131322,0.818069,0.113546,-0.303434,-0.196718,0.000000,0.002000,0.000000
516.000000,0.002000,1.037082,-0.227661,0.441748,0.005913,-0.210426,0.740666,-4.099132,0.952246,-1.962564,nan,0.002000,0.000000
517.000000,0.002000,0.028987,0.046950,0.891247,-1.213555,2.072254,-0.595209,-0.037385,0.228816,-4.834790,0.000000,0.002000,0.000000
518.000000,0.002000,0.329942,1.025729,0.354051,-1.031491,-0.406591,1.587073,-1.556258,-4.361250,-1.404077,nan,0.002000,0.000000
519.000000,0.002000,0.312374,-1.520928,0.309945,0.459665,-0.864203,0.354524,-0.818696,3.568268,-0.578355,0.000000,0.002000,0.000000
520.000000,0.002000,-0.408538,-0.504540,-0.091365,1.993492,-1.749500,1.045045,1.713359,2.877420,1.407653,nan,0.002000,0.000000
521.000000,0.002000,-0.236711,1.744543,0.744183,-1.370862,-0.781230,0.586735,0.623039,-2.974493,-1.100726,0.000000,0.002000,0.000000
522.000000,0.002000,0.789964,-0.339315,-0.081160,1.192746,1.752911,1.141419,-4.141209,1.070034,0.482841,nan,0.002000,0.000000
523.000000,0.002000,0.853409,-0.460222,0.018751,1.021105,-0.179589,2.343102,-4.204168,2.132874,-0.236227,0.000000,0.002000,0.000000
524.000000,0.002000,3.190455,3.879915,-0.419737,0.620595,0.752944,-0.138243,-0.412911,-0.480393,0.060317,nan,0.002000,0.000000
525.000000,0.002000,1.362020,1.294979,0.132675,-1.851223,-1.506103,0.472514,-2.415192,-2.377913,0.001823,0.000000,0.002000,0.000000
526.000000,0.002000,-0.997842,-1.219950,-0.106773,0.757477,-0.181805,1.176014,2.553321,3.022764,0.350916,nan,0.002000,0.000000
527.000000,0.002000,0.124562,-0.257949,-1.314289,-0.929030,-0.534475,-0.458414,-0.797987,0.985764,3.680590,0.000000,0.002000,0.000000
528.000000,0.002000,3.526090,-1.571408,1.390221,0.423528,0.195019,-1.160789,-0.761771,0.307326,-0.304148,nan,0.002000,0.000000
529.000000,0.002000,0.356314,0.667059,-1.085917,-1.163434,0.857941,0.008402,-1.262840,-2.215455,4.031397,0.000000,0.002000,0.000000
530.000000,0.002000,-0.623865,-6.318593,-2.701518,0.515411,-1.674890,-0.643633,0.030150,0.358574,0.163898,nan,0.002000,0.000000
531.000000,0.002000,1.020895,-0.036163,2.993311,-0.934240,-0.006887,-0.705663,-0.421675,0.031615,-1.264831,0.000000,0.002000,0.000000
532.000000,0.002000,1.855020,1.373653,1.520072,1.189632,-0.799869,-0.901257,-1.184745,-0.887428,-0.930893,nan,0.002000,0.000000
533.000000,0.002000,0.702500,1.774334,-2.398096,-1.442871,0.217667,0.365240,-0.313051,-0.821346,1.223097,0.000000,0.002000,0.000000
534.000000,0.002000,-0.510804,0.527199,0.246791,0.960469,0.001298,1.686194,2.619487,-3.277043,-2.482951,nan,0.002000,0.000000
535.000000,0.002000,3.654271,3.326785,4.662977,0.676333,0.577795,0.797381,-0.255971,-0.148349,-0.351118,0.000000,0.002000,0.000000
536.000000,0.002000,-2.566446,-4.386513,-0.786044,-0.132634,-0.141379,-0.065438,0.304559,0.538978,0.093814,nan,0.002000,0.000000
537.000000,0.002000,-0.507596,-0.761124,-0.174464,-1.302066,0.586414,-3.195308,2.304604,3.447492,1.008956,0.000000,0.002000,0.000000
538.000000,0.002000,-2.143203,3.085266,0.762108,-0.604079,1.298126,0.114390,0.537949,-0.777951,-0.204154,nan,0.002000,0.000000
539.000000,0.002000,-0.830878,0.565156,4.107447,-0.749036,-0.400730,0.614770,0.107047,0.036788,-0.902403,0.000000,0.002000,0.000000
540.000000,0.002000,-0.491552,-0.221276,-0.064490,0.831790,-3.357569,0.352508,2.724283,1.539998,-0.011941,nan,0.002000,0.000000
541.000000,0.002000,0.228580,2.010491,2.362298,-0.340649,-0.890893,-0.749639,-0.089531,-0.888619,-1.093233,0.000000,0.002000,0.000000
542.000000,0.002000,-0.721621,0.033251,0.855116,-2.130022,-0.088652,-2.344189,2.017771,0.007867,-3.597849,nan,0.002000,0.000000
543.000000,0.002000,0.786916,-0.075002,1.371227,0.255972,0.660246,-0.152527,-1.656494,0.237387,-3.653948,0.000000,0.002000,0.000000
544.000000,0.002000,0.117003,-0.543218,0.602935,1.480885,1.375203,-1.465006,-1.232847,2.290442,-3.476383,nan,0.002000,0.000000
545.000000,0.002000,1.426013,-4.087580,-0.452770,0.386257,-0.258947,-0.318897,-0.287178,0.746079,0.083908,0.000000,0.002000,0.000000
546.000000,0.002000,-0.480279,-0.306770,0.537088,-2.104393,0.375756,0.428220,2.430791,1.469810,-3.027063,nan,0.002000,0.000000
547.000000,0.002000,0.385921,1.036130,-0.868432,-0.458207,-0.377225,-0.141543,-1.424330,-3.231057,2.724917,0.000000,0.002000,0.000000
548.000000,0.002000,-2.006220,3.186949,3.281466,0.216808,0.221047,0.165012,0.251739,-0.423328,-0.425863,nan,0.002000,0.000000
549.000000,0.002000,-4.041843,1.922820,-0.641179,0.082418,1.106402,-0.708973,0.680590,-0.341115,0.116450,0.000000,0.002000,0.000000
550.000000,0.002000,0.039747,-1.676292,-0.307460,-0.560888,1.145943,-0.994082,-0.099442,3.714173,0.567237,nan,0.002000,0.000000
551.000000,0.002000,3.828500,2.996244,2.490596,1.259316,0.583651,-0.150465,-0.401512,-0.328904,-0.269764,0.000000,0.002000,0.000000
552.000000,0.002000,-0.349641,0.610120,0.872285,-1.252040,0.621860,-2.336586,0.716733,-2.805112,-3.861454,nan,0.002000,0.000000
553.000000,0.002000,2.635319,-1.886891,-5.071205,0.877911,-0.663536,-0.502843,-0.215408,0.149658,0.429213,0.000000,0.002000,0.000000
554.000000,0.002000,0.347230,0.075057,0.073224,-1.314932,-0.929933,-0.893907,-2.631269,-0.169781,-0.449112,nan,0.002000,0.000000
555.000000,0.002000,0.492188,-1.344713,-0.435754,0.432184,1.855760,0.261240,-1.237355,3.534136,1.519121,0.000000,0.002000,0.000000
556.000000,0.002000,-0.287758,-0.767346,1.410302,0.748412,-0.340107,-0.512648,0.479157,1.782973,-3.249737,nan,0.002000,0.000000
557.000000,0.002000,-0.521017,-0.003823,0.738287,-1.858439,-0.214872,-2.313653,2.336245,0.220268,-3.739575,0.000000,0.002000,0.000000
558.000000,0.002000,2.157787,1.605399,4.123210,0.532396,-0.661088,0.469653,-0.291077,-0.200043,-0.539914,nan,0.002000,0.000000
559.000000,0.002000,0.460518,1.753689,-2.219647,1.566325,0.878326,0.402470,-0.256983,-0.885572,1.181242,0.000000,0.002000,0.000000
560.000000,0.002000,0.496372,2.529899,-3.741198,0.161033,1.320811,0.190196,-0.139055,-0.308251,0.607730,nan,0.002000,0.000000
561.000000,0.002000,0.390297,0.575395,-0.737025,0.395560,2.694464,0.223092,-2.144104,-2.343075,3.085553,0.000000,0.002000,0.000000
562.000000,0.002000,-2.746694,2.062089,0.104415,0.207842,2.084019,0.039631,0.915742,-0.687849,-0.022834,nan,0.002000,0.000000
563.000000,0.002000,3.576995,-2.212222,-2.250393,0.335006,-0.366352,0.371098,-0.555070,0.268481,0.305712,0.000000,0.002000,0.000000
564.000000,0.002000,3.781676,-2.763849,1.062677,-0.352868,-0.667517,0.497416,-0.279222,0.246622,-0.252361,nan,0.002000,0.000000
565.000000,0.002000,-2.249154,2.068062,1.133583,-0.082645,1.428127,0.690744,0.887132,-0.815095,-0.447297,0.000000,0.002000,0.000000
566.000000,0.002000,-0.556960,-0.709862,1.297933,-1.346813,-0.106725,1.327678,1.649956,2.110880,-2.856065,nan,0.002000,0.000000
567.000000,0.002000,4.465775,-1.654096,4.020879,0.975064,-0.193104,0.414893,-0.315522,0.128374,-0.309928,0.000000,0.002000,0.000000
568.000000,0.002000,-0.258068,0.031849,-0.089432,0.261089,2.003979,-1.963241,-1.681717,3.561333,-4.027099,nan,0.002000,0.000000
569.000000,0.002000,-0.790519,1.574391,-0.141210,0.326474,-1.002909,2.383761,1.817473,-3.385958,0.175090,0.000000,0.002000,0.000000
570.000000,0.002000,1.348292,-3.118158,2.805980,0.242410,0.972831,-0.498165,-0.223696,0.586021,-0.574756,nan,0.002000,0.000000
571.000000,0.002000,-0.548302,0.607896,1.287501,-0.730183,-1.798575,0.069405,1.443744,-1.676691,-3.561115,0.000000,0.002000,0.000000
572.000000,0.002000,5.139386,-1.385169,0.667932,0.654952,-0.586863,-0.286712,-0.554684,0.146183,-0.064540,nan,0.002000,0.000000
573.000000,0.002000,-0.091137,0.163597,-0.126101,-0.794053,-2.375719,1.149045,-0.402398,-1.056629,1.006499,0.000000,0.002000,0.000000
574.000000,0.002000,0.214587,-0.718332,-1.242301,-2.607158,0.886980,0.850251,-0.329909,1.654689,3.944203,nan,0.002000,0.000000
575.000000,0.002000,-1.586948,5.602518,1.361524,0.060351,1.332019,0.208009,0.169406,-0.464053,-0.137888,0.000000,0.002000,0.000000
576.000000,0.002000,-1.052244,-1.078743,0.463480,-0.696204,1.321824,-0.657379,2.743456,2.600187,-1.038094,nan,0.002000,0.000000
577.000000,0.002000,-0.762074,0.278277,-0.264964,0.420259,-0.889802,-2.681339,3.805398,-1.718027,2.212423,0.000000,0.002000,0.000000
578.000000,0.002000,0.638197,0.776138,-1.496756,-1.689725,-2.588233,0.228780,-1.303301,-1.272125,2.796089,nan,0.002000,0.000000
579.000000,0.002000,-0.042341,-3.684172,3.107455,-0.070107,0.242988,0.313590,0.002151,0.518417,-0.440370,0.000000,0.002000,0.000000
580.000000,0.002000,1.195247,-1.277760,-0.250553,0.555153,0.082070,1.161186,-2.491692,2.631326,0.372015,nan,0.002000,0.000000
581.000000,0.002000,1.054334,-0.643748,-0.662144,-0.189685,-2.322358,0.259671,-3.037554,2.099003,2.120563,0.000000,0.002000,0.000000
582.000000,0.002000,2.887271,1.724429,6.646899,0.434081,0.629628,1.583729,-0.137444,-0.075286,-0.311624,nan,0.002000,0.000000
583.000000,0.002000,1.822073,3.315069,2.724031,1.020474,0.640798,-1.351196,-0.276879,-0.503260,-0.433660,0.000000,0.002000,0.000000
584.000000,0.002000,-0.717687,1.056887,-0.832528,-0.311438,0.439438,1.491609,1.977114,-2.961510,2.351212,nan,0.002000,0.000000
585.000000,0.002000,-3.090001,-0.912581,1.618896,0.905889,-0.316727,0.181187,0.999651,0.335935,-0.396017,0.000000,0.002000,0.000000
586.000000,0.002000,0.933705,0.105652,-0.746948,0.006235,-0.378108,0.700225,-3.731708,-0.214009,2.768278,nan,0.002000,0.000000
587.000000,0.002000,0.934812,4.045395,-2.790606,0.509777,0.065439,-0.038269,-0.132921,-0.509326,0.381494,0.000000,0.002000,0.000000
588.000000,0.002000,0.553740,-1.562351,0.585572,0.823119,-1.131423,1.152774,-1.540902,3.121207,-1.104247,nan,0.002000,0.000000
589.000000,0.002000,0.282963,1.279727,1.446124,-1.025736,0.550579,-2.078022,-0.597136,-1.935693,-2.246700,0.000000,0.002000,0.000000
590.000000,0.002000,2.833610,4.703203,0.720683,0.597492,0.347668,0.733094,-0.303432,-0.474575,-0.065304,nan,0.002000,0.000000
591.000000,0.002000,0.557347,-0.089359,-0.322038,-1.927148,-1.752317,0.330640,-3.926155,1.224956,2.279252,0.000000,0.002000,0.000000
592.000000,0.002000,-1.128555,-0.651237,-0.542097,0.017375,-0.438182,0.260986,3.545088,2.071188,1.632895,nan,0.002000,0.000000
593.000000,0.002000,-4.954742,2.023490,4.237073,-1.001196,0.644212,0.813317,0.312152,-0.080235,-0.224862,0.000000,0.002000,0.000000
594.000000,0.002000,-1.954410,-4.541663,1.043913,-0.148731,-0.457397,0.986414,0.249788,0.586427,-0.130220,nan,0.002000,0.000000
595.000000,0.002000,0.224070,1.439828,0.454882,-1.461353,1.263350,-0.068500,-0.587647,-4.096449,-1.382681,0.000000,0.002000,0.000000
596.000000,0.002000,-4.767328,4.943108,-0.315400,-0.964129,0.630881,0.123413,0.291139,-0.288426,0.023135,nan,0.002000,0.000000
597.000000,0.002000,-2.280966,-1.951630,-1.470929,1.011568,-0.748707,0.410381,0.792102,0.617646,0.394150,0.000000,0.002000,0.000000
598.000000,0.002000,-0.742304,0.267316,-0.820094,-0.572357,-1.827023,-1.742673,3.345898,-1.416088,3.371260,nan,0.002000,0.000000
599.000000,0.002000,-2.018243,-1.259815,0.005842,0.786040,0.952342,1.342000,1.833990,1.141855,0.076249,0.000000,0.002000,0.000000
600.000000,0.002000,0.265604,-0.199220,0.310195,1.906573,3.309527,1.070297,-1.862200,1.053889,-1.420705,nan,0.002000,0.000000
601.000000,0.002000,-0.836868,0.979424,-0.298298,-0.260764,-0.557270,-2.826371,2.824832,-3.331500,0.915578,0.000000,0.002000,0.000000
602.000000,0.002000,-1.353190,1.045509,0.127347,-0.681138,1.036915,-0.700343,3.174134,-1.976465,-0.235099,nan,0.002000,0.000000
603.000000,0.002000,-0.679573,-3.772325,-3.271575,-0.997205,-0.483560,-0.564711,0.035937,0.496925,0.466053,0.000000,0.002000,0.000000
604.000000,0.002000,0.709854,1.068875,0.044909,0.053564,-1.444105,-0.218550,-3.166134,-3.735850,-0.433543,nan,0.002000,0.000000
605.000000,0.002000,0.453342,0.728605,0.824466,2.404348,0.422045,0.510965,-1.781076,-2.339153,-3.227540,0.000000,0.002000,0.000000
606.000000,0.002000,5.053442,-1.186920,-1.489224,1.524364,0.432760,-0.804269,-0.522613,0.107914,0.157130,nan,0.002000,0.000000
607.000000,0.002000,0.832560,0.242519,0.877345,-0.838507,-1.370228,2.456329,-3.225195,-0.782723,-3.005915,0.000000,0.002000,0.000000
608.000000,0.002000,-0.441524,1.051899,-0.283968,-0.214657,0.993136,0.994656,1.937566,-4.262146,1.202646,nan,0.002000,0.000000
609.000000,0.002000,3.918280,3.153429,1.671073,0.786625,0.417017,0.530496,-0.537059,-0.344146,-0.196254,0.000000,0.002000,0.000000
610.000000,0.002000,-0.526272,-0.278137,-0.170122,1.081343,2.519203,0.531537,8.511512,-0.811947,3.597450,nan,0.002000,0.000000
611.000000,0.002000,-0.035540,-0.417505,0.650057,-0.301100,-0.835720,-2.224653,0.058944,1.998138,-3.617938,0.000000,0.002000,0.000000
612.000000,0.002000,-0.657671,0.169116,-0.570766,-0.988014,0.564957,0.087057,3.450363,-1.212073,2.911454,nan,0.002000,0.000000
613.000000,0.002000,-0.604240,0.651527,-1.195894,0.299111,0.489114,-0.838188,1.684554,-1.826197,3.779153,0.000000,0.002000,0.000000
614.000000,0.002000,0.411411,-0.446243,-1.249958,-0.786546,-0.296778,-1.482418,-1.525552,0.462222,3.101389,nan,0.002000,0.000000
615.000000,0.002000,0.317500,1.283959,0.422881,0.332564,-2.046376,0.633316,-1.210204,-4.159532,-1.199071,0.000000,0.002000,0.000000
616.000000,0.002000,-1.112186,0.024960,0.592845,-1.082186,-0.270921,-1.968974,3.610147,-0.980705,-2.185475,nan,0.002000,0.000000
617.000000,0.002000,-1.041833,-0.719780,-1.095546,-0.073751,0.717322,-0.318930,2.347611,1.712599,2.512766,0.000000,0.002000,0.000000
618.000000,0.002000,-0.561988,0.769054,-0.115586,-0.472597,-0.678542,-1.294478,2.976194,-3.634377,1.216975,nan,0.002000,0.000000
619.000000,0.002000,0.925102,1.579919,-5.664412,0.267222,0.246201,-0.937627,-0.078547,-0.136422,0.486192,0.000000,0.002000,0.000000
620.000000,0.002000,-0.438533,0.421047,0.032258,-1.870181,-2.041750,-1.996172,3.533629,-2.341753,-0.651137,nan,0.002000,0.000000
621.000000,0.002000,0.771797,1.500515,0.105948,-0.530746,1.254395,-1.140965,-1.742027,-3.222640,-0.273637,0.000000,0.002000,0.000000
622.000000,0.002000,1.379626,-0.932202,0.100767,-0.129164,-0.953257,1.958938,-3.201494,2.151727,-0.170552,nan,0.002000,0.000000
623.000000,0.002000,0.393694,-0.680372,-0.045900,-0.727264,0.725703,-0.323585,-2.056406,4.216892,0.007739,0.000000,0.002000,0.000000
624.000000,0.002000,-0.898764,0.676471,-0.143944,-0.939096,-0.988518,0.385725,3.921265,-2.853552,0.649353,nan,0.002000,0.000000
625.000000,0.002000,1.636247,5.885281,1.820368,0.207833,1.130123,0.640240,-0.109923,-0.413521,-0.141212,0.000000,0.002000,0.000000
626.000000,0.002000,1.459574,0.328469,0.656779,0.642878,1.361342,-0.977174,-3.583367,-0.699242,-1.515076,nan,0.002000,0.000000
627.000000,0.002000,0.080258,0.838668,-0.981870,1.030226,0.470551,1.348264,-0.152267,-3.001649,3.685263,0.000000,0.002000,0.000000
628.000000,0.002000,0.325500,0.314156,-1.448766,1.170391,-1.994594,0.557308,-0.700275,-0.672373,3.757194,nan,0.002000,0.000000
629.000000,0.002000,-0.974049,0.347559,0.951641,1.597955,-0.591978,2.337567,3.269492,-1.382550,-2.918910,0.000000,0.002000,0.000000
630.000000,0.002000,-1.245155,-0.041994,0.446541,-1.408689,-0.135386,1.895963,4.377621,0.379440,-1.359111,nan,0.002000,0.000000
631.000000,0.002000,4.259388,-0.429780,1.371182,-0.193018,0.459331,-0.001170,-0.658456,0.089898,-0.204650,0.000000,0.002000,0.000000
632.000000,0.002000,-0.443443,0.111402,0.210804,1.221662,2.899007,-1.053803,2.066686,-0.784405,-2.324642,nan,0.002000,0.000000
633.000000,0.002000,1.400403,3.997344,-4.691290,0.799797,0.463829,-1.005453,-0.089164,-0.297537,0.345081,0.000000,0.002000,0.000000
634.000000,0.002000,-1.322771,0.320262,-0.180235,0.768000,-1.020046,1.897185,4.138727,-1.027759,0.962964,nan,0.002000,0.000000
635.000000,0.002000,0.666196,0.941818,0.990380,0.444626,-0.277438,1.158038,-2.146206,-2.414997,-2.945921,0.000000,0.002000,0.000000
636.000000,0.002000,-0.266599,-1.061630,0.545416,0.597980,0.387150,-0.850127,0.829859,4.161235,-1.973403,nan,0.002000,0.000000
637.000000,0.002000,3.008392,3.215582,-1.974816,0.124467,0.236292,0.248489,-0.465428,-0.400423,0.312958,0.000000,0.002000,0.000000
638.000000,0.002000,5.273792,0.233248,2.036781,0.350371,0.065956,0.284505,-0.490139,-0.005519,-0.181890,nan,0.002000,0.000000
639.000000,0.002000,0.566187,0.022448,0.324608,-2.250300,0.869516,3.213795,-2.932077,0.040780,-1.259236,0.000000,0.002000,0.000000
640.000000,0.002000,0.156084,-0.066414,-0.135795,3.454023,0.308775,0.914977,-1.585210,0.529941,0.945232,nan,0.002000,0.000000
641.000000,0.002000,-0.489204,0.738800,0.429811,-1.363584,-0.336049,-2.766030,2.708754,-2.427785,-3.307950,0.000000,0.002000,0.000000
642.000000,0.002000,0.050200,-0.145053,0.242233,0.352124,0.661321,2.991960,-0.820427,0.482525,-1.961587,nan,0.002000,0.000000
643.000000,0.002000,-4.342624,0.666587,0.632433,-0.074036,0.989068,0.548462,0.744223,-0.152717,-0.125765,0.000000,0.002000,0.000000
644.000000,0.002000,0.568090,0.495250,-0.647481,-2.102672,2.269522,1.813074,-2.866808,-2.083192,3.489084,nan,0.002000,0.000000
645.000000,0.002000,-0.448386,0.717250,0.687568,0.518418,1.403321,-0.062291,1.777496,-3.228465,-2.892447,0.000000,0.002000,0.000000
646.000000,0.002000,-2.236603,2.266051,4.798178,-0.031987,0.297911,0.571519,0.198344,-0.211337,-0.465416,nan,0.002000,0.000000
647.000000,0.002000,1.599694,-1.905263,-0.772909,-0.391561,0.540820,1.532795,-1.106066,1.387389,0.570813,0.000000,0.002000,0.000000
648.000000,0.002000,0.753045,-1.091779,0.204234,-2.735421,0.725789,0.287934,-2.153720,3.475826,-0.845795,nan,0.002000,0.000000
649.000000,0.002000,0.021772,0.253460,0.213333,-0.267868,-1.799478,-0.231428,-0.714633,-1.491735,-1.562267,0.000000,0.002000,0.000000
650.000000,0.002000,-3.384300,-3.726479,1.114311,-0.155267,-1.661623,-0.064838,0.419470,0.433959,-0.137001,nan,0.002000,0.000000
651.000000,0.002000,-4.174946,3.137574,4.298531,-1.339037,0.690324,0.530637,0.251134,-0.193191,-0.278226,0.000000,0.002000,0.000000
652.000000,0.002000,0.454998,0.774767,0.106766,-2.122559,0.008153,2.247926,-3.492877,-3.387374,-0.508313,nan,0.002000,0.000000
653.000000,0.002000,-2.580381,5.819187,1.068026,-0.568011,1.248604,0.620919,0.192717,-0.401606,-0.074217,0.000000,0.002000,0.000000
654.000000,0.002000,1.020232,-0.657516,-0.229992,0.625792,-1.420893,-2.633688,-3.852255,2.843722,0.430282,nan,0.002000,0.000000
655.000000,0.002000,2.766999,1.330693,1.730605,-0.761009,1.187580,0.360519,-0.909607,-0.423876,-0.537481,0.000000,0.002000,0.000000
656.000000,0.002000,-1.540939,0.154752,-1.157669,0.740520,0.037483,-0.560665,2.538060,-0.245551,1.981205,nan,0.002000,0.000000
657.000000,0.002000,0.752622,-0.321156,0.596934,-1.680358,0.117023,1.875064,-3.485507,1.013279,-2.657427,0.000000,0.002000,0.000000
658.000000,0.002000,0.844896,-0.001520,-0.147452,-1.871869,0.152126,0.805631,-4.318064,0.204168,0.725088,nan,0.002000,0.000000
659.000000,0.002000,0.069743,0.664451,1.669357,0.921859,0.091228,-2.189256,0.435346,-0.717886,-2.478780,0.000000,0.002000,0.000000
660.000000,0.002000,1.169871,0.704147,0.151065,0.946299,-0.976040,-1.289115,-3.794234,-1.984179,-0.047305,nan,0.002000,0.000000
661.000000,0.002000,1.249196,1.047008,0.881881,1.674680,-0.125111,0.336642,-2.297550,-1.762299,-1.522161,0.000000,0.002000,0.000000
662.000000,0.002000,-4.378186,0.458469,0.550481,-0.313269,-0.206226,-0.872757,0.760390,-0.051137,-0.082292,nan,0.002000,0.000000
663.000000,0.002000,-1.331514,-0.233246,-0.606420,-2.529278,-0.349513,0.505331,5.307931,1.541478,1.755545,0.000000,0.002000,0.000000
664.000000,0.002000,0.828517,-0.465181,-0.729772,-0.310567,1.691719,-0.095065,-3.242968,1.601122,2.907693,nan,0.002000,0.000000
665.000000,0.002000,-0.418826,0.795482,0.075031,2.322636,1.374965,0.972112,2.050286,-3.904273,-0.030698,0.000000,0.002000,0.000000
666.000000,0.002000,0.352026,0.085504,-1.304479,-0.549454,-1.539989,1.704229,-1.077014,0.135351,4.123271,nan,0.002000,0.000000
667.000000,0.002000,0.137530,0.920847,-0.492857,0.671218,-1.097458,2.541392,-0.616869,-3.827005,2.527732,0.000000,0.002000,0.000000
668.000000,0.002000,-0.515215,-0.321836,-0.750082,0.030644,-2.067403,-2.737563,1.902879,1.905272,4.065687,nan,0.002000,0.000000
669.000000,0.002000,-0.705229,1.291470,1.153862,1.046282,0.487883,0.929945,1.270018,-2.324086,-1.983733,0.000000,0.002000,0.000000
670.000000,0.002000,-0.405182,-0.054379,0.505494,0.010522,2.550376,0.083275,2.184002,0.282506,-3.101901,nan,0.002000,0.000000
671.000000,0.002000,0.531331,0.308877,0.804923,0.677590,2.823295,1.640230,-3.237673,-1.047899,-3.429205,0.000000,0.002000,0.000000
672.000000,0.002000,0.347605,0.333815,-0.315705,1.749443,0.940432,-0.792549,2.067662,3.271254,4.291379,nan,0.002000,0.000000
673.000000,0.002000,1.949005,-4.011177,1.817118,-0.625183,0.242364,1.609681,-0.257370,0.575711,-0.247472,0.000000,0.002000,0.000000
674.000000,0.002000,1.287668,4.953768,3.004209,0.551900,0.836424,1.071139,-0.121047,-0.428639,-0.256742,nan,0.002000,0.000000
675.000000,0.002000,3.311009,2.821352,1.703608,-0.136924,0.819639,-0.093537,-0.500490,-0.422828,-0.261976,0.000000,0.002000,0.000000
676.000000,0.002000,0.136026,0.180513,0.212597,-2.293209,-1.264048,1.075782,-1.262653,-0.912548,-1.729054,nan,0.002000,0.000000
677.000000,0.002000,0.891127,0.218476,0.053444,1.835667,0.044705,2.008190,-3.768575,-0.802909,-0.825295,0.000000,0.002000,0.000000
678.000000,0.002000,0.191321,-0.881976,0.212622,0.361365,1.375601,1.944043,-1.138311,4.437501,-0.974628,nan,0.002000,0.000000
679.000000,0.002000,-5.386264,1.572141,2.851287,-0.811866,0.608046,0.574080,0.409357,-0.109490,-0.222308,0.000000,0.002000,0.000000
680.000000,0.002000,-3.650739,-4.486408,0.571812,-0.775165,-1.190850,0.403715,0.353718,0.410665,-0.057279,nan,0.002000,0.000000
681.000000,0.002000,-0.617753,1.125524,-1.049116,-0.067926,1.914054,-1.249883,2.473610,-3.608054,0.760784,0.000000,0.002000,0.000000
682.000000,0.002000,-0.401899,0.716295,0.052920,1.180526,-1.584595,0.217776,2.182295,-3.612652,-0.425949,nan,0.002000,0.000000
683.000000,0.002000,-0.475435,-2.337934,3.411470,-0.419366,-0.781812,1.071608,0.103533,0.456105,-0.694657,0.000000,0.002000,0.000000
684.000000,0.002000,-2.124386,3.587620,-0.830219,0.181088,-0.428930,0.110973,0.390781,-0.702762,0.169113,nan,0.002000,0.000000
685.000000,0.002000,1.022163,0.473314,0.205580,-0.914439,1.937953,0.177138,-4.122421,-1.807709,-1.242142,0.000000,0.002000,0.000000
686.000000,0.002000,0.209230,-0.474442,-0.138707,0.284851,-0.477825,-2.671810,-1.397417,1.758356,1.370624,nan,0.002000,0.000000
687.000000,0.002000,-0.800095,-6.702569,-2.452487,-0.098635,-1.329471,0.053922,0.041550,0.357024,0.132843,0.000000,0.002000,0.000000
688.000000,0.002000,0.593581,1.058594,0.411934,0.917344,0.871758,2.791742,-2.008443,-3.328839,-1.761129,nan,0.002000,0.000000
689.000000,0.002000,0.928494,5.222938,3.398332,-0.164927,1.072475,0.423699,-0.052913,-0.403241,-0.260570,0.000000,0.002000,0.000000
690.000000,0.002000,-1.179456,-1.974834,-5.981158,0.103115,-0.530702,-1.150563,0.115714,0.182612,0.393195,nan,0.002000,0.000000
691.000000,0.002000,-5.329230,-3.702526,0.509967,-0.733622,-0.734695,0.262645,0.355088,0.260500,-0.044404,0.000000,0.002000,0.000000
692.000000,0.002000,-0.271877,0.589836,-0.532277,0.293300,0.293039,2.305490,1.528299,-3.067980,2.419133,nan,0.002000,0.000000
693.000000,0.002000,-0.650872,-1.203270,-0.418263,-0.735739,-1.168725,1.245372,1.922830,3.586366,1.335586,0.000000,0.002000,0.000000
694.000000,0.002000,-0.443980,-1.813111,0.333642,-1.139170,-0.116600,-0.545479,0.810992,3.701879,-0.346848,nan,0.002000,0.000000
695.000000,0.002000,-2.801402,0.056260,0.544912,0.892964,-1.263475,-0.058706,1.590916,0.006457,-0.277320,0.000000,0.002000,0.000000
696.000000,0.002000,6.021678,0.918279,-2.664529,1.315518,0.056306,-0.415093,-0.390757,-0.058430,0.167748,nan,0.002000,0.000000
697.000000,0.002000,0.106900,4.151014,-1.014795,0.742551,1.496925,0.133769,-0.011149,-0.789713,0.215748,0.000000,0.002000,0.000000
698.000000,0.002000,0.041088,0.177832,-0.780128,0.010001,0.386477,-0.594882,-0.239784,-0.991272,4.599622,nan,0.002000,0.000000
699.000000,0.002000,-0.064216,-0.751239,0.083800,-0.704654,3.046726,-0.313916,0.616794,3.993817,-0.495391,0.000000,0.002000,0.000000
700.000000,0.002000,1.187149,0.706382,0.544185,1.233696,-0.879349,-2.272335,-3.447235,-2.005125,-1.867721,nan,0.002000,0.000000
701.000000,0.002000,0.378203,0.112524,0.702318,0.685491,-1.573633,-0.351656,-1.681976,-0.649767,-3.813160,0.000000,0.002000,0.000000
702.000000,0.002000,-4.026537,1.442662,-2.039539,-0.461358,0.619517,0.625886,0.578128,-0.229236,0.304396,nan,0.002000,0.000000
703.000000,0.002000,-0.729243,-0.490992,1.065703,-2.589171,0.291476,0.738228,2.581373,1.604121,-3.108169,0.000000,0.002000,0.000000
704.000000,0.002000,5.104333,-0.679318,-3.363041,0.917793,0.322271,-0.347289,-0.353676,0.149885,0.283214,nan,0.002000,0.000000
705.000000,0.002000,1.644908,0.268650,8.188063,0.514046,-0.182554,2.139316,-0.056909,-0.005381,-0.276735,0.000000,0.002000,0.000000
706.000000,0.002000,-2.552533,0.098805,-4.850683,-0.661153,-0.004421,-0.223752,0.277007,-0.013611,0.494460,nan,0.002000,0.000000
707.000000,0.002000,4.363680,-0.158626,2.386328,0.042799,0.200883,0.764383,-0.557569,0.023110,-0.320065,0.000000,0.002000,0.000000
708.000000,0.002000,-0.998157,-1.174375,0.548913,0.963018,0.816597,1.049601,2.655985,3.027934,-0.419686,nan,0.002000,0.000000
709.000000,0.002000,0.140988,0.731175,0.360833,-2.170289,-0.665370,-1.417694,-2.112286,-6.080052,0.045239,0.000000,0.002000,0.000000
710.000000,0.002000,-0.288625,1.243733,-0.630093,0.063009,1.302746,0.731664,0.720926,-3.768792,2.124676,nan,0.002000,0.000000
711.000000,0.002000,-3.635367,1.102199,-1.698542,-1.529907,0.029219,0.851168,0.741757,-0.233092,0.344990,0.000000,0.002000,0.000000
712.000000,0.002000,-0.440153,0.309917,-0.335960,-1.338287,1.413106,-0.664904,1.735769,-1.595362,2.259273,nan,0.002000,0.000000
713.000000,0.002000,-0.368281,1.838332,-1.376583,1.482157,-0.766601,0.905368,0.375432,-1.818409,1.386963,0.000000,0.002000,0.000000
714.000000,0.002000,1.027037,0.935989,-1.211911,-0.085127,0.849955,0.846493,-2.109624,-1.673752,2.446472,nan,0.002000,0.000000
715.000000,0.002000,-1.776543,-3.623062,6.287271,-0.674879,-1.154364,1.249820,0.078159,0.172533,-0.297515,0.000000,0.002000,0.000000
716.000000,0.002000,1.270104,-4.036057,-3.379330,-0.270335,-0.493825,-0.171106,-0.131527,0.434578,0.331330,nan,0.002000,0.000000
717.000000,0.002000,-3.303961,-0.812369,2.444266,0.144935,-0.350472,-0.518509,0.660220,0.178878,-0.501201,0.000000,0.002000,0.000000
718.000000,0.002000,2.677342,3.136126,1.300943,1.009681,0.305868,0.974144,-0.493255,-0.665613,-0.255756,nan,0.002000,0.000000
719.000000,0.002000,-3.481879,-1.954021,-0.826449,0.525853,-0.631853,-0.497685,0.699339,0.429106,0.192791,0.000000,0.002000,0.000000
720.000000,0.002000,5.448017,1.998110,-0.453849,0.752183,0.102482,-0.502000,-0.490942,-0.192048,0.060617,nan,0.002000,0.000000
721.000000,0.002000,0.019720,-0.819762,0.023898,-1.629525,1.120963,-1.323506,-0.660183,4.297864,0.216430,0.000000,0.002000,0.000000
722.000000,0.002000,1.146045,-0.220190,0.318313,-2.283312,0.261880,0.293198,-4.542050,0.725272,-0.984431,nan,0.002000,0.000000
723.000000,0.002000,-0.983988,0.519466,-0.114780,-1.960037,-1.056185,-0.691203,4.000737,-2.341941,0.384957,0.000000,0.002000,0.000000
724.000000,0.002000,3.795045,-0.494552,-4.157134,1.552618,-0.057203,-0.547950,-0.367401,0.001322,0.389849,nan,0.002000,0.000000
725.000000,0.002000,-0.400253,0.143950,-0.737141,-0.619634,-2.490629,-1.245158,0.324548,0.714505,2.051126,0.000000,0.002000,0.000000
726.000000,0.002000,-2.340800,-3.338166,-1.528128,0.320997,0.241782,-0.343397,0.419382,0.631110,0.273294,nan,0.002000,0.000000
727.000000,0.002000,1.630435,-0.614151,-1.867296,-1.235358,1.281962,0.203525,-0.858292,1.090060,1.646977,0.000000,0.002000,0.000000
728.000000,0.002000,-0.207400,0.887341,1.072343,1.910541,0.470931,-1.332461,0.876016,-2.602743,-3.216055,nan,0.002000,0.000000
729.000000,0.002000,1.124353,0.502277,0.139102,0.276675,2.427576,-0.473462,-4.354049,-1.614495,-0.762231,0.000000,0.002000,0.000000
730.000000,0.002000,1.060357,1.190668,-0.277979,-1.374371,1.716199,0.090500,-2.606807,-2.658313,0.691123,nan,0.002000,0.000000
731.000000,0.002000,1.286171,-0.297667,-0.599314,0.578880,0.842579,0.449754,-3.713795,0.547181,2.665383,0.000000,0.002000,0.000000
732.000000,0.002000,0.581638,0.699678,-0.480390,-1.866644,2.386249,0.299784,-3.194133,-2.857561,1.917053,nan,0.002000,0.000000
733.000000,0.002000,2.308604,2.573245,3.953974,0.155739,1.275915,0.386677,-0.261026,-0.295520,-0.452247,0.000000,0.002000,0.000000
734.000000,0.002000,0.347809,-0.663257,-0.167730,-1.809578,-1.067058,-1.123000,-1.640034,4.093883,1.604980,nan,0.002000,0.000000
735.000000,0.002000,0.756892,-0.291440,-0.083080,-0.058989,-1.244035,-3.436034,-3.714713,0.123072,0.538720,0.000000,0.002000,0.000000
736.000000,0.002000,1.096528,-0.819155,0.199220,0.646014,0.781986,-1.100069,-3.057200,2.827457,-0.406117,nan,0.002000,0.000000
737.000000,0.002000,0.017256,0.468203,-0.912323,0.763041,0.640213,-1.548795,-0.198122,-1.288863,4.132953,0.000000,0.002000,0.000000
738.000000,0.002000,-4.370903,0.915987,2.592077,-0.132628,-0.165901,0.185913,0.509491,-0.147393,-0.432612,nan,0.002000,0.000000
739.000000,0.002000,0.830338,0.583898,0.817859,-0.563717,1.072836,-3.443019,-2.992697,-2.363186,-2.836256,0.000000,0.002000,0.000000
740.000000,0.002000,-0.133918,-0.236218,-0.305014,-0.324770,2.029275,-0.921216,-0.432713,1.560249,2.823762,nan,0.002000,0.000000
741.000000,0.002000,-0.194990,0.232380,-1.093002,1.919717,-0.609695,-1.404265,-0.186120,-0.212830,4.590750,0.000000,0.002000,0.000000
742.000000,0.002000,-0.111807,-0.034224,0.750028,-1.322415,-1.303018,-0.930329,0.183324,-0.433508,-4.488830,nan,0.002000,0.000000
743.000000,0.002000,-0.085223,0.663708,-0.828940,-1.945644,2.671472,-0.762982,0.032186,-3.299629,3.760285,0.000000,0.002000,0.000000
744.000000,0.002000,0.269188,0.282436,1.340909,-0.627139,1.039848,0.508023,-1.947744,-1.387345,-4.743288,nan,0.002000,0.000000
745.000000,0.002000,5.311985,-1.327890,-1.457103,0.638072,0.391625,-1.246957,-0.524832,0.133138,0.126825,0.000000,0.002000,0.000000
746.000000,0.002000,-4.617517,-1.679826,-0.931190,-0.162209,-0.120447,0.028317,0.612629,0.220470,0.133818,0.000000,0.002000,0.000000
747.000000,0.002000,1.172200,-3.898810,-1.571261,-0.162595,-0.613324,-1.305432,-0.211022,0.684126,0.294038,0.000000,0.002000,0.000000
748.000000,0.002000,0.952308,-5.673787,-1.434677,0.291022,-0.618580,-0.022958,-0.092077,0.488138,0.122787,0.000000,0.002000,0.000000
749.000000,0.002000,5.949855,2.291403,2.252207,1.121578,0.343072,0.530794,-0.383909,-0.142709,-0.144051,0.000000,0.002000,0.000000
750.000000,0.002000,0.390179,0.386996,-0.097255,-0.708237,0.921222,1.189268,-3.086636,-1.695021,0.516559,0.000000,0.002000,0.000000
751.000000,0.002000,0.578511,-1.047311,1.206629,-1.198475,-0.595308,-0.813511,-1.232179,2.452667,-2.555492,0.000000,0.002000,0.000000
752.000000,0.002000,-0.762124,1.376873,0.250822,-2.677684,0.005494,-2.163073,1.119754,-3.632617,0.024070,0.000000,0.002000,0.000000
753.000000,0.002000,-0.587794,-1.004576,1.050371,-0.769490,-1.361421,1.334776,1.493140,2.652722,-2.970960,0.000000,0.002000,0.000000
754.000000,0.002000,1.629284,1.247970,-0.669204,0.618828,0.646652,-0.233598,-1.967171,-1.465813,0.847350,0.000000,0.002000,0.000000
755.000000,0.002000,-2.499439,2.560113,0.297310,-0.168559,-0.406702,-1.198990,0.757262,-0.804116,-0.030910,0.000000,0.002000,0.000000
756.000000,0.002000,-0.476389,-4.510121,2.562932,0.133788,-0.537901,-0.158849,0.019557,0.495579,-0.300133,0.000000,0.002000,0.000000
757.000000,0.002000,0.935916,-0.020024,-0.084126,-3.524796,0.144419,0.327718,-4.078147,0.195531,0.779854,0.000000,0.002000,0.000000
758.000000,0.002000,-0.012135,0.033311,0.978899,0.331013,-0.782971,0.134615,0.211186,0.251600,-4.897311,0.000000,0.002000,0.000000
759.000000,0.002000,0.039485,-1.032849,-0.281316,2.280907,1.106918,-0.764010,-0.160580,4.003915,1.277975,0.000000,0.002000,0.000000
760.000000,0.002000,-0.494598,-1.226563,-0.029766,-2.412634,1.105458,1.070796,2.235022,4.641043,0.578170,0.000000,0.002000,0.000000
761.000000,0.002000,0.980887,-0.049264,-0.016164,1.214917,0.086330,-2.629668,-3.690603,0.251852,-0.388298,0.000000,0.002000,0.000000
762.000000,0.002000,-1.159518,0.481222,-0.810786,1.773958,1.336139,1.867003,3.392577,-1.144777,2.474854,0.000000,0.002000,0.000000
763.000000,0.002000,0.398896,0.516901,0.150954,0.605806,-3.059959,0.097416,-2.539002,-2.323129,-0.780490,0.000000,0.002000,0.000000
764.000000,0.002000,-0.055822,-0.277476,0.409457,-1.828228,0.387807,1.126617,1.656105,1.402775,-2.258131,0.000000,0.002000,0.000000
765.000000,0.002000,2.684050,1.492861,-1.705997,1.633733,0.615879,0.694841,-0.836946,-0.489288,0.570805,0.000000,0.002000,0.000000
766.000000,0.002000,-0.180189,-0.717506,-0.763129,-0.222258,0.766166,-2.366345,0.704995,2.796613,3.758057,0.000000,0.002000,0.000000
767.000000,0.002000,1.145132,-0.152875,-0.304646,0.571974,2.582533,1.528787,-4.050142,0.214877,1.136380,0.000000,0.002000,0.000000
768.000000,0.002000,0.826995,0.063520,0.446748,0.971838,2.379814,0.881588,-4.265679,-0.327300,-1.825072,0.000000,0.002000,0.000000
769.000000,0.002000,0.498758,0.058408,0.230839,-0.577450,0.269274,0.921949,-2.783082,0.080138,-0.692846,0.000000,0.002000,0.000000
770.000000,0.002000,0.062893,-0.746046,0.431737,3.091225,0.593348,-0.255065,-0.700294,3.401759,-2.369973,0.000000,0.002000,0.000000
771.000000,0.002000,-0.986128,5.891422,1.251728,-0.061148,1.189156,0.086102,0.116377,-0.524119,-0.058700,0.000000,0.002000,0.000000
772.000000,0.002000,0.393872,2.178040,1.915912,-0.196863,-1.344213,0.418953,-0.201253,-1.131203,-1.039441,0.000000,0.002000,0.000000
773.000000,0.002000,-1.204270,-0.353947,3.796467,0.228009,-0.806623,-0.034326,0.260027,0.084725,-0.898472,0.000000,0.002000,0.000000
774.000000,0.002000,-1.090282,-0.543895,0.617508,-1.332736,0.163214,-0.267869,3.436847,2.039097,-1.701041,0.000000,0.002000,0.000000
775.000000,0.002000,5.781880,-3.326652,1.253116,1.009101,-0.705708,0.491355,-0.355634,0.206887,-0.072836,0.000000,0.002000,0.000000
776.000000,0.002000,1.801953,-5.434741,-1.096050,0.838385,-1.174934,-0.772292,-0.198484,0.455346,0.077084,0.000000,0.002000,0.000000
777.000000,0.002000,-0.777000,-0.715240,1.126018,1.836333,0.335746,0.503053,1.832867,2.158266,-2.669201,0.000000,0.002000,0.000000
778.000000,0.002000,0.107793,0.275726,1.192829,-1.419486,-1.382402,-0.954094,-0.274197,-0.859286,-3.863573,0.000000,0.002000,0.000000
779.000000,0.002000,-1.034766,0.763348,1.056625,-1.168919,-0.895811,0.162532,2.192205,-1.869850,-2.422020,0.000000,0.002000,0.000000
780.000000,0.002000,1.665899,4.112165,-1.023184,-0.471074,0.026840,-0.165792,-0.261887,-0.651660,0.188457,0.000000,0.002000,0.000000
781.000000,0.002000,1.639338,1.306553,-1.501256,-1.028260,-1.239438,-0.433220,-1.200687,-0.954907,1.130044,0.000000,0.002000,0.000000
782.000000,0.002000,-1.074206,0.748518,-1.078305,0.769563,1.340127,-0.852603,2.399268,-1.722141,2.527649,0.000000,0.002000,0.000000
783.000000,0.002000,0.365745,-2.432568,-6.033348,0.283803,-0.233806,-0.835791,-0.037814,0.199804,0.413303,0.000000,0.002000,0.000000
784.000000,0.002000,-0.409267,-0.403581,1.537042,1.595432,-0.065838,0.249164,0.829737,0.932600,-3.682601,0.000000,0.002000,0.000000
785.000000,0.002000,0.396687,-1.152453,3.348618,0.899786,-1.360659,0.978419,-0.116702,0.344176,-1.059230,0.000000,0.002000,0.000000
786.000000,0.002000,-1.157258,-0.798733,4.237234,0.643675,-0.329696,0.246594,0.195989,0.148798,-0.748410,0.000000,0.002000,0.000000
787.000000,0.002000,-0.369670,4.537410,0.951148,-0.056044,1.777316,-0.462368,0.053095,-0.681854,-0.116409,0.000000,0.002000,0.000000
788.000000,0.002000,0.673598,0.806839,0.709547,-0.919733,2.252511,-0.841410,-2.510383,-3.027766,-2.638510,0.000000,0.002000,0.000000
789.000000,0.002000,0.429708,0.881461,-1.059273,-0.404433,-0.429499,0.016787,-1.786267,-2.532285,3.372470,0.000000,0.002000,0.000000
790.000000,0.002000,0.393664,1.495655,0.658700,0.453165,2.145048,-0.812903,-0.961793,-3.441090,-1.541310,0.000000,0.002000,0.000000
791.000000,0.002000,-5.400870,2.939486,2.219247,-0.750167,0.694468,0.079337,0.360512,-0.199854,-0.142123,0.000000,0.002000,0.000000
792.000000,0.002000,0.931926,-0.659175,0.645371,0.490530,2.127702,-0.266913,-3.216240,2.427493,-2.150652,0.000000,0.002000,0.000000
793.000000,0.002000,-0.204191,0.025853,-0.122370,2.497454,-2.299682,0.746754,-1.428362,2.204931,2.157954,0.000000,0.002000,0.000000
794.000000,0.002000,0.784047,1.587545,-0.250172,-1.458057,-0.572703,-0.796761,-1.531957,-3.092864,0.425166,0.000000,0.002000,0.000000
795.000000,0.002000,0.142864,-2.453367,4.851891,-0.216510,0.143026,0.635467,-0.025429,0.245669,-0.514276,0.000000,0.002000,0.000000
796.000000,0.002000,2.336763,0.004626,-2.252827,-0.853670,-0.705837,0.473642,-0.884070,-0.003488,0.883879,0.000000,0.002000,0.000000
797.000000,0.002000,-0.448343,0.875997,-0.417542,0.213316,0.103380,-1.649260,2.382771,-3.470574,2.242476,0.000000,0.002000,0.000000
798.000000,0.002000,-0.060503,-1.233907,0.454692,-2.118289,0.772422,0.322634,0.213330,4.264679,-1.459540,0.000000,0.002000,0.000000
799.000000,0.002000,-0.506424,-1.457314,-1.630527,-1.243121,0.115675,-1.634411,0.482967,1.630505,1.858282,0.000000,0.002000,0.000000
800.000000,0.002000,0.749874,0.059781,-0.364252,0.556593,-2.358280,0.230016,-3.970240,0.100533,1.774026,0.000000,0.002000,0.000000
801.000000,0.002000,0.010354,0.213359,-0.634436,0.493303,-2.926945,-0.433212,-1.136056,-1.271754,3.527790,0.000000,0.002000,0.000000
802.000000,0.002000,0.541158,0.276825,0.127377,1.457588,1.645661,-0.037572,-2.805780,-1.244662,-0.272029,0.000000,0.002000,0.000000
803.000000,0.002000,-2.489547,-1.217848,-0.413610,0.700959,1.071102,0.669118,1.441156,0.737092,0.254125,0.000000,0.002000,0.000000
804.000000,0.002000,0.166280,-0.320532,0.510189,1.874227,-0.834001,-2.199544,-1.209243,1.386446,-3.262835,0.000000,0.002000,0.000000
805.000000,0.002000,-0.567621,0.822308,0.331242,-0.745729,-1.489338,-1.916524,2.802599,-3.515926,-1.898411,0.000000,0.002000,0.000000
806.000000,0.002000,-3.962212,-3.947268,-4.696603,-0.912390,-0.966801,-1.332182,0.217816,0.200756,0.247014,0.000000,0.002000,0.000000
807.000000,0.002000,-1.462279,-0.096522,0.503077,-0.037139,-1.255258,1.063727,4.085576,0.489034,-1.356501,0.000000,0.002000,0.000000
808.000000,0.002000,-0.516472,0.304410,-0.926231,0.102686,-1.574745,0.082349,1.983918,-1.148034,4.278706,0.000000,0.002000,0.000000
809.000000,0.002000,0.554401,0.347439,0.969967,0.776565,-1.597354,-1.632757,-2.629127,-1.187677,-3.775798,0.000000,0.002000,0.000000
810.000000,0.002000,0.780781,0.469840,0.225446,-1.388249,0.368956,0.516303,-3.595052,-2.093202,-1.104494,0.000000,0.002000,0.000000
811.000000,0.002000,0.101147,1.222182,-0.611226,-0.229164,2.790630,0.914598,-0.505818,-3.939294,2.038558,0.000000,0.002000,0.000000
812.000000,0.002000,-1.415518,-0.247166,-0.198973,1.292037,0.884566,1.533444,3.924956,1.109292,0.664629,0.000000,0.002000,0.000000
813.000000,0.002000,-0.834134,-0.707024,0.775924,-2.305529,-1.137381,1.380853,2.671076,2.515753,-2.429535,0.000000,0.002000,0.000000
814.000000,0.002000,0.954227,1.458858,0.734340,-0.355242,-0.616838,0.558364,-1.601297,-2.527079,-1.201480,0.000000,0.002000,0.000000
815.000000,0.002000,-0.676490,-0.318799,0.491368,-0.884516,-2.572100,1.783575,3.727510,1.845392,-2.512093,0.000000,0.002000,0.000000
816.000000,0.002000,0.395076,-0.480514,0.379946,2.400002,1.457807,-1.402085,-2.552070,1.186175,-2.208851,0.000000,0.002000,0.000000
817.000000,0.002000,-1.586751,0.558150,-2.196532,0.520930,0.163255,1.430615,0.928136,-0.342344,1.349942,0.000000,0.002000,0.000000
818.000000,0.002000,-2.875725,4.403531,-1.354179,0.229365,1.023880,-0.742607,0.303994,-0.483786,0.180472,0.000000,0.002000,0.000000
819.000000,0.002000,0.063676,0.535489,-0.856996,2.213729,-1.793985,0.738689,-0.162693,-1.947988,3.629823,0.000000,0.002000,0.000000
820.000000,0.002000,1.944689,-1.892386,-3.622564,-0.235613,0.068797,-0.126158,-0.321856,0.323473,0.584504,0.000000,0.002000,0.000000
821.000000,0.002000,1.072420,3.162611,0.724417,-0.843424,-0.514208,0.164208,-0.367991,-1.109065,-0.230037,0.000000,0.002000,0.000000
822.000000,0.002000,2.904608,-2.352300,2.418211,1.162083,-0.902091,0.608908,-0.491279,0.410235,-0.417679,0.000000,0.002000,0.000000
823.000000,0.002000,0.917314,0.766445,5.059718,0.035529,0.543006,0.815297,-0.088470,-0.084591,-0.589383,0.000000,0.002000,0.000000
824.000000,0.002000,-0.621230,1.732859,-0.387454,0.034064,0.226045,-0.614613,1.050543,-3.118378,0.873191,0.000000,0.002000,0.000000
825.000000,0.002000,4.706443,0.103061,-0.062647,1.159308,-0.676625,-1.375950,-0.702328,0.010356,0.018957,0.000000,0.002000,0.000000
826.000000,0.002000,-0.692771,0.404527,0.449322,-2.391209,-0.454938,-1.839735,2.881425,-2.442892,-1.909956,0.000000,0.002000,0.000000
827.000000,0.002000,-0.728611,-0.167242,-0.207000,1.487234,2.760242,0.039293,5.001612,1.391123,0.842823,0.000000,0.002000,0.000000
828.000000,0.002000,-0.736976,0.872217,0.407780,0.570280,2.374113,-0.767202,2.865804,-3.773661,-2.250582,0.000000,0.002000,0.000000
829.000000,0.002000,-0.602286,-0.723790,-5.325385,-0.602150,-0.455511,-0.818602,0.060210,0.097982,0.621645,0.000000,0.002000,0.000000
830.000000,0.002000,0.572627,2.035293,0.286251,-0.132592,-0.324146,-0.476768,-1.120428,-2.697328,0.357767,0.000000,0.002000,0.000000
831.000000,0.002000,0.442629,-1.096514,-1.052954,-0.838708,1.134503,-1.511488,-1.045106,2.739165,2.429985,0.000000,0.002000,0.000000
832.000000,0.002000,-0.236652,-0.040963,-0.081430,-2.379786,2.668468,-1.075801,1.170616,2.157861,-0.020735,0.000000,0.002000,0.000000
833.000000,0.002000,-0.376928,-0.258696,-1.211093,-0.333925,0.744812,-1.809482,0.661282,1.079532,4.274176,0.000000,0.002000,0.000000
834.000000,0.002000,-0.549172,0.798562,0.043805,2.761401,-0.493002,-1.187631,3.700995,-2.552555,1.283421,0.000000,0.002000,0.000000
835.000000,0.002000,1.978448,4.013282,2.735433,0.875842,0.050761,0.192421,-0.226615,-0.468615,-0.325275,0.000000,0.002000,0.000000
836.000000,0.002000,0.257013,-2.318844,2.183676,-0.311595,-1.509798,0.755326,-0.149489,0.978707,-0.849925,0.000000,0.002000,0.000000
837.000000,0.002000,-0.261371,0.261503,-1.796111,1.077812,-0.157819,0.496570,-0.168220,-0.780671,3.859057,0.000000,0.002000,0.000000
838.000000,0.002000,1.288396,0.718256,-1.158444,1.150921,-0.046491,0.750971,-2.353591,-1.121031,2.123546,0.000000,0.002000,0.000000
839.000000,0.002000,-0.304292,0.027038,-0.129041,2.442976,2.141882,1.734779,1.635204,0.734139,2.767592,0.000000,0.002000,0.000000
840.000000,0.002000,0.941852,-1.157233,0.187353,0.840458,-1.800609,1.537368,-3.364658,3.541932,-0.809183,0.000000,0.002000,0.000000
841.000000,0.002000,-1.650008,0.041094,-0.773853,0.346378,-0.558811,-1.602551,3.207151,-0.084303,1.554299,0.000000,0.002000,0.000000
842.000000,0.002000,-0.427466,-0.429434,0.426092,-0.419479,0.561109,-0.903761,2.433342,2.472594,-2.522662,0.000000,0.002000,0.000000
843.000000,0.002000,0.243936,0.202404,0.019415,-1.365949,0.481609,0.545230,-1.652040,-0.725704,0.197900,0.000000,0.002000,0.000000
844.000000,0.002000,-1.310656,-0.684544,-0.608483,1.107930,0.730624,-0.215497,3.164528,1.770205,1.496993,0.000000,0.002000,0.000000
845.000000,0.002000,2.192855,-3.015773,1.289647,-0.174885,-1.532888,-0.197039,-0.487211,0.711963,-0.322654,0.000000,0.002000,0.000000
846.000000,0.002000,0.362588,0.025299,0.525696,1.262911,2.216329,0.148488,-0.847385,0.117060,-2.141998,0.000000,0.002000,0.000000
847.000000,0.002000,-4.036550,4.068333,-1.707275,-0.984224,0.348232,-0.121845,0.347332,-0.352573,0.146588,0.000000,0.002000,0.000000
848.000000,0.002000,0.294760,-0.668625,0.249058,-1.056407,0.818689,-2.779939,-1.836873,3.999190,-0.692377,0.000000,0.002000,0.000000
849.000000,0.002000,-0.972827,3.218561,-3.418814,0.488882,1.130877,-1.010195,0.131309,-0.472478,0.492656,0.000000,0.002000,0.000000
850.000000,0.002000,-1.608112,-0.321346,-0.220803,-0.310489,-0.362148,-0.119898,3.805734,1.181810,0.539897,0.000000,0.002000,0.000000
851.000000,0.002000,0.143208,0.325368,0.722429,1.576936,0.625563,-3.016884,-0.667424,-1.144493,-4.141736,0.000000,0.002000,0.000000
852.000000,0.002000,1.006334,0.309359,-0.042452,-0.019760,0.812888,1.627590,-4.574135,-1.186044,-0.003387,0.000000,0.002000,0.000000
853.000000,0.002000,0.796140,0.771166,-0.100483,2.056027,-1.075394,-0.754492,-3.556428,-3.322810,0.536627,0.000000,0.002000,0.000000
854.000000,0.002000,0.572598,-0.125961,-0.982641,1.266914,1.014781,0.641724,-2.248989,0.819380,4.256923,0.000000,0.002000,0.000000
855.000000,0.002000,-1.355007,0.136272,0.027640,0.698601,2.427471,1.129533,4.425967,-0.257511,-0.317836,0.000000,0.002000,0.000000
856.000000,0.002000,-0.571428,0.459117,-0.345268,0.631514,0.639349,2.374948,3.959632,-2.620525,1.791489,0.000000,0.002000,0.000000
857.000000,0.002000,0.378024,-0.248727,-0.853416,-0.158477,-0.546479,-2.664634,-1.977649,1.605233,4.433709,0.000000,0.002000,0.000000
858.000000,0.002000,0.984859,0.437158,0.649860,-2.403771,-1.277262,0.235145,-3.325393,-1.687305,-2.289770,0.000000,0.002000,0.000000
859.000000,0.002000,-0.165584,3.913173,-2.633224,-0.680495,0.472682,-0.074842,0.019137,-0.572938,0.389898,0.000000,0.002000,0.000000
860.000000,0.002000,-0.394659,-0.080872,-1.006087,0.653938,-1.674282,0.397170,1.394655,0.394763,4.281670,0.000000,0.002000,0.000000
861.000000,0.002000,3.617351,0.539103,1.005062,0.848658,-1.495923,0.877318,-0.966858,-0.111298,-0.250114,0.000000,0.002000,0.000000
862.000000,0.002000,1.063590,-0.200051,0.372692,1.591121,1.086217,-0.592269,-4.561711,-0.088014,-1.832360,0.000000,0.002000,0.000000
863.000000,0.002000,-2.425632,-3.863487,2.262951,-0.873766,0.029093,0.215448,0.298532,0.457720,-0.283338,0.000000,0.002000,0.000000
864.000000,0.002000,-3.026778,-7.013746,1.467924,-0.408866,-1.714287,0.009569,0.129334,0.296567,-0.071202,0.000000,0.002000,0.000000
865.000000,0.002000,0.241202,2.281940,-4.550901,0.354392,-0.277132,-0.957674,-0.033926,-0.275179,0.568365,0.000000,0.002000,0.000000
866.000000,0.002000,1.061230,-0.555273,-1.381557,0.969158,0.586853,-0.981011,-1.902202,0.856481,2.536404,0.000000,0.002000,0.000000
867.000000,0.002000,4.075092,3.300636,-0.288151,0.246995,0.135430,0.128066,-0.471921,-0.377160,0.042984,0.000000,0.002000,0.000000
868.000000,0.002000,-0.418448,0.828105,-0.656903,-0.878604,1.621806,2.819593,1.766062,-3.288002,3.448685,0.000000,0.002000,0.000000
869.000000,0.002000,0.139018,-0.079370,0.561060,-0.718279,3.326864,-0.747702,-1.075401,0.993201,-2.956550,0.000000,0.002000,0.000000
870.000000,0.002000,0.258048,1.685284,0.080491,-0.915087,-0.474545,1.456450,-1.948685,-2.879867,0.962407,0.000000,0.002000,0.000000
871.000000,0.002000,-0.402310,1.101190,-0.122425,-0.111539,-0.723694,-1.828744,2.322565,-3.752960,1.813534,0.000000,0.002000,0.000000
872.000000,0.002000,-2.480993,-4.237832,0.582723,-0.525677,-1.178828,-0.048543,0.335482,0.548867,-0.071417,0.000000,0.002000,0.000000
873.000000,0.002000,0.734714,3.174031,5.753251,0.165245,0.698833,1.223345,-0.045060,-0.201932,-0.378718,0.000000,0.002000,0.000000
874.000000,0.002000,-2.271654,-3.167993,-5.763845,-0.508951,-0.676089,-1.019048,0.135353,0.180509,0.324706,0.000000,0.002000,0.000000
875.000000,0.002000,0.933943,-3.665497,-2.272672,-0.178732,0.175513,0.179013,-0.197991,0.586876,0.388952,0.000000,0.002000,0.000000
876.000000,0.002000,1.490094,0.300771,1.123002,1.405573,-0.126781,0.510628,-2.544831,-0.409635,-1.935480,0.000000,0.002000,0.000000
877.000000,0.002000,-3.319938,-1.148782,4.787253,-0.289535,-0.204683,1.239170,0.269168,0.102246,-0.416744,0.000000,0.002000,0.000000
878.000000,0.002000,-2.811630,-0.459715,-3.061047,-0.328285,0.135813,0.557067,0.553395,0.087147,0.629877,0.000000,0.002000,0.000000
879.000000,0.002000,-0.491977,0.978755,0.647660,-0.340824,0.645191,0.859530,1.749612,-3.474662,-2.662520,0.000000,0.002000,0.000000
880.000000,0.002000,-4.091780,0.502563,4.066750,-0.644492,0.129052,0.150138,0.364047,-0.056042,-0.383253,0.000000,0.002000,0.000000
881.000000,0.002000,0.142899,0.152765,0.159320,1.965050,1.759865,0.440113,-1.948224,-0.298551,-1.292311,0.000000,0.002000,0.000000
882.000000,0.002000,-1.957563,-1.333899,-3.771116,0.021288,-0.949763,0.087289,0.363858,0.236988,0.634870,0.000000,0.002000,0.000000
883.000000,0.002000,-0.806795,0.455984,-0.922136,0.626164,-0.125430,2.651651,3.051167,-1.125559,3.044253,0.000000,0.002000,0.000000
884.000000,0.002000,0.921146,-0.154337,0.244106,-2.196233,0.504658,-0.145602,-4.101515,1.270899,-0.680031,0.000000,0.002000,0.000000
885.000000,0.002000,-5.763430,-1.954660,1.208403,-1.143974,-0.485182,-0.152269,0.426056,0.139645,-0.098790,0.000000,0.002000,0.000000
886.000000,0.002000,1.395574,0.494003,0.613622,2.161558,-0.831042,0.256283,-3.415578,-1.289063,-1.476068,0.000000,0.002000,0.000000
887.000000,0.002000,-0.826696,-0.349869,0.284563,2.649019,-0.569835,1.347842,4.029434,2.121435,-0.976097,0.000000,0.002000,0.000000
888.000000,0.002000,-3.779713,-5.218720,1.257820,-0.798229,-0.641952,0.376005,0.258323,0.343590,-0.085217,0.000000,0.002000,0.000000
889.000000,0.002000,0.319544,0.609140,-0.632475,0.384264,-0.616406,-0.594097,-2.091398,-2.934973,3.063166,0.000000,0.002000,0.000000
890.000000,0.002000,6.539479,0.363008,-0.063402,1.684799,0.294859,0.466508,-0.435780,-0.014773,0.010604,0.000000,0.002000,0.000000
891.000000,0.002000,0.446766,1.646703,1.710658,0.734417,-1.416211,0.266322,-0.444297,-1.505086,-1.590654,0.000000,0.002000,0.000000
892.000000,0.002000,0.327604,0.589061,1.164845,0.487373,0.716534,-1.372753,-0.906456,-2.215459,-3.714528,0.000000,0.002000,0.000000
893.000000,0.002000,2.839848,3.320191,-1.987218,1.138599,-0.128645,-0.726299,-0.351118,-0.478823,0.327447,0.000000,0.002000,0.000000
894.000000,0.002000,-0.259029,0.989252,0.613418,-1.112905,1.530382,-1.555428,0.649498,-3.728750,-2.665557,0.000000,0.002000,0.000000
895.000000,0.002000,-0.553974,2.232095,-3.331490,-0.800026,-0.428712,-0.032829,0.111277,-0.480076,0.751119,0.000000,0.002000,0.000000
896.000000,0.002000,-1.029252,1.207941,0.042853,1.199485,0.398065,0.677425,3.015145,-3.218695,0.051766,0.000000,0.002000,0.000000
897.000000,0.002000,0.322252,0.478755,-0.248913,0.946473,-0.814628,0.284720,-3.046960,-1.893394,1.505316,0.000000,0.002000,0.000000
898.000000,0.002000,0.101368,5.301758,4.102433,0.100962,0.590009,0.886130,-0.001356,-0.344276,-0.261595,0.000000,0.002000,0.000000
899.000000,0.002000,0.183024,1.296682,0.228624,0.404810,-0.487091,1.063816,-0.559632,-4.470328,-0.754355,0.000000,0.002000,0.000000
900.000000,0.002000,1.577630,-0.592145,1.715714,-0.581340,1.271411,-1.195218,-1.443827,0.572837,-1.532974,0.000000,0.002000,0.000000
901.000000,0.002000,2.130814,3.199013,-1.591071,0.435918,0.897591,-1.528958,-0.423004,-0.653713,0.343587,0.000000,0.002000,0.000000
902.000000,0.002000,0.894426,-0.934436,0.089638,-0.572871,0.149832,0.416864,-3.164424,3.307302,-0.467625,0.000000,0.002000,0.000000
903.000000,0.002000,-0.998883,0.785199,-0.448782,-0.177333,-1.089942,0.758343,3.360561,-2.378630,1.170004,0.000000,0.002000,0.000000
904.000000,0.002000,0.225202,-0.158496,0.023917,-3.139321,1.313280,-0.738041,-2.887063,0.846478,-0.701216,0.000000,0.002000,0.000000
905.000000,0.002000,-0.621617,-1.123020,0.858513,0.541431,1.292408,1.241749,1.582647,3.041609,-2.182165,0.000000,0.002000,0.000000
906.000000,0.002000,-2.369034,-2.122138,3.496517,-0.529506,-0.837653,-0.121042,0.373822,0.283851,-0.554514,0.000000,0.002000,0.000000
907.000000,0.002000,-1.258171,0.163807,-0.465984,0.030839,0.988537,-1.789507,7.072224,-5.922204,-0.812406,0.000000,0.002000,0.000000
908.000000,0.002000,-0.817903,0.986419,0.421616,-1.776520,0.503567,1.983707,2.901548,-3.760961,-1.415846,0.000000,0.002000,0.000000
909.000000,0.002000,0.513500,0.806486,-0.511676,-2.240524,1.738407,-0.434463,-2.012804,-3.190881,2.290620,0.000000,0.002000,0.000000
910.000000,0.002000,2.653841,-1.977342,-0.692049,0.718554,-1.827962,0.834117,-0.916765,0.686519,0.266173,0.000000,0.002000,0.000000
911.000000,0.002000,-1.713339,0.565214,1.392733,1.325885,-0.158671,-1.342024,1.895915,-0.564643,-1.483366,0.000000,0.002000,0.000000
912.000000,0.002000,3.635291,2.001229,-5.865181,0.778325,0.477573,-1.244340,-0.185272,-0.111933,0.306081,0.000000,0.002000,0.000000
913.000000,0.002000,-3.624271,-1.166636,1.678347,-0.096440,-0.671459,1.015368,0.762852,0.243390,-0.356898,0.000000,0.002000,0.000000
914.000000,0.002000,-0.347843,-0.767290,0.648527,-2.488933,0.935065,1.175730,1.532850,3.520091,-3.636638,0.000000,0.002000,0.000000
915.000000,0.002000,-0.215795,-1.122178,-0.872962,-0.806938,0.192182,1.117472,0.691076,3.343405,2.662898,0.000000,0.002000,0.000000
916.000000,0.002000,-0.106882,-0.113593,-0.198445,2.458225,1.052986,-1.469391,0.300662,1.325922,1.472203,0.000000,0.002000,0.000000
917.000000,0.002000,1.518458,0.363651,-4.600619,-0.112463,-0.923508,-0.823401,-0.196512,-0.062627,0.640874,0.000000,0.002000,0.000000
918.000000,0.002000,-0.507570,-0.080128,-0.200967,1.475304,1.235383,-1.793937,2.011813,0.583781,1.687888,0.000000,0.002000,0.000000
919.000000,0.002000,-0.213524,-0.362729,0.898074,-1.047162,-0.749603,-0.516330,1.072999,2.068923,-3.848262,0.000000,0.002000,0.000000
