# 
#                 columns are tag, mass, x, y, z, vx, vy, vz, ax, ay, az, EK, EU, E
#                 Time=6.000000
# 
1.000000,0.002000,-5.971218,3.645811,3.392813,-0.165380,0.489040,0.585498,0.234954,-0.143474,-0.131544,32.822944,-73.712483,-40.889539
2.000000,0.002000,-3.792742,-2.598921,0.988527,0.665619,-0.561259,1.536146,0.573799,0.393759,-0.133010,0.000000,0.000000,0.000000
3.000000,0.002000,0.334478,-1.268478,0.476707,-1.383123,2.026010,-0.683010,-0.552122,3.911937,-0.772110,0.000000,0.000000,0.000000
4.000000,0.002000,-0.535861,-2.648685,0.193941,0.135509,-0.534681,1.218458,0.339801,1.720793,-0.124860,nan,0.000000,0.000000
5.000000,0.002000,-0.529572,0.054251,-0.107816,1.445979,0.226193,-1.883883,1.699912,-0.358292,0.294957,0.000000,0.000000,0.000000
6.000000,0.002000,-0.619639,0.370647,-0.835306,-1.536222,-1.908178,-0.750946,1.450457,-1.080640,2.674876,nan,0.000000,0.000000
7.000000,0.002000,-0.591107,-2.795957,7.680586,-0.028615,-0.578594,0.724594,0.026563,0.095801,-0.259924,0.000000,0.002000,0.000000
8.000000,0.002000,-0.784528,-0.593422,-0.937991,-0.602752,-0.207947,-2.151666,1.767456,1.505436,2.282175,0.000000,0.002000,0.000000
9.000000,0.002000,-6.600114,4.055093,0.883705,-0.643637,0.365280,0.166554,0.256409,-0.155956,-0.031555,0.000000,0.002000,0.000000
10.000000,0.002000,5.315504,0.056053,-3.293696,-0.000079,0.329724,0.361542,-0.353789,-0.006050,0.224090,0.000000,0.002000,0.000000
11.000000,0.002000,-0.736038,-0.984237,0.336411,-0.279385,-1.235151,1.651413,1.812542,2.076192,-1.036942,0.000000,0.002000,0.000000
12.000000,0.002000,7.085495,4.856623,0.304812,0.411305,0.446856,0.085048,-0.219177,-0.144921,0.010392,0.000000,0.002000,0.000000
13.000000,0.002000,0.510147,-0.589154,-1.426587,1.269173,1.774088,0.084981,-1.107544,1.104827,2.540502,0.000000,0.002000,0.000000
14.000000,0.002000,-2.785644,0.046128,2.084409,0.883574,-0.337470,-1.327485,0.983186,0.020005,-0.749033,nan,0.002000,0.000000
15.000000,0.002000,0.706152,-4.849070,-0.624471,-0.299396,-0.069327,-0.215057,-0.096448,0.616813,0.072225,0.000000,0.002000,0.000000
16.000000,0.002000,1.196167,-4.218340,-4.609228,-0.107382,-0.455329,0.306571,-0.073720,0.275759,0.293272,nan,0.002000,0.000000
17.000000,0.002000,0.276545,-0.699235,-0.439081,-1.920739,1.939608,-0.097692,-0.504606,1.436804,1.906408,0.000000,0.002000,0.000000
18.000000,0.002000,1.556393,1.433286,-0.917458,0.327352,-0.271665,-1.154939,-1.553769,-1.203997,0.939531,nan,0.002000,0.000000
19.000000,0.002000,-0.061949,-0.152596,-0.621016,-0.283400,0.661606,0.461456,0.252550,0.563606,1.942434,0.000000,0.002000,0.000000
20.000000,0.002000,-0.806914,0.540994,-0.122288,-0.582141,-1.678010,-0.957530,2.578331,-1.351108,0.542680,nan,0.002000,0.000000
21.000000,0.002000,0.165948,0.798140,0.884048,1.983031,-0.187110,0.718745,-0.593267,-2.089658,-2.293859,0.000000,0.002000,0.000000
22.000000,0.002000,0.611152,-0.279213,0.214825,2.510452,-1.932971,1.141482,-1.725356,1.154280,-0.707294,nan,0.002000,0.000000
23.000000,0.002000,-0.289602,1.601732,1.236826,2.145847,-0.976990,1.132295,-0.007395,-2.433497,-1.423226,0.000000,0.002000,0.000000
24.000000,0.002000,-0.146273,-0.858973,-0.109227,1.934002,-1.716488,-0.130436,0.225203,2.723820,0.558428,nan,0.002000,0.000000
25.000000,0.002000,0.420228,-0.832933,0.271104,0.977095,2.178388,1.079601,-1.255069,2.537580,-0.587284,0.000000,0.002000,0.000000
26.000000,0.002000,-0.274133,-0.978433,-0.733879,-1.659566,1.698918,2.337305,0.242462,2.641113,1.930896,nan,0.002000,0.000000
27.000000,0.002000,0.506339,1.189974,-0.069417,-0.180516,-1.361130,0.864079,-1.142024,-3.108302,-0.040167,0.000000,0.002000,0.000000
28.000000,0.002000,0.091580,-0.175166,-0.750596,0.574648,2.703374,0.590376,-0.258893,-0.054713,2.643055,nan,0.002000,0.000000
29.000000,0.002000,-7.560338,-7.928299,1.567296,-0.931235,-0.956651,0.382982,0.110545,0.114586,-0.022168,0.000000,0.002000,0.000000
30.000000,0.002000,-0.674895,-0.521711,-1.247484,-1.357684,-1.571616,-1.424697,1.226769,1.535857,2.703565,nan,0.002000,0.000000
31.000000,0.002000,1.469624,-0.672357,-0.346800,0.214615,-1.466471,-0.142921,-2.473043,1.437226,0.547427,0.000000,0.002000,0.000000
32.000000,0.002000,-0.772479,-0.121836,-0.283436,0.883231,-1.799555,-0.632613,2.381777,0.492913,1.018156,nan,0.002000,0.000000
33.000000,0.002000,0.237829,-0.658005,1.196585,-0.709095,1.424319,-1.123119,-0.854673,1.663835,-2.975382,0.000000,0.002000,0.000000
34.000000,0.002000,1.559374,-0.968073,2.803131,-0.294974,-0.990443,0.614296,-0.602632,0.342123,-0.997016,nan,0.002000,0.000000
35.000000,0.002000,-2.999502,-3.858941,7.303715,-0.552055,-0.212496,0.501364,0.082167,0.103838,-0.205404,0.000000,0.002000,0.000000
36.000000,0.002000,-0.948237,-2.986427,4.035363,0.610089,0.121501,-0.482971,0.104677,0.344499,-0.468721,nan,0.002000,0.000000
37.000000,0.002000,-7.856365,-8.273766,2.734043,-0.944239,-1.093742,0.624885,0.097122,0.101515,-0.035047,0.000000,0.002000,0.000000
38.000000,0.002000,-1.372714,-1.017126,0.288458,-0.639554,-1.610447,1.392643,2.207685,1.791323,-0.340710,nan,0.002000,0.000000
39.000000,0.002000,0.155420,-0.607067,-0.545167,-0.655375,1.339256,-1.676304,-0.320215,1.733338,1.617169,0.000000,0.002000,0.000000
40.000000,0.002000,-2.456504,0.939137,-1.749802,-0.399029,-0.210805,-0.826222,1.091773,-0.428416,0.777998,nan,0.002000,0.000000
41.000000,0.002000,1.004667,-0.401961,-2.054875,0.064098,-0.707706,0.494215,-0.972417,0.445591,1.883401,0.000000,0.002000,0.000000
42.000000,0.002000,-0.465242,2.506199,-4.179726,0.640251,-0.315502,-0.068329,0.072025,-0.315888,0.541585,nan,0.002000,0.000000
43.000000,0.002000,-4.212827,1.331429,3.456233,0.348431,0.801213,-0.097557,0.377978,-0.127285,-0.325559,0.000000,0.002000,0.000000
44.000000,0.002000,0.060554,1.266274,-0.997815,-1.249845,0.364880,0.661803,-0.535707,-2.264438,1.978014,nan,0.002000,0.000000
45.000000,0.002000,-0.533776,0.457994,1.019667,1.743719,0.517006,1.586620,1.546421,-0.549502,-3.090374,0.000000,0.002000,0.000000
46.000000,0.002000,-1.217057,-0.374287,0.069967,0.816949,-0.668898,1.349386,2.837217,0.620072,-0.045541,nan,0.002000,0.000000
47.000000,0.002000,2.875157,0.177047,-0.526568,-0.549439,0.349896,0.703927,-1.524575,-0.074908,0.282131,0.000000,0.002000,0.000000
48.000000,0.002000,-1.030039,1.398767,0.050649,-0.902270,-0.100966,-0.502024,1.867269,-2.617217,-0.065678,nan,0.002000,0.000000
49.000000,0.002000,-9.061332,-2.868756,0.950664,-1.000621,-0.304964,0.038180,0.202817,0.065857,-0.020996,0.000000,0.002000,0.000000
50.000000,0.002000,-1.264407,-0.877605,-1.662410,0.211429,-0.966587,-0.829135,1.545371,0.808607,1.774192,nan,0.002000,0.000000
51.000000,0.002000,1.480512,-1.953322,0.457757,-0.178035,0.723869,-0.228803,-1.204193,1.486016,-0.283905,0.000000,0.002000,0.000000
52.000000,0.002000,-0.028422,0.174278,-1.767992,1.013429,0.136529,0.612900,0.005304,-0.099518,2.997362,nan,0.002000,0.000000
53.000000,0.002000,-0.233728,1.675121,1.572981,0.343019,-0.032585,0.199926,0.182238,-1.705904,-1.546264,0.000000,0.002000,0.000000
54.000000,0.002000,-0.726529,-0.274614,-2.776104,0.860872,0.546348,-1.085303,0.388751,0.207278,1.500249,nan,0.002000,0.000000
55.000000,0.002000,1.577733,-0.123149,0.685384,0.176227,-0.091393,1.407013,-2.681333,0.343403,-1.190080,0.000000,0.002000,0.000000
56.000000,0.002000,0.437337,-0.406425,0.225102,-0.434494,1.220458,-2.535213,-1.129864,1.500975,-0.483465,nan,0.002000,0.000000
57.000000,0.002000,1.222041,2.473095,2.940859,0.917813,-0.767235,-0.282333,-0.255144,-0.576865,-0.693122,0.000000,0.002000,0.000000
58.000000,0.002000,-1.925801,-4.574822,-2.029589,0.100074,0.463390,-0.136979,0.190461,0.463437,0.205715,nan,0.002000,0.000000
59.000000,0.002000,-0.545507,0.197594,1.574334,1.296948,-0.684089,1.232360,1.006569,-0.262259,-2.855217,0.000000,0.002000,0.000000
60.000000,0.002000,0.501728,-0.504945,0.768326,-1.667768,-0.554264,0.388550,-2.378699,0.910644,-0.975563,nan,0.002000,0.000000
61.000000,0.002000,0.074508,-1.954262,-0.645766,-1.447440,0.029541,0.404353,-0.270095,2.280494,0.704511,0.000000,0.002000,0.000000
62.000000,0.002000,-1.932459,-0.668336,10.113561,-0.575761,0.004076,1.114686,0.033320,0.011392,-0.178905,nan,0.002000,0.000000
63.000000,0.002000,0.984844,-0.183506,0.553320,1.584772,-0.335173,0.702890,-3.159074,0.405363,-1.977081,0.000000,0.002000,0.000000
64.000000,0.002000,-0.056029,-2.109348,-0.598251,1.036771,0.018480,0.516827,-0.189578,2.351126,0.574803,nan,0.002000,0.000000
65.000000,0.002000,-2.059538,0.141902,-1.251952,-0.041232,-1.494020,0.575964,1.793798,-0.143323,1.147995,0.000000,0.002000,0.000000
66.000000,0.002000,1.734996,0.368176,0.898320,0.737934,0.647136,1.424019,-1.678405,-1.025138,-2.070064,nan,0.002000,0.000000
67.000000,0.002000,-3.930318,-5.703156,2.116061,-0.134913,-0.591277,0.219907,0.185948,0.257359,-0.091125,0.000000,0.002000,0.000000
68.000000,0.002000,0.890265,-2.812909,-0.553881,0.026038,-0.775698,-1.221652,-0.459770,1.356781,0.258077,nan,0.002000,0.000000
69.000000,0.002000,3.517405,-1.336656,2.177704,-0.286971,-0.857536,-0.578560,-0.636247,0.242024,-0.393418,0.000000,0.002000,0.000000
70.000000,0.002000,-1.051235,1.084723,-0.533215,-2.199488,0.665659,0.760857,1.998887,-2.028640,1.320115,nan,0.002000,0.000000
71.000000,0.002000,1.539698,1.072585,0.964465,0.731875,-0.605128,1.680879,-1.905881,-1.263867,-1.150898,0.000000,0.002000,0.000000
72.000000,0.002000,-0.379492,0.570322,-1.953524,-0.786373,-0.497275,-1.403877,0.068581,-0.277974,2.922722,nan,0.002000,0.000000
73.000000,0.002000,-4.001746,3.081023,-6.492690,-0.614660,0.505346,-0.486478,0.142641,-0.104456,0.214743,0.000000,0.002000,0.000000
74.000000,0.002000,0.027420,1.246313,0.906611,-0.136199,0.206679,0.512086,-0.228989,-2.767791,-1.728849,nan,0.002000,0.000000
75.000000,0.002000,-6.283694,0.901431,0.968932,-0.051047,0.195509,-0.584128,0.406739,-0.056820,-0.064688,0.000000,0.002000,0.000000
76.000000,0.002000,-1.605211,1.096765,0.970615,-0.448568,0.402978,0.320790,1.948864,-1.469715,-1.022178,nan,0.002000,0.000000
77.000000,0.002000,-0.709440,-0.186787,-0.408120,-2.295488,-0.847811,1.279459,1.974011,0.432383,1.963218,0.000000,0.002000,0.000000
78.000000,0.002000,-0.796625,-0.592028,0.859421,1.304991,1.737642,0.656061,1.989528,1.712568,-1.985666,nan,0.002000,0.000000
79.000000,0.002000,0.084167,1.526548,1.596172,-1.448289,-0.441483,0.255397,-0.241329,-1.441088,-2.146837,0.000000,0.002000,0.000000
80.000000,0.002000,0.617690,6.477649,-3.048959,-0.550891,0.628756,-0.053358,-0.044317,-0.307919,0.149734,nan,0.002000,0.000000
81.000000,0.002000,1.242138,0.436930,-0.186564,0.598133,-0.324932,-0.204970,-2.785860,-1.609268,0.710818,0.000000,0.002000,0.000000
82.000000,0.002000,0.622424,0.804395,2.511118,0.953401,0.669584,-0.684714,-0.420640,-0.482865,-1.717220,nan,0.002000,0.000000
83.000000,0.002000,-1.960803,-0.827259,-0.838711,0.484372,0.961852,-1.385685,2.160247,0.863265,1.104080,0.000000,0.002000,0.000000
84.000000,0.002000,1.961097,1.205430,-0.111209,-2.300216,-0.703928,-0.227481,-1.988666,-1.246965,0.028543,nan,0.002000,0.000000
85.000000,0.002000,0.066253,-0.524220,2.056970,-1.189613,1.347789,-1.709413,-0.164002,0.670437,-2.442997,0.000000,0.002000,0.000000
86.000000,0.002000,1.003652,-1.693029,0.179185,-0.245982,0.603048,-1.443059,-1.406560,2.177134,-0.134883,nan,0.002000,0.000000
87.000000,0.002000,0.343169,1.977828,1.475884,-0.652801,0.486132,0.069625,-0.320840,-1.686839,-1.227840,0.000000,0.002000,0.000000
88.000000,0.002000,-0.234502,1.525267,-0.098819,1.134436,0.601364,0.446882,0.616446,-3.343343,0.149555,nan,0.002000,0.000000
89.000000,0.002000,-1.171007,-2.652915,-0.402906,-0.302754,1.824290,0.628541,0.629892,1.453404,0.205194,0.000000,0.002000,0.000000
90.000000,0.002000,0.093288,-0.495275,0.075574,0.686275,-0.052548,-0.828042,-0.936524,1.880040,-0.167942,nan,0.002000,0.000000
91.000000,0.002000,-4.912172,-0.950528,-7.737892,-0.837743,-0.827839,-1.015076,0.119472,0.023056,0.188080,0.000000,0.002000,0.000000
92.000000,0.002000,-0.442578,0.334497,0.199972,1.669161,-2.131188,-1.076374,1.631791,-1.004580,-0.764871,nan,0.002000,0.000000
93.000000,0.002000,4.383328,-3.523363,-1.013245,-0.173303,0.258837,-0.696732,-0.385742,0.310392,0.089443,0.000000,0.002000,0.000000
94.000000,0.002000,-5.278606,3.830367,3.105680,-0.127284,0.333540,0.592679,0.241110,-0.178928,-0.143228,nan,0.002000,0.000000
95.000000,0.002000,0.513002,2.418023,0.960525,0.199684,-0.829652,-0.143124,-0.469441,-1.747940,-0.659420,0.000000,0.002000,0.000000
96.000000,0.002000,-1.114955,0.273382,-1.314054,0.664900,-0.572177,1.095955,1.890993,-0.306567,2.640560,nan,0.002000,0.000000
97.000000,0.002000,-0.216676,0.790174,-0.389180,-2.599881,-0.891024,-0.195473,0.673393,-2.148484,1.698120,0.000000,0.002000,0.000000
98.000000,0.002000,0.725581,-6.729158,5.854053,0.015609,-0.609859,0.685265,-0.020203,0.175516,-0.153117,nan,0.002000,0.000000
99.000000,0.002000,0.262907,-1.061561,-0.564645,0.091759,0.393572,-0.615894,-0.520076,2.810349,1.647584,0.000000,0.002000,0.000000
100.000000,0.002000,0.919187,-1.098226,0.918331,-0.001676,-0.600936,0.641983,-1.733553,1.861449,-1.679432,nan,0.002000,0.000000
101.000000,0.002000,-1.594337,-0.511793,1.901876,-1.006100,0.788690,0.098552,1.414429,0.354837,-1.362725,0.000000,0.002000,0.000000
102.000000,0.002000,-1.372974,0.570289,0.805559,0.678982,-1.236989,1.222438,2.350583,-0.974960,-1.650622,nan,0.002000,0.000000
103.000000,0.002000,-0.086624,4.589671,-3.586171,-0.320873,-0.341459,0.233193,0.001049,-0.394807,0.288958,0.000000,0.002000,0.000000
104.000000,0.002000,-0.636784,1.139208,-0.638511,0.108728,-0.022458,-1.599906,1.516855,-2.427112,1.927260,nan,0.002000,0.000000
105.000000,0.002000,-0.129204,-1.163864,1.866055,1.757947,1.514881,0.046883,0.074435,1.158011,-2.174306,0.000000,0.002000,0.000000
106.000000,0.002000,-0.873962,-0.638799,-0.081327,-0.330608,-0.714896,-0.565279,2.447155,1.953013,0.270413,nan,0.002000,0.000000
107.000000,0.002000,0.236907,0.008834,0.742169,1.199292,1.719637,-0.864280,0.977971,5.569459,-2.320123,0.000000,0.002000,0.000000
108.000000,0.002000,1.664597,0.554928,1.637046,-0.030158,0.128113,-0.033144,-1.462810,-0.551806,-1.342487,nan,0.002000,0.000000
109.000000,0.002000,0.786665,0.659149,-0.463125,0.901350,-0.941955,1.883746,-2.201284,-1.556755,1.480265,0.000000,0.002000,0.000000
110.000000,0.002000,-4.365299,0.682994,-5.387797,-0.265981,-0.058602,-0.694795,0.224493,-0.036996,0.274496,nan,0.002000,0.000000
111.000000,0.002000,1.262933,0.777567,-0.738061,-0.158710,1.137571,-1.174318,-2.369069,-1.149927,1.300678,0.000000,0.002000,0.000000
112.000000,0.002000,9.363230,4.476460,2.122644,1.028400,0.268438,0.339942,-0.158729,-0.073185,-0.036308,nan,0.002000,0.000000
113.000000,0.002000,0.541032,-5.300856,-3.486877,0.809664,0.112012,0.546006,-0.029019,0.345331,0.224363,0.000000,0.002000,0.000000
114.000000,0.002000,1.099270,-0.982200,-1.627324,0.738312,1.036702,0.150121,-1.120643,1.018812,1.628399,nan,0.002000,0.000000
115.000000,0.002000,-1.542264,0.012673,-0.868785,0.430542,0.373237,0.135166,2.553481,-0.040338,1.772930,0.000000,0.002000,0.000000
116.000000,0.002000,-0.343229,-0.362374,0.194060,-0.510569,-0.695597,0.553889,1.284171,2.018721,-0.068743,nan,0.002000,0.000000
117.000000,0.002000,0.039318,-0.510187,0.934302,-2.591544,0.407919,0.099683,-1.611083,2.967968,-4.642995,0.000000,0.002000,0.000000
118.000000,0.002000,-0.798002,-0.365661,-0.785627,0.090802,2.033320,1.233830,1.945590,1.152060,2.168926,nan,0.002000,0.000000
119.000000,0.002000,-0.123563,0.139335,-0.547793,-2.557604,-2.942993,0.380670,0.651974,-0.388309,1.863020,0.000000,0.002000,0.000000
120.000000,0.002000,0.580822,0.822425,0.449717,0.258859,-0.194687,1.696057,-1.947571,-2.275217,-0.972337,nan,0.002000,0.000000
121.000000,0.002000,1.121636,1.538559,0.158116,-0.417115,0.292602,-0.881020,-1.906631,-2.085451,-0.316574,0.000000,0.002000,0.000000
122.000000,0.002000,-0.125325,-0.308317,0.219327,1.111056,0.521208,0.775014,-0.443341,0.840190,-0.061921,nan,0.002000,0.000000
123.000000,0.002000,0.323613,-0.895105,0.561426,1.922498,-1.774159,2.449342,-1.067333,2.880911,-1.208712,0.000000,0.002000,0.000000
124.000000,0.002000,-0.330653,0.357217,-0.184131,0.377751,-0.955984,-2.938835,0.606050,-0.840466,1.750949,nan,0.002000,0.000000
125.000000,0.002000,0.859382,-0.172661,-1.987500,1.188973,-0.212370,-0.453757,-0.786625,0.291010,1.960643,0.000000,0.002000,0.000000
126.000000,0.002000,-1.209804,-6.402349,-1.016022,0.002580,-0.225546,-0.546644,0.065612,0.377202,0.068344,nan,0.002000,0.000000
127.000000,0.002000,2.431935,0.300568,-3.661673,-1.006382,0.588677,0.098164,-0.435063,-0.039107,0.632090,0.000000,0.002000,0.000000
128.000000,0.002000,-0.025772,6.027460,1.694771,0.052399,0.323558,0.028434,-0.009432,-0.401693,-0.108788,nan,0.002000,0.000000
129.000000,0.002000,2.828847,-1.678989,-1.377065,0.762341,-0.010670,-0.199210,-0.861215,0.538628,0.423435,0.000000,0.002000,0.000000
130.000000,0.002000,0.171799,-1.173757,-0.347140,1.642118,1.840116,1.258553,-0.268307,2.784301,1.251041,nan,0.002000,0.000000
131.000000,0.002000,0.722182,0.769409,-1.637662,-1.024584,0.895867,0.245115,-1.037919,-0.862006,2.055611,0.000000,0.002000,0.000000
132.000000,0.002000,-1.455249,0.533737,-1.172580,-0.864249,-1.417134,0.215839,2.067963,-0.786717,1.707686,nan,0.002000,0.000000
133.000000,0.002000,5.383832,-1.079976,2.116580,-0.086287,0.581826,0.597954,-0.423995,0.081930,-0.166368,0.000000,0.002000,0.000000
134.000000,0.002000,-4.953718,3.128585,-3.833451,-0.027768,-0.024390,-0.536372,0.249110,-0.157452,0.196288,nan,0.002000,0.000000
135.000000,0.002000,-2.378394,-7.397928,1.752024,-0.078388,-0.482956,-0.235452,0.076937,0.271464,-0.068806,0.000000,0.002000,0.000000
136.000000,0.002000,0.914376,1.242870,-1.213206,-0.437837,-1.109996,0.249025,-1.197163,-1.618428,1.487253,nan,0.002000,0.000000
137.000000,0.002000,0.022834,0.469969,-0.714040,1.360990,2.165444,-0.026394,-0.511143,-1.407423,2.287323,0.000000,0.002000,0.000000
138.000000,0.002000,0.609314,-1.308717,-0.349883,0.237200,3.024143,0.601540,-1.525171,2.860417,0.852706,nan,0.002000,0.000000
139.000000,0.002000,-2.263192,0.713472,-0.105883,-1.885087,1.250387,0.119025,2.042197,-0.656125,0.090057,0.000000,0.002000,0.000000
140.000000,0.002000,-0.097415,1.464870,2.512551,0.910477,0.767103,-1.657969,0.023012,-0.797812,-1.451526,nan,0.002000,0.000000
141.000000,0.002000,1.332009,-7.770790,1.246314,0.323140,-0.777772,-0.321064,-0.052891,0.272758,-0.042441,0.000000,0.002000,0.000000
142.000000,0.002000,-0.656979,0.938514,-0.066296,-1.128523,1.809697,0.180372,1.779423,-2.595111,0.489497,nan,0.002000,0.000000
143.000000,0.002000,-0.101495,11.126915,3.051795,0.088997,1.391579,0.422683,0.001491,-0.147976,-0.038614,0.000000,0.002000,0.000000
144.000000,0.002000,-0.308118,1.574859,-1.123541,-0.202963,1.102719,0.137309,0.473403,-2.089932,2.532273,nan,0.002000,0.000000
145.000000,0.002000,1.008276,-0.127185,0.734371,-1.000316,-1.114254,1.911533,-2.873384,0.401174,-1.892329,0.000000,0.002000,0.000000
146.000000,0.002000,-0.440249,-0.338820,0.331692,0.753066,-0.782969,-2.327857,1.569368,1.700762,-0.917163,nan,0.002000,0.000000
147.000000,0.002000,1.256280,-0.523076,-0.668016,0.013699,1.438804,0.716152,-2.681077,1.144850,1.346045,0.000000,0.002000,0.000000
148.000000,0.002000,1.587357,2.583258,-3.144558,-0.675410,-0.472458,0.620484,-0.300151,-0.466020,0.569062,nan,0.002000,0.000000
149.000000,0.002000,-0.862435,-0.322494,0.890920,0.937197,-0.033384,1.047375,2.456613,0.875828,-1.956511,0.000000,0.002000,0.000000
150.000000,0.002000,0.013171,-0.845100,1.185299,1.989841,0.893017,0.250360,0.321024,1.888916,-2.922110,nan,0.002000,0.000000
151.000000,0.002000,0.265736,2.073349,0.929025,0.349156,-1.178584,-0.607250,-0.337307,-1.948015,-0.832365,0.000000,0.002000,0.000000
152.000000,0.002000,0.354487,-1.191337,-1.306175,0.621360,-0.881425,1.885594,-0.590961,1.878846,2.022035,nan,0.002000,0.000000
153.000000,0.002000,-0.933621,-0.446955,-0.403323,-2.823968,1.412599,-1.905205,2.139724,1.451827,0.845222,0.000000,0.002000,0.000000
154.000000,0.002000,0.259660,-0.197714,-0.010656,-1.395315,0.235406,-2.657295,-0.735131,1.018934,0.036034,nan,0.002000,0.000000
155.000000,0.002000,-0.418867,-0.581159,0.325505,-1.247590,0.762722,-1.332466,1.862439,1.711455,0.267625,0.000000,0.002000,0.000000
156.000000,0.002000,-3.351797,-0.765998,-7.445895,0.262335,-0.286829,-0.833213,0.127765,0.029033,0.244854,nan,0.002000,0.000000
157.000000,0.002000,7.733742,4.117688,5.928070,0.763007,0.568000,0.561002,-0.128508,-0.065020,-0.100817,0.000000,0.002000,0.000000
158.000000,0.002000,1.080180,0.267518,0.548984,1.664046,0.485155,-0.955844,-2.806674,-0.814357,-1.658437,nan,0.002000,0.000000
159.000000,0.002000,-1.937581,-0.789300,-0.604662,-0.296979,0.160679,1.814677,2.094188,0.841058,0.630839,0.000000,0.002000,0.000000
160.000000,0.002000,-1.787966,-0.518871,-2.047336,-0.588100,-1.103363,-1.499792,1.110319,0.308863,1.316646,nan,0.002000,0.000000
161.000000,0.002000,0.753509,1.476044,0.099709,0.772081,-1.345195,-0.938038,-1.850292,-2.677196,0.205137,0.000000,0.002000,0.000000
162.000000,0.002000,-2.839163,-7.603924,0.072342,-0.456591,-0.772920,-0.611539,0.099807,0.264365,-0.002553,nan,0.002000,0.000000
163.000000,0.002000,-0.492527,-5.173285,-3.315654,0.420699,0.006856,-0.123503,0.035537,0.367491,0.232813,0.000000,0.002000,0.000000
164.000000,0.002000,-0.072336,1.130700,0.263926,1.224056,0.065453,-1.558605,-0.339117,-3.268571,-0.657602,nan,0.002000,0.000000
165.000000,0.002000,-1.966610,-11.320342,-0.683042,-0.150717,-1.518931,0.236726,0.025548,0.147031,0.009029,0.000000,0.002000,0.000000
166.000000,0.002000,-0.336518,3.271987,-0.662047,0.197760,1.202121,0.531730,0.195079,-1.278932,0.301492,nan,0.002000,0.000000
167.000000,0.002000,1.298036,0.179925,0.177126,-1.750632,-0.444224,2.048209,-3.542142,-0.146294,-0.590188,0.000000,0.002000,0.000000
168.000000,0.002000,-0.779721,-0.666657,0.923366,-0.346778,0.884842,-0.376071,1.848746,1.646473,-2.137907,nan,0.002000,0.000000
169.000000,0.002000,0.108023,0.134719,0.574863,0.793736,-0.832276,3.096892,-0.380192,-0.685424,-1.958787,0.000000,0.002000,0.000000
170.000000,0.002000,1.447264,5.947086,-6.101373,-0.092361,0.478830,-0.473365,-0.045033,-0.173155,0.178151,nan,0.002000,0.000000
171.000000,0.002000,-7.479296,-0.159841,-1.852348,-0.403243,0.268210,-0.474501,0.303249,0.002880,0.074326,0.000000,0.002000,0.000000
172.000000,0.002000,6.648558,-4.785607,4.421410,0.480029,-0.690949,0.578470,-0.154760,0.115179,-0.109150,nan,0.002000,0.000000
173.000000,0.002000,-1.143104,0.715596,-0.053036,-2.107699,-0.882681,-0.402734,2.777136,-1.577873,0.241190,0.000000,0.002000,0.000000
174.000000,0.002000,-2.730459,-6.965056,1.624360,0.142883,-0.681723,-0.050589,0.098925,0.281747,-0.051119,nan,0.002000,0.000000
175.000000,0.002000,1.739835,1.262154,-0.039991,2.054221,-0.651634,-1.187546,-2.140490,-1.638100,-0.181035,0.000000,0.002000,0.000000
176.000000,0.002000,0.670044,1.361596,-0.620870,1.868700,0.501613,-2.221659,-1.291254,-2.469773,1.196396,nan,0.002000,0.000000
177.000000,0.002000,3.666447,-8.020342,-1.045741,0.032668,-1.171543,-0.717053,-0.099098,0.215454,0.025130,0.000000,0.002000,0.000000
178.000000,0.002000,-0.890403,-0.418369,0.475972,1.350641,-1.087822,-1.216720,2.839824,1.388594,-1.513344,nan,0.002000,0.000000
179.000000,0.002000,-0.809272,0.091406,-1.103730,-0.120792,-1.023406,1.944353,1.631190,0.022474,2.658485,0.000000,0.002000,0.000000
180.000000,0.002000,0.453109,-1.006208,0.726356,1.114068,-0.429274,1.435326,-1.211006,2.663413,-1.695851,nan,0.002000,0.000000
181.000000,0.002000,-1.359542,1.446142,-2.567973,-0.244262,0.903191,-0.180069,0.558248,-0.595308,1.066362,0.000000,0.002000,0.000000
182.000000,0.002000,2.868360,3.316258,1.596306,0.649960,-0.467401,-0.395601,-0.437679,-0.493623,-0.230653,nan,0.002000,0.000000
183.000000,0.002000,-0.903021,-1.458159,-8.343694,0.093817,-0.773181,-0.866816,0.023220,0.051195,0.258689,0.000000,0.002000,0.000000
184.000000,0.002000,-1.037250,0.447985,-0.011078,1.037339,-0.916927,-2.243508,2.918019,-1.220011,-0.002225,nan,0.002000,0.000000
185.000000,0.002000,-0.520192,0.877476,-0.035357,-0.004239,2.720020,-1.580764,1.593782,-3.037330,0.687683,0.000000,0.002000,0.000000
186.000000,0.002000,-2.528723,-0.916326,-5.246523,0.192721,-0.785492,-0.407700,0.203148,0.071903,0.417633,nan,0.002000,0.000000
187.000000,0.002000,5.386176,-2.147195,-4.602385,0.393862,-0.406302,-0.241680,-0.232958,0.095599,0.198167,0.000000,0.002000,0.000000
188.000000,0.002000,-0.184731,-0.761723,-1.559935,-0.548867,1.450609,-1.191329,0.185569,1.240111,2.655143,nan,0.002000,0.000000
189.000000,0.002000,-1.931315,-3.127770,0.962056,-1.153962,-0.243007,0.486688,0.508143,0.841916,-0.248091,0.000000,0.002000,0.000000
190.000000,0.002000,-1.365236,-0.106063,-0.661827,-0.457739,1.557471,0.415265,2.177169,0.453526,1.792603,nan,0.002000,0.000000
191.000000,0.002000,-0.734750,-1.095409,0.733092,-1.322532,-0.761289,1.057816,1.437469,2.101142,-1.627270,0.000000,0.002000,0.000000
192.000000,0.002000,-0.916101,0.343459,-0.610086,-0.840871,1.717937,-2.030529,2.765706,-0.999985,1.771773,nan,0.002000,0.000000
193.000000,0.002000,0.270952,-0.660755,-0.073711,0.189728,2.100445,0.853695,-0.371721,2.065745,0.882558,0.000000,0.002000,0.000000
194.000000,0.002000,-6.150044,-2.550521,3.554476,-0.195975,-0.540325,0.085151,0.257008,0.111437,-0.143696,nan,0.002000,0.000000
195.000000,0.002000,0.901042,-0.377741,0.180817,-0.294368,1.408871,-2.639548,-1.270755,-0.488875,0.478093,0.000000,0.002000,0.000000
196.000000,0.002000,0.418209,0.771003,-0.356542,2.057518,-0.857413,-1.003792,-0.923921,-2.279777,1.564251,nan,0.002000,0.000000
197.000000,0.002000,0.780247,-4.090737,-2.327848,0.077789,1.381406,0.014088,-0.106400,0.575648,0.333136,0.000000,0.002000,0.000000
198.000000,0.002000,-0.731551,0.149618,0.996494,-1.957596,-0.253719,0.308135,2.209780,-0.776786,-2.805478,nan,0.002000,0.000000
199.000000,0.002000,-0.386690,0.567923,1.308556,-0.791831,-0.959344,1.148362,0.818679,-1.006201,-2.617448,0.000000,0.002000,0.000000
200.000000,0.002000,0.629825,0.651227,1.225708,0.288004,1.476706,-0.092320,-1.334408,-1.444135,-2.661051,nan,0.002000,0.000000
201.000000,0.002000,6.942021,-2.776638,5.369672,0.641767,-0.251110,0.483498,-0.167995,0.071109,-0.136719,0.000000,0.002000,0.000000
202.000000,0.002000,2.671106,4.328244,1.206704,-0.081612,-0.657213,-0.237263,-0.261855,-0.498935,-0.114766,nan,0.002000,0.000000
203.000000,0.002000,-0.431364,-1.353339,1.347954,0.021499,-1.827008,-0.626573,0.614740,2.002676,-1.731657,0.000000,0.002000,0.000000
204.000000,0.002000,-0.588304,1.878506,0.816803,-1.578830,-0.696470,-1.016261,0.690699,-2.432751,-0.932924,nan,0.002000,0.000000
205.000000,0.002000,-0.068067,0.714380,0.840411,1.888283,2.176098,-0.959448,0.224827,-1.976471,-2.311264,0.000000,0.002000,0.000000
206.000000,0.002000,-1.325701,-0.658786,-0.336058,0.124598,-0.729830,0.936431,2.702278,1.718319,0.986793,nan,0.002000,0.000000
207.000000,0.002000,-6.857023,5.158815,-2.692815,-0.492525,0.438101,-0.168837,0.171082,-0.126756,0.061182,0.000000,0.002000,0.000000
208.000000,0.002000,0.214157,-0.838420,-1.163632,-1.042029,0.920043,0.713621,-0.575630,1.905743,2.229594,nan,0.002000,0.000000
209.000000,0.002000,0.824822,1.070112,0.622951,-0.853997,0.510022,-1.458223,-2.111132,-2.179313,-1.535002,0.000000,0.002000,0.000000
210.000000,0.002000,-2.334607,0.219642,0.507536,0.699519,-0.721727,1.315839,2.139975,-0.166594,-0.417893,nan,0.002000,0.000000
211.000000,0.002000,-0.057373,0.191098,-0.480351,1.354682,-1.516973,0.707417,0.120847,-0.590726,1.457260,0.000000,0.002000,0.000000
212.000000,0.002000,0.059355,0.186554,-0.244425,-0.985078,-0.654967,1.171610,-0.260459,-0.453681,1.905850,nan,0.002000,0.000000
213.000000,0.002000,-0.842863,0.729061,-0.379178,0.149042,0.536071,-2.652701,1.947679,-1.873952,1.054278,0.000000,0.002000,0.000000
214.000000,0.002000,2.708050,-3.727323,-3.308757,0.262133,0.226020,0.561147,-0.233234,0.335864,0.293334,nan,0.002000,0.000000
215.000000,0.002000,-1.913648,1.855791,1.177909,-0.090384,0.177830,1.531956,1.094418,-1.031451,-0.662223,0.000000,0.002000,0.000000
216.000000,0.002000,0.162316,0.497893,-1.524124,0.235967,-1.205362,0.414358,-0.277637,-0.901572,2.663344,nan,0.002000,0.000000
217.000000,0.002000,0.007174,-1.808869,1.363490,0.497713,0.148641,-1.224932,-0.061941,1.890224,-1.325584,0.000000,0.002000,0.000000
218.000000,0.002000,-2.900253,-5.022182,-4.218652,-0.911840,-0.142320,-0.064534,0.132578,0.235843,0.200107,nan,0.002000,0.000000
219.000000,0.002000,0.196405,-0.026339,-0.850162,0.763470,1.375977,-0.491981,-0.808527,0.223234,3.205705,0.000000,0.002000,0.000000
220.000000,0.002000,0.807086,-0.526736,-2.335998,1.575526,-0.504291,-1.661634,-0.602314,0.394051,1.658088,nan,0.002000,0.000000
221.000000,0.002000,-2.078610,2.883419,2.748744,-0.183158,-0.751182,0.108806,0.348584,-0.498576,-0.489956,0.000000,0.002000,0.000000
222.000000,0.002000,0.329665,0.077013,0.661026,1.219599,-1.570626,-0.608208,-1.416474,-0.487538,-1.870257,nan,0.002000,0.000000
223.000000,0.002000,1.469235,-5.203241,2.603199,0.131170,-0.173346,-0.217638,-0.114752,0.403944,-0.191157,0.000000,0.002000,0.000000
224.000000,0.002000,-0.888174,6.617143,-2.712787,0.056910,0.136866,-0.678629,0.043843,-0.312981,0.126442,nan,0.002000,0.000000
225.000000,0.002000,0.612262,-0.363051,0.676567,-1.087728,-2.154835,1.889482,-2.301344,1.227809,-1.588491,0.000000,0.002000,0.000000
226.000000,0.002000,1.263037,0.383183,0.710627,-0.936299,0.688859,-0.988852,-2.491216,-0.432001,-1.479661,nan,0.002000,0.000000
227.000000,0.002000,0.451411,0.509290,0.260845,0.793685,1.927567,1.861999,-1.667750,-1.909154,-0.890739,0.000000,0.002000,0.000000
228.000000,0.002000,2.921172,2.386074,1.009168,-0.388467,-0.579525,1.237561,-0.734418,-0.581313,-0.238407,nan,0.002000,0.000000
229.000000,0.002000,4.870411,0.186533,-1.374383,-0.591536,1.318959,-0.711255,-0.571898,-0.018125,0.156603,0.000000,0.002000,0.000000
230.000000,0.002000,0.248245,-6.062792,-8.604739,-0.182836,-0.891019,-0.970123,-0.004709,0.106016,0.144907,nan,0.002000,0.000000
231.000000,0.002000,0.196872,-0.138088,0.677318,3.058593,0.957638,0.601149,-0.996654,0.803777,-1.851757,0.000000,0.002000,0.000000
232.000000,0.002000,-2.655667,-1.833100,1.761846,-0.645512,-0.532985,0.421439,0.761629,0.554893,-0.518899,nan,0.002000,0.000000
233.000000,0.002000,0.132260,1.273561,0.510375,-0.178751,0.647083,1.073403,-0.093733,-2.888630,-1.101135,0.000000,0.002000,0.000000
234.000000,0.002000,0.891552,-0.050759,-2.027879,-0.563836,-1.501660,1.901290,-0.701456,-0.170843,2.226181,nan,0.002000,0.000000
235.000000,0.002000,2.526851,1.747030,-1.096781,0.468552,-0.570151,-0.053952,-1.008985,-0.723774,0.472726,0.000000,0.002000,0.000000
236.000000,0.002000,0.133557,4.080041,-3.930042,0.748172,-0.020510,0.279155,-0.020293,-0.394477,0.343941,nan,0.002000,0.000000
237.000000,0.002000,1.417914,0.254313,-0.977630,-0.019965,-1.816300,-0.617281,-2.363641,-0.296700,1.716897,0.000000,0.002000,0.000000
238.000000,0.002000,-0.621145,-1.341417,-0.487191,-1.115317,0.837851,0.239930,1.141215,2.561951,0.972088,nan,0.002000,0.000000
239.000000,0.002000,0.253084,-1.358884,-0.096886,1.698381,-1.025955,-1.193350,-0.828492,3.366551,0.406901,0.000000,0.002000,0.000000
240.000000,0.002000,1.209598,0.018418,-0.202667,-1.342330,-1.388021,0.673534,-3.898711,1.003667,1.952625,nan,0.002000,0.000000
241.000000,0.002000,-1.062058,-1.146503,0.420884,-0.299521,1.568831,-0.583115,1.953406,2.235731,-0.794807,0.000000,0.002000,0.000000
242.000000,0.002000,-0.237910,6.014030,-1.658534,-0.137364,-0.292090,-0.185883,-0.012278,-0.438324,0.107740,nan,0.002000,0.000000
243.000000,0.002000,0.199045,-0.351499,0.098489,-1.808920,2.408014,0.977458,-0.750661,1.264516,0.031466,0.000000,0.002000,0.000000
244.000000,0.002000,0.043003,0.876974,0.991772,-2.156280,-0.038633,0.592271,-0.197938,-2.187008,-2.180421,nan,0.002000,0.000000
245.000000,0.002000,3.576409,2.933009,-7.869582,-0.542079,0.644614,-1.129556,-0.089280,-0.074471,0.196091,0.000000,0.002000,0.000000
246.000000,0.002000,4.725662,-2.237813,3.254837,0.104253,-0.144898,0.085652,-0.332995,0.160744,-0.234338,nan,0.002000,0.000000
247.000000,0.002000,2.789299,-1.307397,-3.365902,-0.843245,-0.525416,-0.199837,-0.441705,0.205362,0.521451,0.000000,0.002000,0.000000
248.000000,0.002000,0.025048,0.560475,1.486456,-0.635415,0.606534,-2.028915,-0.016330,-1.045624,-2.970071,nan,0.002000,0.000000
249.000000,0.002000,0.096889,0.399865,-0.018231,-1.481289,0.403262,1.041342,0.018078,-1.280275,0.454299,0.000000,0.002000,0.000000
250.000000,0.002000,-0.023637,0.261231,2.358700,0.526457,-0.836107,0.109694,0.101122,-0.178092,-2.181001,nan,0.002000,0.000000
251.000000,0.002000,-5.444703,-2.093315,-5.071838,-0.273430,-0.544771,-0.324557,0.210937,0.081407,0.197464,0.000000,0.002000,0.000000
252.000000,0.002000,0.614361,-0.164792,0.489470,0.567345,2.698918,-1.219066,-2.054187,0.935256,-0.875774,nan,0.002000,0.000000
253.000000,0.002000,-0.654651,1.151675,-0.008641,1.485962,0.765661,0.339006,1.072890,-2.731664,0.431388,0.000000,0.002000,0.000000
254.000000,0.002000,2.903951,0.147938,0.192352,0.885777,-1.148795,0.900441,-1.608717,-0.039583,-0.133580,nan,0.002000,0.000000
255.000000,0.002000,0.894726,1.057839,1.400447,-0.970800,1.313954,0.051972,-1.399204,-1.431890,-2.230927,0.000000,0.002000,0.000000
256.000000,0.002000,-1.817492,2.117695,0.846893,0.639043,-0.248784,-0.113372,1.028028,-1.222859,-0.422671,nan,0.002000,0.000000
257.000000,0.002000,0.616987,1.156389,0.919528,0.540006,-1.652659,-1.388784,-1.205191,-2.360618,-2.057948,0.000000,0.002000,0.000000
258.000000,0.002000,-0.404468,0.944776,-0.727555,-0.183386,-0.925116,0.385050,1.170855,-2.142401,2.245184,nan,0.002000,0.000000
259.000000,0.002000,0.485520,1.124021,-0.238499,-1.963979,-0.854410,1.670234,-2.084408,-2.786386,1.037662,0.000000,0.002000,0.000000
260.000000,0.002000,-0.291708,1.917525,-1.087277,0.552969,2.350889,0.564655,0.301408,-2.204292,1.242151,nan,0.002000,0.000000
261.000000,0.002000,-1.606404,-1.240086,-0.812034,-0.192926,1.747305,0.618158,1.563568,1.354566,0.911109,0.000000,0.002000,0.000000
262.000000,0.002000,-1.222395,1.095293,-0.697808,2.754383,-0.321452,-0.832486,1.995595,-1.873905,1.331559,nan,0.002000,0.000000
263.000000,0.002000,1.816990,0.877035,0.451741,-0.466293,-0.045757,-0.987043,-2.247490,-1.156275,-0.606466,0.000000,0.002000,0.000000
264.000000,0.002000,1.502713,-1.908618,1.047352,-0.504621,0.766705,-0.080132,-1.083653,1.281854,-0.667065,nan,0.002000,0.000000
265.000000,0.002000,-0.645156,0.710356,-0.206374,0.762384,0.615733,2.740902,0.855603,-1.349586,1.692252,0.000000,0.002000,0.000000
266.000000,0.002000,1.493956,-2.127988,-0.414400,-1.487511,1.491655,-0.337534,-1.124000,1.361110,0.300341,nan,0.002000,0.000000
267.000000,0.002000,0.517947,-0.404892,0.971446,2.968938,-0.782828,1.984705,-1.594266,1.038689,-3.476335,0.000000,0.002000,0.000000
268.000000,0.002000,0.697773,-0.134526,-0.425114,-0.446202,-2.071117,1.738045,-2.489532,0.978401,1.393809,nan,0.002000,0.000000
269.000000,0.002000,-1.087799,-0.163367,0.759934,0.042146,0.552661,1.160866,2.603394,0.072451,-1.257760,0.000000,0.002000,0.000000
270.000000,0.002000,-0.502176,-3.148410,-0.582451,1.178124,0.715479,1.085245,0.184174,1.300065,0.200835,nan,0.002000,0.000000
271.000000,0.002000,-0.122949,-1.393889,-0.131203,1.135798,-0.368015,-1.206423,0.409865,3.249433,0.411347,0.000000,0.002000,0.000000
272.000000,0.002000,0.235532,-5.619056,3.053233,-0.250099,-0.078682,0.811466,0.030459,0.353895,-0.239650,nan,0.002000,0.000000
273.000000,0.002000,-0.409282,-0.960892,0.740633,-2.059561,1.690376,-0.127248,1.217176,2.824867,-1.652884,0.000000,0.002000,0.000000
274.000000,0.002000,-0.047796,-0.630490,-0.032938,0.294314,0.242982,0.619732,0.433966,2.452526,0.240617,nan,0.002000,0.000000
275.000000,0.002000,-1.202989,0.912531,1.147980,0.066108,-0.938498,-1.074773,1.878926,-1.348934,-1.819402,0.000000,0.002000,0.000000
276.000000,0.002000,-0.047489,-5.395946,-8.490643,0.071063,-0.659339,-0.842959,0.003129,0.102413,0.160701,nan,0.002000,0.000000
277.000000,0.002000,-0.309899,0.928785,-0.601448,1.422069,-1.997238,1.000262,1.020220,-2.089912,2.258023,0.000000,0.002000,0.000000
278.000000,0.002000,-0.694189,0.095041,0.210450,-2.043921,0.985114,0.578454,2.043703,-0.072504,-0.845339,nan,0.002000,0.000000
279.000000,0.002000,-0.061088,0.356729,-0.281585,-0.361743,2.818678,-0.788213,0.082526,-0.843089,1.217479,0.000000,0.002000,0.000000
280.000000,0.002000,-0.696546,-0.443255,-0.510945,-0.529502,0.241372,0.484762,3.241528,1.559280,0.988295,nan,0.002000,0.000000
281.000000,0.002000,-0.878020,-1.333646,1.482534,0.852193,-0.174713,1.116764,0.390027,1.211460,-1.201915,0.000000,0.002000,0.000000
282.000000,0.002000,2.846884,0.327960,-0.655184,-0.312984,0.758313,1.878601,-1.461094,-0.204041,0.412640,nan,0.002000,0.000000
283.000000,0.002000,-0.240290,-0.887688,-0.282624,-2.477814,0.345229,0.972290,0.925592,2.024447,1.346280,0.000000,0.002000,0.000000
284.000000,0.002000,-7.106549,1.980500,5.797161,-0.904976,-0.142569,0.541968,0.165257,-0.043216,-0.136653,nan,0.002000,0.000000
285.000000,0.002000,-1.231230,-0.870846,-1.222681,-0.200804,0.098972,-0.147516,1.794850,1.279036,1.739608,0.000000,0.002000,0.000000
286.000000,0.002000,-0.858842,1.842369,0.403535,-2.335009,-0.065306,-0.048727,1.096325,-2.550312,-0.354446,nan,0.002000,0.000000
287.000000,0.002000,0.288478,0.131625,-0.931668,-0.020874,1.060841,-1.869715,-1.116868,-0.341060,2.967858,0.000000,0.002000,0.000000
288.000000,0.002000,0.017843,-0.492906,0.923977,0.564242,-0.164973,0.292557,1.608749,0.508775,-3.232707,nan,0.002000,0.000000
289.000000,0.002000,0.566376,0.898109,-0.043921,1.402251,0.738054,0.028050,-2.170136,-3.317785,2.292346,0.000000,0.002000,0.000000
290.000000,0.002000,-0.716529,-0.817536,1.283235,0.084330,0.482644,-0.387480,1.806826,2.011685,-1.990170,nan,0.002000,0.000000
291.000000,0.002000,0.972342,2.316356,-4.563695,0.404343,-0.494359,0.369533,-0.116378,-0.275331,0.535744,0.000000,0.002000,0.000000
292.000000,0.002000,1.271873,0.770614,0.172453,0.287805,-1.250445,1.077147,-2.802645,-1.466306,-0.351314,nan,0.002000,0.000000
293.000000,0.002000,-0.725092,1.024466,-0.159055,-1.021833,0.183117,-0.152458,1.863154,-2.525048,0.761536,0.000000,0.002000,0.000000
294.000000,0.002000,0.704242,1.203696,2.230019,1.459392,-0.178376,1.720260,-0.595297,-0.830634,-1.622641,nan,0.002000,0.000000
295.000000,0.002000,-0.420110,0.038026,0.105836,0.689232,0.044101,2.542411,1.709531,0.385550,-0.123886,0.000000,0.002000,0.000000
296.000000,0.002000,-1.114141,0.755321,0.792640,0.154979,-0.779137,1.977108,2.405617,-1.316982,-1.941510,nan,0.002000,0.000000
297.000000,0.002000,-0.502978,-0.569076,1.598008,-0.673809,0.852360,0.978277,0.859108,1.012784,-2.730338,0.000000,0.002000,0.000000
298.000000,0.002000,-2.163981,-1.401749,0.455299,-1.641003,-0.359770,0.152079,1.504500,1.044872,-0.314022,nan,0.002000,0.000000
299.000000,0.002000,3.985384,0.837422,2.586431,-0.058455,0.638103,-0.017209,-0.547124,-0.095701,-0.353469,0.000000,0.002000,0.000000
300.000000,0.002000,1.362768,1.647518,2.700697,-0.488648,1.814537,0.523249,-0.451733,-0.638186,-0.988917,nan,0.002000,0.000000
301.000000,0.002000,-0.206328,0.430618,0.707761,1.705377,-0.854171,-2.437023,0.672198,-1.033870,-2.169358,0.000000,0.002000,0.000000
302.000000,0.002000,-2.002590,0.435792,1.290508,0.253150,-0.665374,0.754709,1.766110,-0.419145,-1.157958,nan,0.002000,0.000000
303.000000,0.002000,-5.352941,-1.379285,-0.831035,0.044116,-0.469234,0.564226,0.494620,0.139601,0.081023,0.000000,0.002000,0.000000
304.000000,0.002000,0.514787,-0.012372,-0.460019,1.094862,2.511669,0.987271,-1.745616,-0.103404,2.092384,nan,0.002000,0.000000
305.000000,0.002000,0.618503,-0.034927,-0.226751,-2.331045,-3.141382,0.321702,-2.144690,0.268637,0.597269,0.000000,0.002000,0.000000
306.000000,0.002000,-0.065090,0.079982,0.145103,-2.698513,0.248959,-0.393596,-0.072072,-0.067034,0.055998,nan,0.002000,0.000000
307.000000,0.002000,-0.625185,-1.538264,0.476134,-0.307411,0.563301,1.748129,1.050220,2.837333,-0.892923,0.000000,0.002000,0.000000
308.000000,0.002000,3.641490,-5.208399,-2.528018,0.372207,0.206465,-0.056499,-0.193055,0.279669,0.132070,nan,0.002000,0.000000
309.000000,0.002000,5.266012,-3.665053,2.471972,0.247263,0.332977,0.037254,-0.261936,0.196027,-0.115028,0.000000,0.002000,0.000000
310.000000,0.002000,-0.253381,0.549334,1.446768,-1.148715,1.022907,-1.309687,-1.594863,-1.854062,-3.336614,nan,0.002000,0.000000
311.000000,0.002000,-2.516691,-3.920512,3.931592,0.546798,-0.075838,0.096641,0.179684,0.295712,-0.304292,0.000000,0.002000,0.000000
312.000000,0.002000,-0.904472,0.148374,1.145246,0.808695,-0.394499,-3.100713,1.909438,-0.175786,-2.645485,nan,0.002000,0.000000
313.000000,0.002000,-3.580182,-2.710287,-3.618438,-0.134356,0.662664,-0.014137,0.300443,0.227158,0.296883,0.000000,0.002000,0.000000
314.000000,0.002000,-0.538696,-0.322742,1.725553,-0.445193,1.227193,-0.728532,0.861087,0.631395,-2.732208,nan,0.002000,0.000000
315.000000,0.002000,-2.981037,-2.527850,-0.382656,-0.284741,0.364180,-0.027092,0.739069,0.631544,0.105323,0.000000,0.002000,0.000000
316.000000,0.002000,-1.268401,-0.438458,-2.141186,1.315668,0.335314,-0.122831,0.943419,0.382721,1.681589,nan,0.002000,0.000000
317.000000,0.002000,-0.055874,1.028021,-1.627155,0.711495,-0.798358,-0.332334,0.127732,-1.363557,2.289610,0.000000,0.002000,0.000000
318.000000,0.002000,-0.256063,1.533401,-1.044080,0.324801,0.484447,1.684451,-0.763301,-1.493242,1.177581,nan,0.002000,0.000000
319.000000,0.002000,-1.300073,-0.482013,0.032445,-0.975366,-0.377369,-1.878832,3.157413,1.296420,0.392567,0.000000,0.002000,0.000000
320.000000,0.002000,-1.084154,-7.256118,-5.043699,-0.285196,-0.469344,-0.813159,0.027241,0.194319,0.132995,nan,0.002000,0.000000
321.000000,0.002000,0.841829,0.794649,-0.458067,-0.371549,-1.661871,0.280756,-2.596484,-1.676613,1.492879,0.000000,0.002000,0.000000
322.000000,0.002000,-0.715871,-0.669210,0.114253,-1.673038,1.731306,0.374123,1.869394,2.913215,-0.218607,nan,0.002000,0.000000
323.000000,0.002000,-0.075186,0.364434,1.120758,0.383008,-0.522344,2.540640,-0.172589,-1.182660,-3.277078,0.000000,0.002000,0.000000
324.000000,0.002000,-0.726793,0.018931,0.047565,1.371435,0.745805,-1.886986,2.762037,1.321832,-0.154621,nan,0.002000,0.000000
325.000000,0.002000,0.951193,2.626350,-4.066234,0.346751,1.380696,0.523764,-0.145112,-0.350923,0.513558,0.000000,0.002000,0.000000
326.000000,0.002000,-1.457355,1.150644,-1.664351,0.902475,-1.846403,0.982598,1.215240,-0.907040,1.338562,nan,0.002000,0.000000
327.000000,0.002000,-0.252161,0.594615,0.106027,0.020948,-0.844804,1.325807,0.578751,-1.858425,0.013033,0.000000,0.002000,0.000000
328.000000,0.002000,-1.333319,0.728131,-0.724865,1.065059,0.337934,-1.120098,2.508606,-1.406007,1.366327,nan,0.002000,0.000000
329.000000,0.002000,1.100716,0.003970,-0.153948,1.079313,1.134131,-0.766665,-2.494844,0.071448,0.064562,0.000000,0.002000,0.000000
330.000000,0.002000,-0.298393,1.122489,0.392411,1.596247,-1.329164,-1.093100,0.412455,-1.786829,-1.273022,nan,0.002000,0.000000
331.000000,0.002000,-0.889948,0.015635,-0.105144,0.821474,0.163712,-0.968020,3.086136,0.455711,0.394300,0.000000,0.002000,0.000000
332.000000,0.002000,0.446989,0.827549,-0.841375,-0.648771,-1.260732,0.311525,-0.756555,-2.054434,2.470084,nan,0.002000,0.000000
333.000000,0.002000,0.427260,0.150330,2.904984,1.315834,0.130431,0.814103,-0.296135,-0.016971,-1.639897,0.000000,0.002000,0.000000
334.000000,0.002000,-1.124781,1.255561,0.098637,-0.948582,1.106011,-1.734534,2.169732,-2.181020,-0.415881,nan,0.002000,0.000000
335.000000,0.002000,0.628349,-0.555451,-1.063062,-0.309255,0.411776,0.125245,-1.462292,1.402519,2.574119,0.000000,0.002000,0.000000
336.000000,0.002000,-0.389925,0.155265,-0.830684,-1.364079,-2.173966,0.818980,1.165151,-0.726597,2.504987,nan,0.002000,0.000000
337.000000,0.002000,0.352525,1.397340,0.144791,-0.102682,-0.851196,2.173817,-0.913501,-3.309489,-0.143060,0.000000,0.002000,0.000000
338.000000,0.002000,4.271044,4.119779,-2.478657,0.641469,0.175029,0.569610,-0.300249,-0.263642,0.154471,nan,0.002000,0.000000
339.000000,0.002000,0.951133,-0.132352,0.431290,0.259682,1.967697,-1.382330,-3.112427,0.108321,-1.320586,0.000000,0.002000,0.000000
340.000000,0.002000,-1.444763,3.734633,2.164331,-0.830540,-0.467292,-0.302387,0.241947,-0.617798,-0.355641,nan,0.002000,0.000000
341.000000,0.002000,0.440565,-1.037479,-0.503786,-1.324516,0.449157,1.565558,-1.543404,3.057507,1.036940,0.000000,0.002000,0.000000
342.000000,0.002000,1.411468,-2.166136,-6.796386,-0.209982,0.324727,-0.573474,-0.030770,0.090944,0.336716,nan,0.002000,0.000000
343.000000,0.002000,-0.450281,-1.185589,0.941656,-1.438370,1.694075,0.641549,1.070696,2.590046,-1.722655,0.000000,0.002000,0.000000
344.000000,0.002000,1.105250,0.112456,0.496117,-0.011264,-1.201362,0.689454,-2.936796,-0.454796,-1.681053,nan,0.002000,0.000000
345.000000,0.002000,-1.977680,-0.137420,-0.412889,-1.118194,-0.741178,0.381006,0.629067,0.824818,1.073683,0.000000,0.002000,0.000000
346.000000,0.002000,2.780832,-3.947934,3.517101,0.467104,0.384770,0.361550,-0.226341,0.313647,-0.272142,nan,0.002000,0.000000
347.000000,0.002000,-0.434906,1.486800,-2.108106,-0.327471,1.983800,0.181891,0.369729,-1.040797,1.453594,0.000000,0.002000,0.000000
348.000000,0.002000,1.155977,1.339605,0.358150,0.746768,0.475106,-0.214248,-2.034797,-2.144990,-0.688965,nan,0.002000,0.000000
349.000000,0.002000,1.191188,1.437236,-0.243625,0.729180,-1.152566,1.550475,-1.865430,-2.018883,0.454000,0.000000,0.002000,0.000000
350.000000,0.002000,-1.027264,-0.384092,-0.581384,-0.695182,0.884543,-2.585747,2.759757,1.014330,2.068242,nan,0.002000,0.000000
351.000000,0.002000,1.187469,1.782840,-2.738459,0.676128,0.602198,-0.054712,-0.421541,-0.585955,0.923888,0.000000,0.002000,0.000000
352.000000,0.002000,1.677053,-0.556154,-3.458281,0.866790,1.404462,-0.684111,-0.421344,0.145363,0.847990,nan,0.002000,0.000000
353.000000,0.002000,-2.438756,-5.335989,-2.708851,-0.356991,0.223285,-0.144998,0.147042,0.330124,0.164138,0.000000,0.002000,0.000000
354.000000,0.002000,-0.323692,-0.811072,-1.263353,0.361608,-0.039171,1.351180,-0.593204,0.499253,3.277103,nan,0.002000,0.000000
355.000000,0.002000,0.966798,-0.006053,-0.266760,0.191960,0.171485,-0.590877,-2.572215,0.153286,1.065478,0.000000,0.002000,0.000000
356.000000,0.002000,-0.684553,-0.300030,-0.061336,0.616338,0.385285,2.056774,2.863862,0.095046,2.018977,nan,0.002000,0.000000
357.000000,0.002000,1.139896,3.723004,1.661747,-0.242030,-0.675899,-0.953711,-0.220167,-0.720645,-0.327187,0.000000,0.002000,0.000000
358.000000,0.002000,1.441925,-0.163271,1.220805,0.980097,-1.817083,-1.390283,-2.110649,0.373318,-1.643686,nan,0.002000,0.000000
359.000000,0.002000,-1.223135,0.284828,-0.853490,0.468407,1.807866,1.645173,2.199040,-0.683231,2.000018,0.000000,0.002000,0.000000
360.000000,0.002000,-3.563480,-0.446827,-0.067405,1.154981,-0.904885,0.333278,1.109830,0.167785,0.030039,nan,0.002000,0.000000
361.000000,0.002000,-0.566714,0.243574,-0.851560,-0.273708,-0.499722,1.309130,1.650332,-0.402030,2.227788,0.000000,0.002000,0.000000
362.000000,0.002000,-0.373236,1.090770,-0.473343,1.541983,1.361068,1.115920,0.946275,-3.262585,1.637392,nan,0.002000,0.000000
363.000000,0.002000,-0.604151,-0.207096,0.582477,-0.652011,-1.384859,2.289319,2.518156,0.998171,-1.820149,0.000000,0.002000,0.000000
364.000000,0.002000,-1.451811,-1.001274,-0.228354,-0.276203,1.201068,0.334764,2.243571,1.689255,0.353999,nan,0.002000,0.000000
365.000000,0.002000,3.527541,2.350221,-10.838184,0.337339,0.276349,-1.374348,-0.044488,-0.029584,0.136615,0.000000,0.002000,0.000000
366.000000,0.002000,0.514105,-0.358840,-0.859785,-0.403663,0.990743,-0.499101,-1.342067,1.077441,2.744429,nan,0.002000,0.000000
367.000000,0.002000,-1.361346,0.084695,-1.343853,1.073337,0.225796,-0.275055,2.200092,-0.555626,2.248395,0.000000,0.002000,0.000000
368.000000,0.002000,-0.676509,3.557463,-1.226926,1.065543,-0.702493,-0.625897,0.180750,-0.934294,0.332160,nan,0.002000,0.000000
369.000000,0.002000,1.212053,0.685405,-0.390371,0.700470,0.801137,1.190399,-2.913837,-1.964855,0.402166,0.000000,0.002000,0.000000
370.000000,0.002000,0.577781,2.173783,0.076493,0.117162,-0.226598,1.414350,-0.592488,-2.372628,-0.119741,nan,0.002000,0.000000
371.000000,0.002000,-0.789808,0.557534,0.123444,1.855482,-2.233062,-0.666569,2.474375,-1.575901,-0.384825,0.000000,0.002000,0.000000
372.000000,0.002000,3.652779,-4.151487,-5.750129,0.357074,-0.347887,-0.718727,-0.142688,0.154784,0.200273,nan,0.002000,0.000000
373.000000,0.002000,-1.054065,0.514686,0.841249,-0.738682,-0.679114,-3.095382,2.365949,-1.029214,-1.997748,0.000000,0.002000,0.000000
374.000000,0.002000,1.351702,-1.412976,-1.270168,0.067753,-0.843739,-2.151702,-1.238918,0.961979,1.116351,nan,0.002000,0.000000
375.000000,0.002000,3.763184,-3.969677,2.349451,-0.381131,-0.265773,0.484280,-0.293855,0.312256,-0.183697,0.000000,0.002000,0.000000
376.000000,0.002000,0.516263,-0.961137,0.545303,0.096033,0.688489,0.173924,-1.228407,2.966010,-1.244463,nan,0.002000,0.000000
377.000000,0.002000,-2.081473,-1.155115,6.077640,-0.226903,-0.623485,0.184834,0.119489,0.072101,-0.372123,0.000000,0.002000,0.000000
378.000000,0.002000,-0.393532,1.522179,-0.267405,-0.748159,2.843868,-1.344261,0.967549,-3.387063,0.715150,nan,0.002000,0.000000
379.000000,0.002000,-0.139440,-0.443103,0.129890,-0.042639,-1.084707,0.344675,0.742307,1.963154,0.358384,0.000000,0.002000,0.000000
380.000000,0.002000,0.097465,-0.599076,1.468914,-0.386080,-1.174781,-0.789230,-0.310557,1.132279,-2.915030,nan,0.002000,0.000000
381.000000,0.002000,7.615911,1.818054,-5.122453,0.921339,0.082415,-0.538331,-0.178610,-0.043099,0.119163,0.000000,0.002000,0.000000
382.000000,0.002000,-0.733004,-1.136520,0.683289,1.631658,-0.895576,0.401478,1.481874,2.723383,-0.897011,nan,0.002000,0.000000
383.000000,0.002000,0.163746,0.164107,-0.779256,1.885266,0.514049,0.533244,-0.595923,-0.623302,2.636447,0.000000,0.002000,0.000000
384.000000,0.002000,0.080889,0.843448,-0.065595,-0.344757,-2.255982,-1.539847,-0.296567,-2.919720,0.025690,nan,0.002000,0.000000
385.000000,0.002000,-0.374258,-0.264300,0.588552,1.464372,1.807215,-1.351313,1.578523,1.271751,-1.585430,0.000000,0.002000,0.000000
386.000000,0.002000,-0.883594,1.263169,-0.150389,1.611147,-1.261362,0.420904,1.861171,-2.578283,0.242964,nan,0.002000,0.000000
387.000000,0.002000,-7.745346,0.222247,4.823936,-0.804362,-0.230366,0.579293,0.195826,-0.005178,-0.121339,0.000000,0.002000,0.000000
388.000000,0.002000,0.793605,0.192960,1.130284,0.858830,-0.517870,1.997270,-2.428338,-0.317876,-2.382543,nan,0.002000,0.000000
389.000000,0.002000,-1.411583,-0.096276,-2.363333,-1.272754,1.100809,-0.129060,0.830188,0.043560,1.462116,0.000000,0.002000,0.000000
390.000000,0.002000,0.773491,0.305477,0.882390,-1.509180,-1.549885,-0.523393,-2.257952,-0.598944,-2.181753,nan,0.002000,0.000000
391.000000,0.002000,-0.357538,0.320604,-0.115993,1.377470,-2.663590,1.323530,0.622979,-0.490948,0.717326,0.000000,0.002000,0.000000
392.000000,0.002000,0.045012,1.427285,-0.005832,2.044236,-0.678733,-0.542178,-0.176479,-3.116322,-0.125689,nan,0.002000,0.000000
393.000000,0.002000,0.268082,0.047806,-0.691794,-1.667467,-1.811600,0.837815,-0.772368,-0.732934,2.352652,0.000000,0.002000,0.000000
394.000000,0.002000,-0.407519,1.300047,0.518187,1.953940,-0.836328,-0.657160,0.782627,-2.912220,-1.626345,nan,0.002000,0.000000
395.000000,0.002000,-0.015973,-1.557029,1.763894,-0.157309,-0.450859,-0.215227,-0.074686,1.530702,-1.627979,0.000000,0.002000,0.000000
396.000000,0.002000,-0.211652,-0.824562,-0.561278,-0.692972,-1.247428,0.073333,0.197012,2.512433,1.653838,nan,0.002000,0.000000
397.000000,0.002000,0.339711,-0.245008,-0.233370,-0.840393,-2.460514,-1.372511,-1.063054,7.023685,2.788293,0.000000,0.002000,0.000000
398.000000,0.002000,-4.530417,-0.274072,0.940464,0.894022,0.058543,-0.298014,0.695698,0.051337,-0.151726,nan,0.002000,0.000000
399.000000,0.002000,-4.833896,1.606417,3.084591,0.438768,0.278444,-0.054627,0.372363,-0.138403,-0.257798,0.000000,0.002000,0.000000
400.000000,0.002000,1.463123,-3.088993,2.133456,-1.169382,-0.048425,-0.660335,-0.327891,0.686779,-0.474382,nan,0.002000,0.000000
401.000000,0.002000,8.174927,1.727818,-7.514640,1.097074,0.026846,-0.914107,-0.114506,-0.023893,0.104411,0.000000,0.002000,0.000000
402.000000,0.002000,0.341849,-0.869240,0.054966,-0.320559,-0.617819,2.511206,-1.055312,3.100193,0.003121,nan,0.002000,0.000000
403.000000,0.002000,-6.035878,0.148611,1.018153,-0.092791,-0.247178,0.451933,0.457957,0.015434,-0.073890,0.000000,0.002000,0.000000
404.000000,0.002000,0.870954,0.494663,-3.276962,-0.348669,-0.225067,-0.779730,-0.293214,-0.171727,1.163103,nan,0.002000,0.000000
405.000000,0.002000,0.018835,-0.037823,1.133012,0.798024,1.417828,0.330871,0.238781,0.461793,-2.871994,0.000000,0.002000,0.000000
406.000000,0.002000,0.547246,-0.822400,0.595222,0.491169,0.444808,1.604683,-1.554720,2.421721,-1.614212,nan,0.002000,0.000000
407.000000,0.002000,0.949910,0.921772,0.314457,0.443167,0.905113,0.987858,-2.103107,-2.477251,-1.362675,0.000000,0.002000,0.000000
408.000000,0.002000,0.731867,-0.752092,0.436346,-2.762839,-0.241851,-0.992793,-1.851489,2.320297,-0.754736,nan,0.002000,0.000000
409.000000,0.002000,0.647807,-0.448477,-0.212584,-2.076554,-0.600415,0.234315,-1.691401,1.887846,1.168654,0.000000,0.002000,0.000000
410.000000,0.002000,-1.045523,-2.484951,-0.415015,0.780547,1.339780,1.224860,0.631183,1.568361,0.249673,nan,0.002000,0.000000
411.000000,0.002000,-1.429706,0.082294,2.806531,-1.224572,-0.495114,0.645301,0.663263,-0.004474,-1.237887,0.000000,0.002000,0.000000
412.000000,0.002000,-7.031757,-4.843668,5.632006,-0.658661,-0.806837,0.498650,0.128638,0.091468,-0.102900,nan,0.002000,0.000000
413.000000,0.002000,-1.381730,0.161040,0.272371,0.375327,0.514908,-0.722592,2.960596,-0.278956,-0.259483,0.000000,0.002000,0.000000
414.000000,0.002000,5.220804,0.973272,3.199068,0.142338,0.675024,0.296380,-0.372515,-0.058294,-0.220279,nan,0.002000,0.000000
415.000000,0.002000,0.901365,1.788822,-0.430738,0.568808,-0.154488,1.070510,-1.167100,-2.150419,0.894339,0.000000,0.002000,0.000000
416.000000,0.002000,1.428506,0.842631,0.502285,0.717035,-0.527709,1.520612,-2.844281,-1.463480,-0.785539,nan,0.002000,0.000000
417.000000,0.002000,1.522099,4.584977,6.949026,0.175158,0.133964,0.548054,-0.044169,-0.141438,-0.217813,0.000000,0.002000,0.000000
418.000000,0.002000,0.367065,0.550427,-2.445976,-0.489557,-0.808022,0.645673,-0.330838,-0.554325,2.003231,nan,0.002000,0.000000
419.000000,0.002000,4.543665,7.321752,-0.458196,0.636840,0.831108,-0.757144,-0.134487,-0.220466,0.008733,0.000000,0.002000,0.000000
420.000000,0.002000,-2.280948,-0.015808,-1.776579,1.768367,-0.201640,0.831974,1.291436,0.043596,1.072984,nan,0.002000,0.000000
421.000000,0.002000,0.044662,0.245756,1.069186,-0.099261,0.644157,-1.386721,-0.152244,-0.931128,-2.980334,0.000000,0.002000,0.000000
422.000000,0.002000,-2.194099,-1.304411,0.738895,1.899935,0.919534,-0.320031,1.514800,0.953054,-0.534041,nan,0.002000,0.000000
423.000000,0.002000,0.464055,-10.385937,7.926029,-0.076084,-1.529887,1.199470,-0.004730,0.091818,-0.070746,0.000000,0.002000,0.000000
424.000000,0.002000,-0.760400,6.117426,1.776184,0.282625,0.590214,0.557782,0.040565,-0.377552,-0.103326,nan,0.002000,0.000000
425.000000,0.002000,0.791080,-0.302232,-0.180585,-0.490829,0.049974,-2.590309,-2.703563,0.836349,1.138642,0.000000,0.002000,0.000000
426.000000,0.002000,0.390010,-0.141740,-0.542788,-1.700680,1.687271,-1.982229,-1.135428,0.171193,1.926205,nan,0.002000,0.000000
427.000000,0.002000,1.400588,-1.706269,0.005921,-1.546051,-0.476950,-0.330232,-1.485398,1.684143,0.006751,0.000000,0.002000,0.000000
428.000000,0.002000,-0.966501,1.466924,0.183519,-0.144966,0.606097,-2.294461,1.637267,-2.839965,-0.210253,nan,0.002000,0.000000
429.000000,0.002000,-0.332738,-1.975937,0.605875,-1.182511,0.477850,0.228347,0.557511,2.309338,-0.522708,0.000000,0.002000,0.000000
430.000000,0.002000,6.433841,-3.699418,-3.468147,0.513628,-0.328902,-0.008654,-0.210815,0.125136,0.112555,nan,0.002000,0.000000
431.000000,0.002000,0.556032,1.015338,-0.966961,-1.019947,0.496760,0.866848,-1.243349,-2.100306,2.226880,0.000000,0.002000,0.000000
432.000000,0.002000,0.305085,2.664458,-1.850668,0.450624,1.196466,-0.955158,-0.170768,-1.073599,0.808789,nan,0.002000,0.000000
433.000000,0.002000,-0.263266,0.032676,-0.255073,0.735559,1.021948,0.973885,0.339373,-0.004303,1.188061,0.000000,0.002000,0.000000
434.000000,0.002000,3.048828,-0.211995,-1.485931,-0.523637,-1.643765,-1.117613,-1.072183,0.082670,0.554653,nan,0.002000,0.000000
435.000000,0.002000,-0.376303,-0.571158,1.000811,-0.438234,1.603905,1.491063,1.378282,1.695283,-2.852000,0.000000,0.002000,0.000000
436.000000,0.002000,1.582453,0.732858,-0.116320,-1.393848,0.405553,-1.720723,-2.462102,-1.232080,0.352376,nan,0.002000,0.000000
437.000000,0.002000,-0.876170,0.562661,-0.945767,-1.057115,0.287851,-1.102480,1.898597,-1.186644,2.280663,0.000000,0.002000,0.000000
438.000000,0.002000,-0.054836,0.024645,0.474634,-1.205121,-0.935670,-1.244043,-0.226697,0.471320,-1.378415,nan,0.002000,0.000000
439.000000,0.002000,0.270837,0.958785,1.285408,0.906722,-0.939148,0.380715,-0.759289,-1.737024,-2.445983,0.000000,0.002000,0.000000
440.000000,0.002000,1.234410,0.157633,-0.412843,1.714340,0.521926,1.143272,-2.830974,-0.293852,1.622341,nan,0.002000,0.000000
441.000000,0.002000,0.088808,-0.690758,0.181717,1.495716,0.836630,2.191999,-0.196351,2.540360,-0.292671,0.000000,0.002000,0.000000
442.000000,0.002000,-0.162419,1.084344,0.852410,-0.673355,0.312835,1.721658,0.535507,-2.909941,-1.845302,nan,0.002000,0.000000
443.000000,0.002000,-0.151860,1.971755,-0.442187,-0.543265,-1.559481,-0.394455,0.267997,-2.636194,0.643755,0.000000,0.002000,0.000000
444.000000,0.002000,-0.548448,-0.232535,0.314323,1.266436,-1.975829,0.090471,2.950297,1.053801,-0.581136,nan,0.002000,0.000000
445.000000,0.002000,-0.629674,0.023237,0.358414,-0.455611,0.635558,-1.870489,2.041121,-0.183016,-1.289432,0.000000,0.002000,0.000000
446.000000,0.002000,0.224439,0.312309,-0.222712,0.053594,-0.947006,-3.270037,-0.450941,-1.253313,0.831652,nan,0.002000,0.000000
447.000000,0.002000,0.195307,-0.270932,-0.124029,-1.983963,2.373316,-0.131616,-0.681391,0.766892,0.255974,0.000000,0.002000,0.000000
448.000000,0.002000,2.093235,-1.087651,-0.556450,1.259665,-0.280860,-1.796030,-1.661953,1.001187,0.445282,nan,0.002000,0.000000
449.000000,0.002000,-1.119260,0.326907,-1.236958,-0.465114,1.271084,-0.340045,2.061949,-0.740603,2.501331,0.000000,0.002000,0.000000
450.000000,0.002000,0.311411,-0.781104,0.926776,0.252689,0.821201,-2.590099,-0.941029,2.280700,-2.543254,nan,0.002000,0.000000
451.000000,0.002000,0.584686,-7.119816,0.977819,-0.657552,-0.639159,1.039293,-0.036017,0.328176,-0.043764,0.000000,0.002000,0.000000
452.000000,0.002000,-8.357032,4.971690,3.347017,-0.779233,0.998816,0.450202,0.158254,-0.097728,-0.064655,nan,0.002000,0.000000
453.000000,0.002000,4.433739,-1.716822,1.458052,-0.488889,0.074735,-0.706864,-0.559783,0.211918,-0.183076,0.000000,0.002000,0.000000
454.000000,0.002000,-0.724757,-0.233734,0.722759,1.495033,2.331228,0.122791,2.375960,0.852008,-1.567529,nan,0.002000,0.000000
455.000000,0.002000,0.282037,2.836340,-0.706066,0.643758,1.898466,-0.025147,-0.173576,-1.510507,0.396475,0.000000,0.002000,0.000000
456.000000,0.002000,-0.670556,0.561676,-0.095307,-0.596467,-0.881262,1.252385,2.070957,-1.243817,0.690223,nan,0.002000,0.000000
457.000000,0.002000,0.844451,2.721161,0.203604,0.543020,2.023899,-0.199684,-0.492513,-1.530250,-0.126539,0.000000,0.002000,0.000000
458.000000,0.002000,-0.000225,1.512289,-0.840452,-0.338525,-0.629566,-1.528683,0.050952,-2.634108,1.483349,nan,0.002000,0.000000
459.000000,0.002000,-1.530272,1.491864,-0.024081,0.089089,0.427084,-1.840571,1.775724,-1.765054,0.046392,0.000000,0.002000,0.000000
460.000000,0.002000,0.869896,-0.541428,0.130873,0.401744,0.103924,0.129867,-2.311908,2.286107,0.284285,nan,0.002000,0.000000
461.000000,0.002000,-0.674718,0.754030,1.806699,1.917683,-0.186521,0.034101,0.896389,-0.904153,-2.295896,0.000000,0.002000,0.000000
462.000000,0.002000,-1.090620,0.557392,0.561986,-0.325519,1.450496,2.437371,2.431610,-1.219662,-1.336953,nan,0.002000,0.000000
463.000000,0.002000,-0.709512,0.002312,-1.415233,-0.249131,1.429247,0.863534,1.088921,-0.159445,2.719704,0.000000,0.002000,0.000000
464.000000,0.002000,1.158650,-0.669068,0.608007,-1.500349,-1.207080,0.751680,-2.670863,1.683826,-1.431956,nan,0.002000,0.000000
465.000000,0.002000,-0.012972,0.023236,1.429550,-0.288790,-2.432608,-1.818200,0.106247,-0.007314,-3.477788,0.000000,0.002000,0.000000
466.000000,0.002000,4.130349,-4.422371,-3.311706,-0.204799,-0.118269,-0.644279,-0.216242,0.231436,0.179577,nan,0.002000,0.000000
467.000000,0.002000,0.883450,0.314084,0.808367,-1.945343,0.067271,-0.426942,-2.496088,-0.734562,-1.801156,0.000000,0.002000,0.000000
468.000000,0.002000,-8.238627,2.498461,-1.975791,-1.080373,0.099917,0.094148,0.233754,-0.070605,0.055863,nan,0.002000,0.000000
469.000000,0.002000,-0.190306,0.815308,-0.955752,-1.479929,0.749140,-0.814107,0.414005,-1.778700,2.580967,0.000000,0.002000,0.000000
470.000000,0.002000,-7.823031,-1.244407,0.257892,-0.894302,0.422232,0.027521,0.292226,0.050134,-0.013742,nan,0.002000,0.000000
471.000000,0.002000,-1.402679,-0.428654,1.971321,-1.201330,0.631366,1.745269,1.089195,0.307227,-1.683631,0.000000,0.002000,0.000000
472.000000,0.002000,-3.407876,3.646391,-1.939421,-0.145812,-0.466090,-0.742365,0.356617,-0.364825,0.210993,nan,0.002000,0.000000
473.000000,0.002000,-8.338338,2.359553,8.190545,-1.723261,-0.185524,0.906294,0.097232,-0.027458,-0.096904,0.000000,0.002000,0.000000
474.000000,0.002000,-1.512689,-0.664180,-0.784222,0.259238,0.868025,-1.725279,2.414335,1.179219,1.293225,nan,0.002000,0.000000
475.000000,0.002000,1.394538,1.480057,1.122984,0.562980,-0.881736,-0.332806,-1.361619,-1.384430,-1.073487,0.000000,0.002000,0.000000
476.000000,0.002000,1.497662,-3.662051,1.931502,-0.010950,1.054715,0.146341,-0.254381,0.638634,-0.325031,nan,0.002000,0.000000
477.000000,0.002000,-0.162260,-0.951103,-1.510815,1.325879,0.366944,-0.998498,0.134851,1.551897,2.398789,0.000000,0.002000,0.000000
478.000000,0.002000,5.528348,9.662151,-4.036954,0.611496,1.397731,-0.573738,-0.066552,-0.115625,0.049886,nan,0.002000,0.000000
479.000000,0.002000,-1.137065,1.306429,-0.005934,-0.401222,-0.691796,-1.948209,2.393633,-2.577688,0.082996,0.000000,0.002000,0.000000
480.000000,0.002000,-3.140861,-3.794902,-0.979583,-0.086066,0.671198,0.599836,0.374593,0.467398,0.123763,nan,0.002000,0.000000
481.000000,0.002000,1.074089,0.530657,0.060398,0.929515,2.447866,-2.201108,-2.814391,-1.873863,0.144085,0.000000,0.002000,0.000000
482.000000,0.002000,0.113657,-0.718497,0.815599,-0.968831,-3.379684,0.460201,-0.075714,2.811635,-1.938036,nan,0.002000,0.000000
483.000000,0.002000,12.137472,-4.030952,-3.738452,1.813237,-0.621395,-0.475979,-0.101716,0.034398,0.031319,0.000000,0.002000,0.000000
484.000000,0.002000,0.090295,0.889907,-0.448046,-1.010602,-1.898911,-0.350665,-0.845794,-2.072779,1.866300,nan,0.002000,0.000000
485.000000,0.002000,-0.228114,-0.243192,0.499829,1.367310,1.175058,-0.677587,0.377699,1.164884,-1.504576,0.000000,0.002000,0.000000
486.000000,0.002000,0.121619,-0.227767,-1.874691,1.398191,2.001361,1.224200,-0.268632,0.342815,2.592557,nan,0.002000,0.000000
487.000000,0.002000,0.010477,6.084461,4.593667,-0.304134,0.075562,0.695182,0.001261,-0.251210,-0.189893,0.000000,0.002000,0.000000
488.000000,0.002000,1.903645,-0.843792,3.263151,0.036664,-0.126751,-1.132296,-0.507920,0.221137,-0.859452,nan,0.002000,0.000000
489.000000,0.002000,0.403737,-1.684163,0.995352,0.488878,0.200368,1.447475,-0.544432,2.608553,-1.894754,0.000000,0.002000,0.000000
490.000000,0.002000,-1.482671,0.208186,-0.738486,-2.769266,-0.669802,0.232217,2.898177,-0.707938,1.394478,nan,0.002000,0.000000
491.000000,0.002000,-1.014648,-0.195678,-0.852736,0.530755,-0.845148,-0.221220,2.191024,0.556007,2.161340,0.000000,0.002000,0.000000
492.000000,0.002000,0.240170,0.020916,0.742515,-1.613025,-1.205776,-0.858193,-1.886313,-6.083515,-2.237724,nan,0.002000,0.000000
493.000000,0.002000,0.196938,-0.269236,-1.255934,-2.186344,0.030836,1.351144,-0.598556,0.651163,3.212926,0.000000,0.002000,0.000000
494.000000,0.002000,0.642496,-0.342101,0.571758,1.446435,-0.442410,-0.279311,-2.261893,1.279673,-1.234100,nan,0.002000,0.000000
495.000000,0.002000,0.790345,-0.235679,-0.458914,0.829735,-0.353741,-1.613890,-1.864555,0.839511,0.900978,0.000000,0.002000,0.000000
496.000000,0.002000,4.674908,0.848364,-2.537626,-0.352363,0.367764,0.507320,-0.464474,-0.077671,0.268059,nan,0.002000,0.000000
497.000000,0.002000,0.024569,-11.501827,-4.868248,-0.688967,-1.235014,-0.289222,-0.000664,0.116840,0.049149,0.000000,0.002000,0.000000
498.000000,0.002000,0.612903,-0.687943,0.247478,0.668738,1.858252,-1.211096,-1.029801,2.947687,-0.501159,nan,0.002000,0.000000
499.000000,0.002000,-1.738526,-1.840562,2.128414,-0.057827,1.372937,-1.114633,0.689936,0.726954,-0.842279,0.000000,0.002000,0.000000
500.000000,0.002000,-0.778877,0.277392,-1.327572,0.470033,1.306959,0.621086,1.399251,-0.219022,2.606254,nan,0.002000,0.000000
501.000000,0.002000,-0.622252,0.193803,0.546205,-1.048700,-0.351483,1.534952,2.345578,-1.608568,-2.463484,0.000000,0.002000,0.000000
502.000000,0.002000,-0.591424,1.209720,-1.160574,-1.295973,-1.295471,0.981748,1.057212,-1.777988,1.788627,nan,0.002000,0.000000
503.000000,0.002000,-0.023599,-0.816344,-0.968207,0.299364,1.421296,-1.398517,-0.245205,2.135244,2.215071,0.000000,0.002000,0.000000
504.000000,0.002000,1.427657,1.061697,-1.186927,-1.713801,0.031370,-0.446028,-1.674709,-1.076422,1.369940,nan,0.002000,0.000000
505.000000,0.002000,-0.713105,-1.126122,-0.614500,1.343445,1.968625,0.272436,1.360466,2.454017,1.059293,0.000000,0.002000,0.000000
506.000000,0.002000,0.504672,0.812877,-0.206738,-0.437507,-2.662547,0.252085,-0.553048,-2.483771,1.185952,nan,0.002000,0.000000
507.000000,0.002000,-0.217098,0.294615,-2.631471,1.389371,-0.261366,0.083227,0.169008,-0.264706,1.733186,0.000000,0.002000,0.000000
508.000000,0.002000,0.902116,-1.212272,0.381078,-2.129548,2.060201,0.924770,-2.043356,2.629873,-0.576667,nan,0.002000,0.000000
509.000000,0.002000,1.547739,1.411122,2.846449,0.358435,-0.369419,0.585711,-0.542390,-0.489119,-0.965298,0.000000,0.002000,0.000000
510.000000,0.002000,-5.572783,3.138986,5.042898,-0.418168,0.018956,0.597570,0.188359,-0.107993,-0.177880,nan,0.002000,0.000000
511.000000,0.002000,6.107857,-3.995942,2.864504,0.317795,0.310453,1.082539,-0.235696,0.157842,-0.106140,0.000000,0.002000,0.000000
512.000000,0.002000,-1.192063,-0.046483,-0.209537,-0.331223,0.322359,2.304558,3.052605,0.315526,0.515808,nan,0.002000,0.000000
513.000000,0.002000,-3.217057,-0.480736,-7.595975,-0.759912,-0.182517,-0.626844,0.104364,-0.001972,0.257233,0.000000,0.002000,0.000000
514.000000,0.002000,-0.051251,-1.191873,0.441760,-1.788588,1.915561,0.358562,-0.554525,3.259359,-1.086709,nan,0.002000,0.000000
515.000000,0.002000,-2.536662,7.688722,4.794285,-0.164549,0.679759,0.526505,0.062358,-0.175275,-0.114393,0.000000,0.002000,0.000000
516.000000,0.002000,-0.992615,0.333898,-0.694746,1.006186,-0.053582,-0.053750,2.407414,-0.817155,1.875544,nan,0.002000,0.000000
517.000000,0.002000,0.205762,-0.453791,-0.736315,0.708443,-1.383684,1.807398,1.911357,-2.363324,4.721727,0.000000,0.002000,0.000000
518.000000,0.002000,0.046292,-0.894843,-1.024602,1.085149,1.156242,-0.851902,-0.348222,2.230089,2.351901,nan,0.002000,0.000000
519.000000,0.002000,-0.552230,1.786971,-0.424320,-0.612840,1.213991,-0.495841,0.705254,-2.732427,0.801836,0.000000,0.002000,0.000000
520.000000,0.002000,-0.031918,0.931829,-0.067869,-2.158309,0.598369,-1.076202,0.077617,-2.895787,-0.140848,nan,0.002000,0.000000
521.000000,0.002000,0.534176,-1.725931,-0.847075,1.375507,0.183001,-0.908310,-0.743068,2.215445,1.024360,0.000000,0.002000,0.000000
522.000000,0.002000,-0.973067,-0.117950,-0.272853,0.209928,-1.693571,-0.968610,2.860562,0.335687,0.751586,nan,0.002000,0.000000
523.000000,0.002000,-0.902733,0.571866,-0.382144,-0.271722,-0.401907,-2.285455,2.640805,-1.369390,1.611749,0.000000,0.002000,0.000000
524.000000,0.002000,3.723954,4.588387,-0.590000,-0.061017,-0.010899,-0.029447,-0.313900,-0.372622,0.045759,nan,0.002000,0.000000
525.000000,0.002000,-2.388625,-2.399697,-0.286440,-0.603902,-0.732627,-0.404458,0.885918,0.844965,0.161318,0.000000,0.002000,0.000000
526.000000,0.002000,0.913921,1.775674,-0.239638,-0.527117,0.314583,-0.771224,-1.280651,-2.228509,0.370782,nan,0.002000,0.000000
527.000000,0.002000,0.290169,0.596298,1.600786,0.924640,0.250888,-0.043875,-0.962778,-1.028016,-2.977085,0.000000,0.002000,0.000000
528.000000,0.002000,2.630413,-0.541080,-1.160502,-1.533953,0.850541,-1.122582,-1.362910,0.304815,0.628842,nan,0.002000,0.000000
529.000000,0.002000,-0.024663,-1.112701,1.264442,0.919921,-0.401362,-0.681577,0.145385,2.010883,-2.418831,0.000000,0.002000,0.000000
530.000000,0.002000,0.424632,-9.107755,-3.741239,0.521393,-1.169162,-0.423579,-0.010059,0.182075,0.075476,nan,0.002000,0.000000
531.000000,0.002000,-0.696673,0.115473,-2.018913,0.156023,0.101162,-2.523629,0.593567,-0.048301,2.222213,0.000000,0.002000,0.000000
532.000000,0.002000,0.557539,-0.911538,-1.087653,-2.806151,-0.544848,-0.686926,-0.212551,1.925973,1.222561,nan,0.002000,0.000000
533.000000,0.002000,-1.039965,-0.321908,0.933488,1.114981,-2.141273,2.195453,2.363772,0.790220,-2.044371,0.000000,0.002000,0.000000
534.000000,0.002000,-0.152276,-0.075748,-0.688904,-1.507169,0.734018,-0.344061,0.715391,0.248949,2.140270,nan,0.002000,0.000000
535.000000,0.002000,4.616734,4.182810,5.756226,0.315228,0.290698,0.338251,-0.145638,-0.123209,-0.180587,0.000000,0.002000,0.000000
536.000000,0.002000,-2.216753,-3.627870,-0.730797,0.520104,0.936619,0.135617,0.413404,0.660309,0.141138,nan,0.002000,0.000000
537.000000,0.002000,-0.049101,1.775147,-1.736990,0.812060,0.481950,1.148280,0.090172,-1.503939,1.422829,0.000000,0.002000,0.000000
538.000000,0.002000,-2.531714,4.505924,0.747874,0.135070,0.171795,-0.103351,0.287153,-0.503178,-0.079840,nan,0.002000,0.000000
539.000000,0.002000,-1.912560,-0.284101,3.850932,-0.264673,-0.408451,-0.837674,0.369360,0.065875,-0.735765,0.000000,0.002000,0.000000
540.000000,0.002000,0.886038,-0.260179,0.234787,-1.015383,2.449169,-0.293472,-1.842713,1.119439,-1.515780,nan,0.002000,0.000000
541.000000,0.002000,-0.237499,-1.506779,-1.950366,0.013495,-1.249228,-1.799401,0.144433,1.159592,1.560742,0.000000,0.002000,0.000000
542.000000,0.002000,0.641759,-0.064804,-2.075572,1.604258,0.045611,0.790992,-0.555236,0.115523,2.208677,nan,0.002000,0.000000
543.000000,0.002000,-0.912032,-0.169302,-1.352252,-0.059670,-0.698341,0.369281,1.621199,0.391806,2.428521,0.000000,0.002000,0.000000
544.000000,0.002000,-0.318557,0.743339,-0.502693,-0.675221,-1.499113,1.662273,1.224157,-1.811105,1.882984,nan,0.002000,0.000000
545.000000,0.002000,1.619962,-3.182519,-0.870704,-0.244538,1.216561,-0.046529,-0.434563,0.908746,0.267871,0.000000,0.002000,0.000000
546.000000,0.002000,1.191372,0.055498,-0.330962,1.312395,-0.589198,0.678345,-2.932290,0.099599,1.730614,nan,0.002000,0.000000
547.000000,0.002000,-0.334618,-1.111531,1.235582,0.417064,0.617379,-0.208005,0.620305,2.076358,-2.247782,0.000000,0.002000,0.000000
548.000000,0.002000,-1.107007,2.768963,2.737552,0.688880,-0.711319,-0.774484,0.270991,-0.655769,-0.627552,nan,0.002000,0.000000
549.000000,0.002000,-2.751184,3.386938,-1.737213,1.129560,0.303430,-0.330073,0.404460,-0.495795,0.264414,0.000000,0.002000,0.000000
550.000000,0.002000,0.169905,2.151558,0.830384,0.463948,-0.145304,1.061387,-0.091800,-2.085087,-0.642778,nan,0.002000,0.000000
551.000000,0.002000,5.636788,3.668340,1.836491,0.576300,0.122574,-0.451670,-0.287230,-0.187934,-0.099058,0.000000,0.002000,0.000000
552.000000,0.002000,0.516817,-1.073594,-1.410912,0.723800,-0.446105,1.377021,-0.827556,1.574332,2.176362,nan,0.002000,0.000000
553.000000,0.002000,3.983573,-2.911935,-5.377866,0.482450,-0.370900,0.128254,-0.183912,0.129938,0.235969,0.000000,0.002000,0.000000
554.000000,0.002000,0.233629,0.303300,0.385152,1.456309,0.387724,0.873599,-1.840587,-0.709049,-1.223937,nan,0.002000,0.000000
555.000000,0.002000,-1.017655,1.840480,0.913183,-0.632833,-0.707444,0.067748,1.093810,-1.957303,-0.913488,0.000000,0.002000,0.000000
556.000000,0.002000,-0.002359,1.432538,-1.613862,-0.527029,0.599860,-0.022781,-0.023870,-1.602668,1.776514,nan,0.002000,0.000000
557.000000,0.002000,0.613334,0.136471,-1.430582,1.218480,0.011034,1.554400,-1.396768,-0.217250,2.735566,0.000000,0.002000,0.000000
558.000000,0.002000,2.623633,0.039230,4.049300,-0.095514,-0.847218,-0.566345,-0.373301,-0.001138,-0.560010,nan,0.002000,0.000000
559.000000,0.002000,2.279361,1.513812,0.179056,-0.126718,-1.122982,1.613159,-1.414112,-0.911626,-0.142111,0.000000,0.002000,0.000000
560.000000,0.002000,0.684717,4.291649,-2.492853,0.010927,0.391369,1.007969,-0.085040,-0.538030,0.307383,nan,0.002000,0.000000
561.000000,0.002000,-0.452182,-0.771948,0.691864,-0.059717,-2.374216,-0.931528,1.314816,1.791075,-1.794160,0.000000,0.002000,0.000000
562.000000,0.002000,-1.246921,4.874649,0.146663,1.062186,0.756076,0.014158,0.144122,-0.598016,-0.007726,nan,0.002000,0.000000
563.000000,0.002000,3.203819,-2.267441,-0.990817,-0.765815,0.370999,0.878529,-0.690430,0.504050,0.215111,0.000000,0.002000,0.000000
564.000000,0.002000,2.205954,-3.294267,1.684965,-1.216395,0.228426,0.077053,-0.412291,0.602278,-0.301547,nan,0.002000,0.000000
565.000000,0.002000,-1.269686,3.457082,1.723821,0.888041,-0.032560,-0.084167,0.285322,-0.776375,-0.378830,0.000000,0.002000,0.000000
566.000000,0.002000,0.108789,0.617701,-0.717537,1.839049,0.146905,-1.986694,-0.587643,-1.663073,2.435919,nan,0.002000,0.000000
567.000000,0.002000,5.866061,-1.822918,4.346061,0.447046,0.008649,-0.052899,-0.236868,0.078612,-0.187509,0.000000,0.002000,0.000000
568.000000,0.002000,0.117322,-0.492909,0.757119,-0.424692,-1.486737,1.251558,0.493743,0.821564,-3.408734,nan,0.002000,0.000000
569.000000,0.002000,1.321621,-2.509990,0.324627,0.547291,-0.846544,-1.323880,-0.744292,1.387043,-0.148307,0.000000,0.002000,0.000000
570.000000,0.002000,0.617337,0.315429,0.153223,-1.971536,2.420329,-2.707670,-2.443119,-2.291861,0.621953,nan,0.002000,0.000000
571.000000,0.002000,0.672179,-0.042320,-1.531017,0.541812,1.583756,0.098475,-1.240423,0.216222,2.646033,0.000000,0.002000,0.000000
572.000000,0.002000,5.488653,-2.258803,0.024859,-0.269538,-0.273239,-0.330031,-0.426033,0.183594,0.002871,nan,0.002000,0.000000
573.000000,0.002000,0.243316,0.486324,-0.083078,0.187117,2.002076,-1.111790,-1.027931,-2.195056,0.334331,0.000000,0.002000,0.000000
574.000000,0.002000,-0.643692,1.435856,2.405563,1.178156,0.258131,0.698355,0.442323,-0.846831,-1.434290,nan,0.002000,0.000000
575.000000,0.002000,-1.227987,7.468175,1.567465,0.265682,0.583655,0.015904,0.062202,-0.303183,-0.076072,0.000000,0.002000,0.000000
576.000000,0.002000,1.653214,0.970527,-0.374428,0.704337,-0.965348,0.430684,-2.223864,-1.360566,0.716499,nan,0.002000,0.000000
577.000000,0.002000,0.782754,-0.007307,0.630201,-1.238307,1.001121,1.960690,-2.816533,-0.814132,-1.652129,0.000000,0.002000,0.000000
578.000000,0.002000,-1.630681,-1.600545,2.800734,-0.146077,0.266432,1.863123,0.481144,0.483324,-0.873560,nan,0.002000,0.000000
579.000000,0.002000,-0.162286,-2.150624,2.747153,-0.040509,1.363866,-0.811172,0.028645,0.752019,-0.881044,0.000000,0.002000,0.000000
580.000000,0.002000,-1.452993,1.367090,-0.192483,-0.992679,0.157502,-1.159377,1.968522,-2.212968,0.181925,nan,0.002000,0.000000
581.000000,0.002000,-0.915202,0.809453,0.629832,0.490158,2.527380,-0.441492,2.007381,-1.799479,-1.360563,0.000000,0.002000,0.000000
582.000000,0.002000,3.548672,2.857129,9.325038,0.249883,0.511515,1.139837,-0.063648,-0.047553,-0.163332,nan,0.002000,0.000000
583.000000,0.002000,3.184399,3.579520,-0.482027,0.270678,-0.374406,-1.691328,-0.438127,-0.482818,0.072707,0.000000,0.002000,0.000000
584.000000,0.002000,1.084261,-1.380871,0.554914,0.139351,-0.127840,-1.208739,-1.799903,2.439502,-0.744153,nan,0.002000,0.000000
585.000000,0.002000,0.877403,-0.088184,0.010950,2.354494,1.796379,-2.310245,-2.453465,0.276984,0.345352,0.000000,0.002000,0.000000
586.000000,0.002000,-1.016084,0.237027,0.566495,0.845337,0.392797,-1.250066,2.083033,-0.039889,-1.432959,nan,0.002000,0.000000
587.000000,0.002000,1.617185,3.158998,-2.142557,0.106645,-1.000827,0.713720,-0.343503,-0.655542,0.459270,0.000000,0.002000,0.000000
588.000000,0.002000,0.082930,0.370388,0.299863,-1.434058,2.368052,-1.930338,-1.188826,-0.671139,-0.537344,nan,0.002000,0.000000
589.000000,0.002000,-0.330269,-2.134777,-2.119141,0.462186,-1.748287,-0.041602,0.120351,1.030776,1.023299,0.000000,0.002000,0.000000
590.000000,0.002000,3.475170,4.558278,1.968512,0.051196,-0.447770,0.491195,-0.269818,-0.347183,-0.147331,nan,0.002000,0.000000
591.000000,0.002000,-0.153740,0.778543,0.165276,2.157573,0.772365,-0.842486,0.767637,-1.847613,-0.174772,0.000000,0.002000,0.000000
592.000000,0.002000,1.154229,1.021295,0.532439,-0.422035,0.118248,-0.401844,-2.091200,-2.016630,-1.084781,nan,0.002000,0.000000
593.000000,0.002000,-6.495666,3.131088,5.491265,-0.582624,0.471606,0.456487,0.164470,-0.077880,-0.144154,0.000000,0.002000,0.000000
594.000000,0.002000,-1.850552,-4.456226,2.695530,0.228552,0.500119,0.624598,0.175516,0.447280,-0.226382,nan,0.002000,0.000000
595.000000,0.002000,0.102023,-1.390663,-0.283699,1.883070,-1.154164,0.352575,-0.501542,3.031397,1.186029,0.000000,0.002000,0.000000
596.000000,0.002000,-6.199825,5.724195,-0.035271,-0.496949,0.176462,0.153367,0.188640,-0.198667,0.006998,nan,0.002000,0.000000
597.000000,0.002000,0.921730,-0.642635,0.453528,1.277621,3.020143,1.353588,-2.267014,1.605654,-2.198196,0.000000,0.002000,0.000000
598.000000,0.002000,0.578703,-0.213853,0.969358,0.001783,1.993842,1.300233,-1.321834,0.971674,-3.184527,nan,0.002000,0.000000
599.000000,0.002000,2.277869,1.460284,-0.299392,1.334250,0.388627,-1.400145,-1.472253,-0.910880,0.229803,0.000000,0.002000,0.000000
600.000000,0.002000,0.381535,2.280049,0.136257,-0.827954,-0.840177,-0.549046,-0.385325,-2.268023,-0.134600,nan,0.002000,0.000000
601.000000,0.002000,0.999214,-1.221291,-0.369315,0.481355,0.204885,2.224779,-1.882457,2.384206,0.880520,0.000000,0.002000,0.000000
602.000000,0.002000,1.162956,-0.854432,0.126875,1.001760,-1.477006,1.175594,-2.899040,2.193025,0.088476,nan,0.002000,0.000000
603.000000,0.002000,-2.440754,-3.935372,-3.729565,-0.722607,0.257340,0.075220,0.198384,0.299340,0.286609,0.000000,0.002000,0.000000
604.000000,0.002000,-0.983765,-0.932766,-0.013037,0.150886,1.612036,-0.017120,2.180737,2.539395,-0.046961,nan,0.002000,0.000000
605.000000,0.002000,-0.457694,-0.443311,-0.644640,-2.616754,0.108540,-0.201890,1.468004,1.394127,1.062881,0.000000,0.002000,0.000000
606.000000,0.002000,7.258024,-0.216097,-2.853050,0.752561,0.515243,-0.566258,-0.283794,0.009326,0.108389,nan,0.002000,0.000000
607.000000,0.002000,-1.208943,-0.720142,-0.095367,0.558399,1.117709,-2.214135,2.574830,2.101608,0.429477,0.000000,0.002000,0.000000
608.000000,0.002000,0.492264,-1.402525,-0.084839,-0.276059,0.018030,-0.949203,-1.176888,3.114360,0.400777,nan,0.002000,0.000000
609.000000,0.002000,4.726569,3.399468,2.398750,0.077257,-0.136399,0.194212,-0.324184,-0.230719,-0.180876,0.000000,0.002000,0.000000
610.000000,0.002000,0.468273,0.022908,0.244422,-1.729622,-2.044554,-0.620504,-2.050172,-0.029637,-0.331377,nan,0.002000,0.000000
611.000000,0.002000,0.105607,0.755048,-0.055748,0.190243,-0.004136,2.470135,-0.869807,-1.105711,-0.091660,0.000000,0.002000,0.000000
612.000000,0.002000,0.939973,-0.200078,0.472598,-0.539767,-0.117588,-1.122353,-2.858632,0.861476,-1.510419,nan,0.002000,0.000000
613.000000,0.002000,0.363086,-0.776125,1.615712,-0.429537,-0.532331,0.416387,-0.730538,1.208677,-2.596340,0.000000,0.002000,0.000000
614.000000,0.002000,-0.279790,0.540234,1.443162,1.059507,0.237536,1.402941,2.366761,-0.483006,-2.815081,nan,0.002000,0.000000
615.000000,0.002000,-0.744212,-1.550391,-0.853941,-0.235309,1.147138,-0.497471,1.023983,2.216724,1.200220,0.000000,0.002000,0.000000
616.000000,0.002000,1.364139,0.191767,-0.014601,0.223697,0.184910,2.019229,-3.726615,-0.635369,0.089888,nan,0.002000,0.000000
617.000000,0.002000,1.253940,0.372638,1.437665,0.193447,-0.689175,0.478960,-1.763023,-0.164742,-2.130628,0.000000,0.002000,0.000000
618.000000,0.002000,0.501602,-0.014349,0.583247,-0.619071,1.555939,0.172688,-1.509102,-0.536229,-1.430734,nan,0.002000,0.000000
619.000000,0.002000,1.321384,1.844618,-6.715782,0.132816,0.030856,-0.158846,-0.063898,-0.093533,0.334169,0.000000,0.002000,0.000000
620.000000,0.002000,0.314831,-0.922944,-0.265105,1.009585,1.632902,1.637868,-1.048449,2.983717,0.747013,nan,0.002000,0.000000
621.000000,0.002000,-0.616336,-1.371952,0.105836,0.520066,-1.828833,1.449486,1.316408,2.011432,-0.371730,0.000000,0.002000,0.000000
622.000000,0.002000,-1.315037,0.638245,0.345625,-0.303424,1.471303,-2.237493,2.697931,-1.109784,-0.447896,nan,0.002000,0.000000
623.000000,0.002000,-0.218453,0.147280,0.210141,1.144458,-1.539671,-0.091320,0.031699,-0.619539,-0.436236,0.000000,0.002000,0.000000
624.000000,0.002000,1.248995,-0.151858,-0.015447,-0.347607,1.487510,-0.242898,-3.756740,0.948603,-0.287572,nan,0.002000,0.000000
625.000000,0.002000,1.878884,7.478989,2.855958,0.049583,0.514140,0.407390,-0.061060,-0.244240,-0.100497,0.000000,0.002000,0.000000
626.000000,0.002000,-1.515151,-0.617753,-0.310016,-0.794209,-1.550096,1.078385,2.792496,1.305821,0.483199,nan,0.002000,0.000000
627.000000,0.002000,-0.453828,-1.332212,1.116583,-0.738780,-0.116615,-1.080573,0.776054,2.315383,-1.760653,0.000000,0.002000,0.000000
628.000000,0.002000,-0.656373,0.023324,2.022882,-1.031892,1.454503,0.091490,0.796242,-0.083574,-2.306791,nan,0.002000,0.000000
629.000000,0.002000,1.787125,-0.592659,-0.319289,-0.531579,0.406632,-2.012026,-2.403870,1.213233,0.432567,0.000000,0.002000,0.000000
630.000000,0.002000,0.861069,0.143414,-0.313563,1.376095,0.142848,-2.472619,-2.674390,-0.210654,1.129003,nan,0.002000,0.000000
631.000000,0.002000,2.118032,0.480258,0.797901,-2.322649,0.344504,-0.734554,-2.127349,-0.477539,-0.805010,0.000000,0.002000,0.000000
632.000000,0.002000,0.642522,0.195021,-0.473190,-1.228360,-2.208110,1.055836,-2.065705,-0.312295,1.739573,nan,0.002000,0.000000
633.000000,0.002000,2.815025,4.472723,-6.125210,0.608020,0.052643,-0.471743,-0.097301,-0.155867,0.210446,0.000000,0.002000,0.000000
634.000000,0.002000,1.980859,-0.089607,0.031628,-0.273661,0.716175,-1.258493,-2.572455,0.187574,0.103286,nan,0.002000,0.000000
635.000000,0.002000,-0.888559,-0.418434,-1.402562,-0.418380,0.436485,-0.937958,1.791471,-0.391861,1.827301,0.000000,0.002000,0.000000
636.000000,0.002000,0.029714,1.060362,-0.315833,-0.496069,-1.288917,1.044170,-0.299191,-3.202165,1.226724,nan,0.002000,0.000000
637.000000,0.002000,2.382160,2.776743,-0.941590,-0.818680,-0.781723,0.777876,-0.650587,-0.758766,0.271575,0.000000,0.002000,0.000000
638.000000,0.002000,5.063218,0.324464,2.240901,-0.559290,0.023855,-0.084133,-0.478916,-0.021240,-0.204737,nan,0.002000,0.000000
639.000000,0.002000,-2.788760,0.613556,1.396222,-0.423760,-0.123158,-0.825526,1.251016,-0.278362,-0.626850,0.000000,0.002000,0.000000
640.000000,0.002000,0.142523,0.208488,0.341313,-3.002882,-0.416232,-1.006482,-0.599608,-2.070969,-1.534782,nan,0.002000,0.000000
641.000000,0.002000,0.575569,-1.120419,-1.131745,0.715965,0.194657,1.710110,-0.903998,2.014142,1.950033,0.000000,0.002000,0.000000
642.000000,0.002000,-0.172882,-0.028856,-0.840850,-0.172972,-1.065605,-2.083867,0.143444,-0.492922,2.754386,nan,0.002000,0.000000
643.000000,0.002000,-3.084618,2.193489,1.402506,1.328103,0.412549,0.156161,0.707929,-0.512593,-0.324663,0.000000,0.002000,0.000000
644.000000,0.002000,-2.051805,-0.070043,2.127996,-0.010585,-1.120350,0.143666,1.063325,0.076070,-1.152492,nan,0.002000,0.000000
645.000000,0.002000,0.025715,-1.262849,-0.276233,-0.837973,-0.178991,0.905151,-0.013275,3.188383,1.140256,0.000000,0.002000,0.000000
646.000000,0.002000,-1.978330,2.487285,5.104219,0.277194,-0.069921,-0.245454,0.143292,-0.191695,-0.399931,nan,0.002000,0.000000
647.000000,0.002000,-1.574213,1.962878,0.505222,-1.301858,1.481881,-1.107671,1.197644,-1.525595,-0.346269,0.000000,0.002000,0.000000
648.000000,0.002000,-1.678135,2.267106,-0.298381,0.643058,0.622219,-0.286026,0.931841,-1.432869,0.147211,nan,0.002000,0.000000
649.000000,0.002000,0.219914,0.848700,0.168286,0.196222,1.223343,0.708766,-0.355099,-2.298256,-0.342375,0.000000,0.002000,0.000000
650.000000,0.002000,-3.103108,-6.272973,0.786256,0.360360,-0.925819,-0.221081,0.149308,0.303377,-0.020361,nan,0.002000,0.000000
651.000000,0.002000,-6.424153,4.209414,4.931471,-0.934256,0.412702,0.147269,0.163441,-0.100852,-0.126957,0.000000,0.002000,0.000000
652.000000,0.002000,-0.846975,-1.129687,-0.177568,1.536484,0.365914,-1.439477,1.676424,2.510361,0.347506,nan,0.002000,0.000000
653.000000,0.002000,-3.414451,7.678681,2.170860,-0.293358,0.664961,0.485756,0.102917,-0.223101,-0.061505,0.000000,0.002000,0.000000
654.000000,0.002000,-0.637081,-0.266797,-1.742958,-0.995101,1.185424,1.359971,0.775188,0.397732,2.228552,nan,0.002000,0.000000
655.000000,0.002000,-0.151233,2.255261,1.158202,-1.880979,-0.733993,-1.079276,0.091661,-1.866412,-0.818269,0.000000,0.002000,0.000000
656.000000,0.002000,1.307262,-0.096195,1.746700,-0.117447,-0.153731,1.120650,-1.403620,-0.015422,-1.964288,nan,0.002000,0.000000
657.000000,0.002000,-0.624616,0.451017,-0.952787,1.925407,-0.499127,-1.005754,1.397422,-1.094790,2.726695,0.000000,0.002000,0.000000
658.000000,0.002000,-0.609314,0.090919,-0.008468,2.211861,-0.206892,-0.679758,1.727740,-0.265599,0.095206,nan,0.002000,0.000000
659.000000,0.002000,-0.337830,-1.136367,-2.780489,-0.696854,-0.742351,-0.406501,0.145874,0.567102,1.327074,0.000000,0.002000,0.000000
660.000000,0.002000,-1.507354,-0.338419,0.379885,-0.211121,1.120294,1.149279,3.084517,0.711015,-0.572370,nan,0.002000,0.000000
661.000000,0.002000,-0.399067,-0.619163,-0.383657,-3.038956,-0.128145,-0.726253,1.105935,1.958065,1.119833,0.000000,0.002000,0.000000
662.000000,0.002000,-3.475984,-0.033748,-1.187611,1.288069,-0.258812,-0.700612,1.018632,-0.024741,0.383288,nan,0.002000,0.000000
663.000000,0.002000,-1.019782,-0.054085,0.854374,2.691434,0.374101,-0.070861,2.506465,0.302260,-2.034282,0.000000,0.002000,0.000000
664.000000,0.002000,-1.166465,0.131549,1.082389,0.640796,-1.389778,-0.304426,2.315641,-0.060875,-2.198073,nan,0.002000,0.000000
665.000000,0.002000,0.160714,-1.035700,-0.029182,-2.344674,-0.217054,-0.604562,-0.522661,2.984478,0.056355,0.000000,0.002000,0.000000
666.000000,0.002000,-0.596267,0.350780,2.263646,0.170659,0.955335,-0.340293,0.542030,-0.277499,-2.099897,nan,0.002000,0.000000
667.000000,0.002000,-0.292081,-1.670704,1.104227,-0.311506,0.417303,-1.100030,0.462613,2.275756,-1.323258,0.000000,0.002000,0.000000
668.000000,0.002000,0.516828,-1.520299,-1.636303,0.399469,0.659904,1.133055,-0.503976,1.364309,1.494210,nan,0.002000,0.000000
669.000000,0.002000,0.340318,-1.086107,-1.092034,-1.288283,-1.065729,-1.401121,-0.760636,2.030361,2.080895,0.000000,0.002000,0.000000
670.000000,0.002000,0.317175,-0.677779,-0.261843,-0.914752,-1.641126,1.166394,-1.261684,2.520678,1.185641,nan,0.002000,0.000000
671.000000,0.002000,-0.174074,2.008211,0.380333,-0.595884,-1.222166,-1.155334,0.167538,-2.606625,-0.543327,0.000000,0.002000,0.000000
672.000000,0.002000,-1.071067,-0.534883,0.561524,-0.891605,-0.281368,0.047683,2.551885,1.308728,-1.321159,nan,0.002000,0.000000
673.000000,0.002000,0.317831,-2.555276,4.324259,-0.935168,1.128784,0.795176,-0.039712,0.310212,-0.531256,0.000000,0.002000,0.000000
674.000000,0.002000,2.175640,5.965090,4.706923,0.352632,0.238974,0.656038,-0.078313,-0.219585,-0.173962,nan,0.002000,0.000000
675.000000,0.002000,2.127592,3.567365,1.088920,-1.013007,-0.160444,-0.509312,-0.406168,-0.671557,-0.206458,0.000000,0.002000,0.000000
676.000000,0.002000,0.530807,0.338101,-0.443579,1.876820,0.841726,-0.281917,-1.684855,-1.516325,1.683535,nan,0.002000,0.000000
677.000000,0.002000,-0.916180,-0.141049,-0.145251,-1.441269,0.107448,-2.246827,2.923270,0.702452,0.468427,0.000000,0.002000,0.000000
678.000000,0.002000,-0.375957,0.976276,-0.427607,-0.004162,-1.902067,-1.069150,1.137559,-1.863470,1.255606,nan,0.002000,0.000000
679.000000,0.002000,-6.344402,2.581426,3.625145,-0.193056,0.404826,0.222065,0.252636,-0.096266,-0.148227,0.000000,0.002000,0.000000
680.000000,0.002000,-4.668690,-6.222330,1.284549,-0.295281,-0.599227,0.315852,0.175396,0.231897,-0.037523,nan,0.002000,0.000000
681.000000,0.002000,0.364548,0.926076,-0.424040,0.390982,-2.317408,1.746134,-1.105400,-2.395282,1.300453,0.000000,0.002000,0.000000
682.000000,0.002000,0.029098,0.021939,-0.180733,-1.314029,1.993320,-0.017441,1.577654,0.586415,0.009235,nan,0.002000,0.000000
683.000000,0.002000,-1.130087,-3.180980,4.452465,-0.237569,-0.100661,0.050170,0.107581,0.293301,-0.413763,0.000000,0.002000,0.000000
684.000000,0.002000,-0.533096,0.785675,-0.061248,1.971137,-3.122023,0.819174,1.662155,-2.116547,0.660176,nan,0.002000,0.000000
685.000000,0.002000,-1.019356,-1.062674,-0.186259,1.244009,-1.182822,0.043282,1.864189,2.292117,0.299727,0.000000,0.002000,0.000000
686.000000,0.002000,-0.244896,0.632640,0.762100,0.249110,-0.241333,2.182564,1.018694,-1.836844,-2.338253,nan,0.002000,0.000000
687.000000,0.002000,-0.932281,-8.773563,-2.143168,-0.040962,-0.779632,0.234017,0.016578,0.229580,0.062015,0.000000,0.002000,0.000000
688.000000,0.002000,0.206218,-0.288345,2.013471,-0.804557,-1.079261,-1.334630,-0.333403,0.396461,-2.547535,nan,0.002000,0.000000
689.000000,0.002000,0.486865,6.666693,3.834437,-0.283097,0.406471,0.060461,-0.023787,-0.261389,-0.145603,0.000000,0.002000,0.000000
690.000000,0.002000,-0.844668,-2.767487,-7.633824,0.210234,-0.285428,-0.540230,0.031313,0.098648,0.253430,nan,0.002000,0.000000
691.000000,0.002000,-6.197144,-4.732675,0.952783,-0.171487,-0.319223,0.181347,0.233303,0.178525,-0.037938,0.000000,0.002000,0.000000
692.000000,0.002000,0.312876,-0.610527,0.157187,-0.664634,0.631593,-2.080555,-1.186497,2.072067,-0.577837,nan,0.002000,0.000000
693.000000,0.002000,0.670292,1.342110,0.170209,0.707522,1.076239,-1.635468,-1.353470,-3.048070,-0.318608,0.000000,0.002000,0.000000
694.000000,0.002000,0.784818,1.685626,-0.060362,1.724821,0.837838,0.789259,-1.210380,-2.602828,-0.005565,nan,0.002000,0.000000
695.000000,0.002000,2.073108,0.088814,-0.366019,1.768631,1.724765,-0.478270,-2.398897,-0.187372,0.508812,0.000000,0.002000,0.000000
696.000000,0.002000,8.019108,0.943940,-3.227211,0.729686,-0.021397,-0.170579,-0.231651,-0.027406,0.093092,nan,0.002000,0.000000
697.000000,0.002000,1.469944,5.917656,-0.488339,0.591303,0.380414,0.337883,-0.110762,-0.426107,0.035927,0.000000,0.002000,0.000000
698.000000,0.002000,-0.056692,-0.422102,0.885229,0.226981,-0.113396,-1.030665,0.876005,0.861153,-2.788222,nan,0.002000,0.000000
699.000000,0.002000,0.126643,1.717060,-0.196372,0.413909,-1.583545,0.132408,-0.300019,-3.287473,0.627517,0.000000,0.002000,0.000000
700.000000,0.002000,-1.339023,-0.976564,-1.019677,-1.492686,0.503677,1.399371,1.850068,1.437322,1.353649,nan,0.002000,0.000000
701.000000,0.002000,-0.642344,0.651812,-0.319012,0.042133,1.141306,1.319112,1.671405,-1.628501,1.425020,0.000000,0.002000,0.000000
702.000000,0.002000,-3.788788,2.148737,-0.358619,0.742722,0.038769,0.987363,0.690582,-0.391362,0.081739,nan,0.002000,0.000000
703.000000,0.002000,-0.860306,0.716065,-0.428732,2.680201,0.001178,-1.105700,2.670587,-1.449949,2.386717,0.000000,0.002000,0.000000
704.000000,0.002000,6.287511,0.066398,-3.539472,0.279002,0.379690,0.114782,-0.296496,-0.008186,0.169263,nan,0.002000,0.000000
705.000000,0.002000,2.585865,-0.099733,12.049624,0.435958,-0.183593,1.768326,-0.027443,0.001901,-0.126981,0.000000,0.002000,0.000000
706.000000,0.002000,-3.326007,0.074943,-4.411144,-0.095164,-0.017582,0.645894,0.321305,-0.004905,0.421877,nan,0.002000,0.000000
707.000000,0.002000,3.445054,0.251092,3.217905,-0.952678,0.197527,0.018848,-0.508696,-0.024306,-0.476742,0.000000,0.002000,0.000000
708.000000,0.002000,1.054251,1.600811,-1.091984,-0.411356,-0.229466,-1.077929,-1.017823,-1.650775,1.162006,nan,0.002000,0.000000
709.000000,0.002000,-0.044079,-0.729843,-0.385843,1.640444,1.198119,1.479019,0.147684,2.734381,0.864871,0.000000,0.002000,0.000000
710.000000,0.002000,0.239226,-1.603288,0.337659,-0.376009,-0.703968,-0.783308,-0.539285,2.739068,-0.850437,nan,0.002000,0.000000
711.000000,0.002000,-5.390256,0.817800,0.365234,-0.284154,-0.265675,1.096026,0.533979,-0.081464,-0.025012,0.000000,0.002000,0.000000
712.000000,0.002000,0.868238,-0.788893,0.422977,0.511609,-0.254248,-0.237747,-2.393052,2.391928,-0.663517,nan,0.002000,0.000000
713.000000,0.002000,0.074075,-2.211151,1.762846,-0.991927,-1.153065,0.653084,-0.094502,1.353067,-1.044621,0.000000,0.002000,0.000000
714.000000,0.002000,-1.143899,-1.333445,1.280517,-0.318812,-1.198313,-0.385194,1.262077,1.570810,-1.313048,nan,0.002000,0.000000
715.000000,0.002000,-2.994494,-5.651285,8.336556,-0.551026,-0.897069,0.847491,0.050655,0.097204,-0.140330,0.000000,0.002000,0.000000
716.000000,0.002000,0.522283,-4.206058,-3.084734,-0.461337,0.335466,0.472821,-0.049220,0.443883,0.330035,nan,0.002000,0.000000
717.000000,0.002000,-1.199873,-0.845971,0.297477,2.537983,0.776397,-1.773028,2.375585,1.834788,-0.629725,0.000000,0.002000,0.000000
718.000000,0.002000,3.864439,2.894011,2.744882,0.216579,-0.446031,0.471798,-0.352480,-0.258073,-0.255471,nan,0.002000,0.000000
719.000000,0.002000,-1.014483,-2.037180,-1.231544,1.975305,0.869776,0.306707,0.792193,1.608530,0.919605,0.000000,0.002000,0.000000
720.000000,0.002000,6.100192,1.900092,-1.332054,-0.069050,-0.175235,-0.368703,-0.377030,-0.112087,0.080869,nan,0.002000,0.000000
721.000000,0.002000,0.228477,0.915741,0.279544,0.940202,-1.957942,0.904041,-1.097802,-3.209508,-0.738654,0.000000,0.002000,0.000000
722.000000,0.002000,-1.982261,0.572495,-0.545248,0.872914,-0.121965,-0.200397,2.296881,-0.608457,0.756099,nan,0.002000,0.000000
723.000000,0.002000,1.194752,-0.019891,0.252476,1.244185,1.607326,0.696492,-3.465185,0.168737,-0.927532,0.000000,0.002000,0.000000
724.000000,0.002000,6.288726,-0.556881,-4.662686,0.982178,-0.001881,-0.031267,-0.243799,0.023465,0.161871,nan,0.002000,0.000000
725.000000,0.002000,0.320810,0.342540,0.928636,0.411989,2.286653,0.334319,-0.963406,-1.161923,-2.446974,0.000000,0.002000,0.000000
726.000000,0.002000,-0.741868,-1.409674,-1.372076,1.379070,2.006373,0.880156,0.894003,1.634389,1.583394,nan,0.002000,0.000000
727.000000,0.002000,-1.529073,0.364806,1.990584,-0.480030,-0.916346,1.743048,1.233373,-0.267802,-1.603263,0.000000,0.002000,0.000000
728.000000,0.002000,-0.004866,-1.271572,-1.175134,-1.308795,-0.312735,0.885938,0.295247,2.489457,2.802699,nan,0.002000,0.000000
729.000000,0.002000,-1.079241,-0.502512,-0.078134,0.186539,-2.528746,0.528474,2.698340,1.585304,0.327014,0.000000,0.002000,0.000000
730.000000,0.002000,-1.047007,-1.105196,0.311260,1.183651,-2.038068,0.079663,2.074883,2.146886,-0.272396,nan,0.002000,0.000000
731.000000,0.002000,-1.814273,0.160463,0.607047,-0.452220,-0.584964,-0.434186,2.523549,-0.084929,-0.777915,0.000000,0.002000,0.000000
732.000000,0.002000,-1.188800,-0.511465,0.773755,1.525280,-1.773729,-0.215046,2.460152,1.097015,-1.500669,nan,0.002000,0.000000
733.000000,0.002000,2.208806,4.560188,3.998688,-0.218615,0.707739,-0.284788,-0.144056,-0.292241,-0.258355,0.000000,0.002000,0.000000
734.000000,0.002000,0.188781,1.084801,0.484942,1.778523,-0.387785,0.674060,3.854956,-2.902462,1.498806,nan,0.002000,0.000000
735.000000,0.002000,-1.305354,-0.173683,-1.950300,-0.612248,0.636485,1.146139,1.210789,0.212314,1.836886,0.000000,0.002000,0.000000
736.000000,0.002000,-1.509580,0.683278,0.332688,-0.141217,-0.972268,1.026179,2.921117,-1.092696,-0.394261,nan,0.002000,0.000000
737.000000,0.002000,-0.404910,-0.536460,1.353109,-0.609519,-0.114149,0.391806,1.092734,1.421168,-3.049594,0.000000,0.002000,0.000000
738.000000,0.002000,-3.637744,0.428550,2.253309,0.935161,-0.315675,-0.533560,0.696700,-0.074832,-0.442153,nan,0.002000,0.000000
739.000000,0.002000,-2.110651,-0.633438,-3.374329,-1.115556,-0.954596,-0.583047,0.469427,0.149168,0.755460,0.000000,0.002000,0.000000
740.000000,0.002000,0.174443,-0.405316,0.483313,0.140092,-1.886179,0.049779,-1.020931,1.630014,-0.750743,nan,0.002000,0.000000
741.000000,0.002000,-0.174337,0.061475,1.365806,-1.897225,0.758957,0.618125,0.450704,0.076462,-3.386090,0.000000,0.002000,0.000000
742.000000,0.002000,0.305969,0.445772,-0.187732,0.429444,0.623236,1.994767,-0.968616,-1.580664,0.652476,nan,0.002000,0.000000
743.000000,0.002000,-1.489718,1.228075,0.433046,0.839562,-1.562460,0.913277,2.149964,-1.801725,-0.576065,0.000000,0.002000,0.000000
744.000000,0.002000,0.219974,-0.797318,-1.474590,0.791799,-0.814038,-0.020239,-0.504253,1.315408,2.598992,nan,0.002000,0.000000
745.000000,0.002000,5.742259,-0.345510,-3.616221,-0.135384,0.548361,-0.891390,-0.307627,0.023090,0.203124,0.000000,0.002000,0.000000
746.000000,0.002000,-3.751249,-1.467715,-0.619303,1.088694,0.326079,0.348523,0.803438,0.376130,0.179155,0.000000,0.002000,0.000000
747.000000,0.002000,0.555975,-4.030519,-3.578675,-0.409937,0.377765,-0.674223,-0.059359,0.395688,0.357322,0.000000,0.002000,0.000000
748.000000,0.002000,1.369721,-6.043668,-1.283688,0.107287,0.244589,0.157204,-0.355508,0.809220,0.093552,0.000000,0.002000,0.000000
749.000000,0.002000,7.576943,2.751885,3.072366,0.552808,0.137073,0.304190,-0.224453,-0.078384,-0.093559,0.000000,0.002000,0.000000
750.000000,0.002000,0.078596,-0.630186,-0.325928,1.138273,0.368781,-0.875261,-0.630517,2.970900,1.726738,0.000000,0.002000,0.000000
751.000000,0.002000,-0.428892,1.669265,-1.149690,0.882101,0.831871,0.497532,0.714892,-2.229168,1.724077,0.000000,0.002000,0.000000
752.000000,0.002000,-2.682255,-1.063142,-2.755174,0.117267,-1.354380,-0.723225,0.622104,0.244803,0.633385,0.000000,0.002000,0.000000
753.000000,0.002000,-0.031280,0.215825,-0.009894,1.234028,2.245527,-2.222055,0.427035,-0.652446,0.162590,0.000000,0.002000,0.000000
754.000000,0.002000,-0.852212,-0.521259,0.323853,-2.197748,-1.825239,0.914545,2.640226,1.972325,-0.908295,0.000000,0.002000,0.000000
755.000000,0.002000,-0.873820,0.080329,-1.457135,2.147325,-2.053535,0.261097,1.461261,-0.241879,2.593849,0.000000,0.002000,0.000000
756.000000,0.002000,-0.137857,-4.616042,1.710105,0.191350,0.472432,-0.667381,-0.001905,0.610623,-0.222404,0.000000,0.002000,0.000000
757.000000,0.002000,-3.302561,0.208809,0.393939,-0.206027,0.035020,0.109528,1.278908,-0.089242,-0.145986,0.000000,0.002000,0.000000
758.000000,0.002000,-0.191588,0.443795,-0.738241,-0.132213,0.340934,1.288042,0.664994,-1.004474,2.340530,0.000000,0.002000,0.000000
759.000000,0.002000,-0.272213,1.397140,0.509824,-1.622883,-1.311131,0.352267,0.952640,-3.252259,-1.394967,0.000000,0.002000,0.000000
760.000000,0.002000,0.171731,1.925430,0.328417,1.791094,-0.398169,-0.629988,-0.272215,-2.731097,-0.492464,0.000000,0.002000,0.000000
761.000000,0.002000,-0.866432,0.168113,-0.135074,-0.813900,-0.033755,2.754985,2.816661,-0.223803,0.737662,0.000000,0.002000,0.000000
762.000000,0.002000,2.412652,-0.849929,1.904504,0.419858,-1.113985,0.083612,-1.037268,0.395590,-0.761614,0.000000,0.002000,0.000000
763.000000,0.002000,-0.625779,-0.711408,-0.331448,-0.092452,2.476125,0.100917,1.827569,2.121526,0.925180,0.000000,0.002000,0.000000
764.000000,0.002000,0.788071,-0.005072,-0.559816,1.084501,-0.878215,-0.073363,-2.540311,-0.011521,2.050000,0.000000,0.002000,0.000000
765.000000,0.002000,4.513741,1.982127,0.235242,0.265060,-0.053761,1.064057,-0.587999,-0.253353,-0.026508,0.000000,0.002000,0.000000
766.000000,0.002000,0.168428,0.417345,1.205003,-0.058565,-1.374555,1.846311,-0.328910,-1.062540,-3.088643,0.000000,0.002000,0.000000
767.000000,0.002000,-1.585941,1.198175,1.209052,-1.086902,-1.282383,-0.616432,1.599354,-1.235036,-1.225654,0.000000,0.002000,0.000000
768.000000,0.002000,-0.896056,-0.299879,-0.392764,-0.385023,-2.273732,-0.349252,2.407333,1.165788,1.123658,0.000000,0.002000,0.000000
769.000000,0.002000,-0.039697,-0.128323,-0.480276,1.153177,-0.236424,-0.270534,1.901286,-0.549506,1.972909,0.000000,0.002000,0.000000
770.000000,0.002000,-0.077968,1.117449,-0.623100,-2.298971,-0.754740,0.427189,0.137533,-3.261720,1.403026,0.000000,0.002000,0.000000
771.000000,0.002000,-0.974220,7.403788,1.300972,0.048013,0.397364,-0.036504,0.032551,-0.308212,-0.049462,0.000000,0.002000,0.000000
772.000000,0.002000,-0.261402,-1.416325,-1.226770,-0.144865,-0.363657,-2.770090,0.294249,2.002082,1.649872,0.000000,0.002000,0.000000
773.000000,0.002000,-0.243495,-1.420266,1.755061,0.754785,0.120941,-2.286777,0.244982,1.530819,-1.791736,0.000000,0.002000,0.000000
774.000000,0.002000,1.461513,0.433895,-0.404823,0.807779,-0.361234,0.501569,-2.926630,-0.697545,0.935512,0.000000,0.002000,0.000000
775.000000,0.002000,7.221470,-4.401033,2.104465,0.476009,-0.392697,0.363659,-0.206670,0.126723,-0.057936,0.000000,0.002000,0.000000
776.000000,0.002000,3.186675,-7.034838,-2.463204,0.574353,-0.497657,-0.594574,-0.103533,0.249210,0.085066,0.000000,0.002000,0.000000
777.000000,0.002000,0.646023,1.034934,-1.684748,-1.215319,-0.180433,-0.846539,-0.917895,-1.091294,1.881488,0.000000,0.002000,0.000000
778.000000,0.002000,0.039114,0.079306,-1.502655,0.908762,0.898157,0.960063,-0.165206,0.054867,3.026758,0.000000,0.002000,0.000000
779.000000,0.002000,1.317592,-0.475587,-1.066464,1.344786,0.911849,-0.192954,-1.893328,0.859126,1.763981,0.000000,0.002000,0.000000
780.000000,0.002000,0.249404,2.654336,-0.897944,-0.921304,-1.758110,0.397859,-0.151995,-1.551359,0.570111,0.000000,0.002000,0.000000
781.000000,0.002000,-1.502330,-1.072028,1.561107,-0.396562,0.114071,2.107583,1.369790,0.976077,-1.357723,0.000000,0.002000,0.000000
782.000000,0.002000,0.733143,-0.874831,1.135240,-0.849148,-1.667521,1.122628,-1.680665,1.496519,-2.154316,0.000000,0.002000,0.000000
783.000000,0.002000,0.852908,-2.607802,-6.982638,0.214943,0.034609,-0.143109,-0.032858,0.104209,0.308894,0.000000,0.002000,0.000000
784.000000,0.002000,-0.043158,0.740228,-1.826115,-1.375463,0.310211,-0.515885,0.144172,-0.782907,2.443731,0.000000,0.002000,0.000000
785.000000,0.002000,1.869411,-3.180029,3.875141,0.545429,-0.677542,-0.262152,-0.207346,0.326553,-0.398813,0.000000,0.002000,0.000000
786.000000,0.002000,0.358612,-1.082385,3.172274,0.774165,0.125621,-1.442626,-0.151679,0.404777,-1.176458,0.000000,0.002000,0.000000
787.000000,0.002000,-0.424368,7.037841,-0.066660,-0.008546,0.823867,-0.512605,0.013800,-0.355918,0.021254,0.000000,0.002000,0.000000
788.000000,0.002000,-0.771564,-0.988559,-0.663102,1.029917,-1.770153,1.115717,1.769413,2.475580,1.353359,0.000000,0.002000,0.000000
789.000000,0.002000,-0.395229,-0.829191,1.384170,0.586385,0.688371,-0.353223,0.711805,1.690123,-2.851674,0.000000,0.002000,0.000000
790.000000,0.002000,0.069782,0.776318,-1.055822,-0.610416,-2.653810,0.216189,-0.495207,-1.724064,2.203142,0.000000,0.002000,0.000000
791.000000,0.002000,-6.284947,3.969230,2.147093,-0.167962,0.349146,-0.133528,0.246751,-0.154280,-0.083433,0.000000,0.002000,0.000000
792.000000,0.002000,-1.244737,0.443987,-0.780235,-0.108323,-1.782007,0.527189,2.131443,-0.727299,1.916349,0.000000,0.002000,0.000000
793.000000,0.002000,0.474514,-0.181582,0.292102,-2.052337,1.857732,-0.615082,-1.310332,0.669121,-0.891605,0.000000,0.002000,0.000000
794.000000,0.002000,-0.877066,-2.141147,0.653420,0.698917,-0.517052,0.850919,0.710825,1.883281,-0.543795,0.000000,0.002000,0.000000
795.000000,0.002000,-0.300279,-1.735967,5.158337,-0.209835,0.549782,-0.331518,0.026108,0.174556,-0.508086,0.000000,0.002000,0.000000
796.000000,0.002000,-1.385248,0.106921,1.272497,-1.476403,1.285451,2.024077,2.068497,0.143553,-1.927890,0.000000,0.002000,0.000000
797.000000,0.002000,-0.000308,-0.652602,1.131847,-0.492139,0.891290,0.748181,0.293594,1.786692,-2.717076,0.000000,0.002000,0.000000
798.000000,0.002000,0.373303,1.568029,-0.628010,1.572807,-0.829862,-0.224525,-1.490228,-3.614161,1.018009,0.000000,0.002000,0.000000
799.000000,0.002000,-1.679810,0.250114,-2.120257,0.239090,1.133940,1.047993,1.082937,-0.087882,1.392048,0.000000,0.002000,0.000000
800.000000,0.002000,-0.949411,0.561951,0.259104,0.491709,1.849042,-0.575154,2.583637,-1.890045,-0.269480,0.000000,0.002000,0.000000
801.000000,0.002000,-0.135091,-0.066838,1.003450,-0.301812,2.544829,-0.427506,0.629732,-0.161623,-2.834681,0.000000,0.002000,0.000000
802.000000,0.002000,-1.028641,-0.849543,-0.066996,-0.541141,-0.791140,0.027908,2.460469,2.116372,0.271445,0.000000,0.002000,0.000000
803.000000,0.002000,2.396065,0.939158,0.339658,2.028196,-0.015944,-0.404246,-1.711805,-0.797154,-0.224022,0.000000,0.002000,0.000000
804.000000,0.002000,-0.456042,0.474070,-0.190180,-1.201353,0.187683,2.551463,1.845234,-1.703786,1.164183,0.000000,0.002000,0.000000
805.000000,0.002000,0.872060,-1.093909,-0.112954,0.019707,1.186338,1.281147,-1.798377,2.262406,0.373837,0.000000,0.002000,0.000000
806.000000,0.002000,-5.476819,-5.580993,-6.985248,-0.638164,-0.698911,-0.995161,0.093763,0.094193,0.120003,0.000000,0.002000,0.000000
807.000000,0.002000,1.384012,0.762676,-0.796342,-0.330442,1.302659,-0.990155,-2.440684,-1.074807,1.406967,0.000000,0.002000,0.000000
808.000000,0.002000,0.508638,0.407022,0.905808,-0.570352,1.164070,-1.146282,-1.887371,-0.982001,-2.514865,0.000000,0.002000,0.000000
809.000000,0.002000,-1.179442,-0.121464,-1.023195,-0.356275,1.111225,1.389342,2.143114,0.427916,2.387044,0.000000,0.002000,0.000000
810.000000,0.002000,-0.197414,-0.620027,-0.368347,1.927822,0.564446,0.090227,0.695682,2.053378,1.636889,0.000000,0.002000,0.000000
811.000000,0.002000,-0.313004,1.263266,1.514502,0.008539,-2.052761,0.132603,0.470060,-1.690643,-2.174480,0.000000,0.002000,0.000000
812.000000,0.002000,2.185949,0.285785,0.055525,-0.181461,-0.555322,-1.002860,-2.287892,-0.286021,-0.004438,0.000000,0.002000,0.000000
813.000000,0.002000,-1.934380,-0.632739,0.937040,1.017208,0.778447,-0.907197,2.154041,0.406616,-1.020068,0.000000,0.002000,0.000000
814.000000,0.002000,-1.136356,-1.533474,-1.204205,-0.194484,-0.048930,-0.967414,1.169502,1.491043,1.238034,0.000000,0.002000,0.000000
815.000000,0.002000,0.280813,-0.882953,0.491958,0.794727,2.195529,-1.469922,-0.823851,2.949524,-0.735539,0.000000,0.002000,0.000000
816.000000,0.002000,-0.523940,0.598174,-0.375377,-1.622467,-1.638609,1.419819,1.583317,-1.761630,1.610511,0.000000,0.002000,0.000000
817.000000,0.002000,1.798586,-0.695274,2.157712,1.423907,-0.854163,0.961959,-1.000286,0.436706,-1.132316,0.000000,0.002000,0.000000
818.000000,0.002000,-2.014902,5.602828,-2.555453,0.593884,0.225460,-0.454312,0.141255,-0.338485,0.164155,0.000000,0.002000,0.000000
819.000000,0.002000,-0.177343,-0.699826,1.454391,-1.372590,1.097554,-0.621266,0.298286,1.502652,-2.856460,0.000000,0.002000,0.000000
820.000000,0.002000,0.834173,-1.065279,-2.548253,-0.916332,0.837088,1.449252,-0.340499,0.547896,1.301410,0.000000,0.002000,0.000000
821.000000,0.002000,-0.703024,-1.241961,-0.133106,-0.005409,-3.032441,-1.140177,1.485751,2.613623,0.376236,0.000000,0.002000,0.000000
822.000000,0.002000,4.442844,-3.528684,3.022758,0.448513,-0.324677,0.061973,-0.273318,0.228236,-0.194167,0.000000,0.002000,0.000000
823.000000,0.002000,0.825346,1.661592,5.665889,-0.114664,0.339401,-0.169607,-0.053850,-0.118608,-0.455461,0.000000,0.002000,0.000000
824.000000,0.002000,0.508340,-1.839996,0.725717,0.108697,-0.800502,0.918518,-0.712921,2.476293,-0.608330,0.000000,0.002000,0.000000
825.000000,0.002000,5.873923,-1.191785,-2.641391,0.107532,-0.597756,-1.146496,-0.346337,0.078508,0.160352,0.000000,0.002000,0.000000
826.000000,0.002000,0.364865,-0.558853,-0.811655,1.659898,0.746968,1.767493,-1.338819,1.707335,2.631446,0.000000,0.002000,0.000000
827.000000,0.002000,1.329583,0.609769,0.470959,-0.959470,-1.656387,-0.044005,-2.678050,-1.012426,-0.787465,0.000000,0.002000,0.000000
828.000000,0.002000,0.676538,-0.907918,-0.339064,-1.006814,-2.013031,1.062279,-1.933868,2.063406,0.869306,0.000000,0.002000,0.000000
829.000000,0.002000,-1.653208,-1.454989,-5.984739,-0.432950,-0.274265,0.099370,0.106907,0.097727,0.393112,0.000000,0.002000,0.000000
830.000000,0.002000,-0.598231,-2.268470,-0.060045,-0.222533,-1.033257,0.287078,-0.425300,2.292563,0.311176,0.000000,0.002000,0.000000
831.000000,0.002000,-0.414165,1.001275,1.440894,0.874721,-0.999562,1.640442,0.635976,-1.369032,-2.573322,0.000000,0.002000,0.000000
832.000000,0.002000,-0.573827,1.154858,-0.252413,1.505615,-1.759034,0.683080,1.542397,-2.861181,0.529226,0.000000,0.002000,0.000000
833.000000,0.002000,0.388335,0.036074,1.380532,0.409606,-0.925390,1.558233,-1.009720,0.191059,-3.440776,0.000000,0.002000,0.000000
834.000000,0.002000,1.058654,-1.504832,0.050512,-1.402591,0.178389,0.639820,-1.651679,2.327470,0.006002,0.000000,0.002000,0.000000
835.000000,0.002000,3.250290,3.319643,2.519503,0.347794,-0.715857,-0.391324,-0.351423,-0.349088,-0.283206,0.000000,0.002000,0.000000
836.000000,0.002000,-0.399116,-3.863706,2.486604,-0.309197,-0.137271,-0.304815,0.046432,0.600673,-0.377001,0.000000,0.002000,0.000000
837.000000,0.002000,-0.099900,-0.084891,2.204077,-0.776427,0.049582,0.340709,0.346518,-0.076192,-2.325712,0.000000,0.002000,0.000000
838.000000,0.002000,-1.533309,-0.643384,0.846807,-2.028340,-0.127462,-0.636549,-1.332766,2.834609,2.825642,0.000000,0.002000,0.000000
839.000000,0.002000,1.169424,0.542911,0.773285,-1.303979,-1.132717,-1.034044,-2.247090,-1.097375,-1.535569,0.000000,0.002000,0.000000
840.000000,0.002000,0.005549,-0.577415,1.199511,-1.271075,2.092476,-1.242581,-0.111500,1.338247,-3.303964,0.000000,0.002000,0.000000
841.000000,0.002000,1.312616,0.174569,0.982224,0.007812,0.627681,2.226169,-2.334421,-0.339812,-1.911645,0.000000,0.002000,0.000000
842.000000,0.002000,0.424178,0.030071,0.280496,-0.734619,-1.292488,1.266981,-1.078884,-0.090815,-1.034692,0.000000,0.002000,0.000000
843.000000,0.002000,0.453207,-0.261825,-0.251287,1.051911,0.151883,-0.235802,-2.268439,1.083037,1.366233,0.000000,0.002000,0.000000
844.000000,0.002000,1.414475,0.896370,1.188142,-0.525339,-0.425575,0.332236,-1.836401,-1.100241,-1.534047,0.000000,0.002000,0.000000
845.000000,0.002000,1.154334,-4.774212,0.511140,-0.763226,-0.246264,-0.508159,-0.158700,0.622206,-0.062797,0.000000,0.002000,0.000000
846.000000,0.002000,-0.732033,-0.813756,-0.307076,-0.480672,-1.654217,0.652120,1.630772,2.514952,0.889802,0.000000,0.002000,0.000000
847.000000,0.002000,-5.391776,4.206826,-1.711796,-0.394888,-0.167179,0.098960,0.267255,-0.207426,0.086485,0.000000,0.002000,0.000000
848.000000,0.002000,-0.497196,1.205123,-0.325751,0.961138,-0.875183,1.806698,1.238734,-3.156824,0.915767,0.000000,0.002000,0.000000
849.000000,0.002000,0.112620,4.723391,-4.672465,0.560217,0.434011,-0.309838,-0.007117,-0.271874,0.268879,0.000000,0.002000,0.000000
850.000000,0.002000,1.924395,0.597930,0.423120,0.660954,0.241685,0.189343,-2.380191,-0.788020,-0.543524,0.000000,0.002000,0.000000
851.000000,0.002000,-0.094947,-0.427422,-1.778405,-0.852497,-0.387517,1.287706,0.092303,0.670249,2.567758,0.000000,0.002000,0.000000
852.000000,0.002000,-1.029156,-0.561891,-0.494228,1.071525,-0.288812,-1.175314,2.419907,1.845619,1.189262,0.000000,0.002000,0.000000
853.000000,0.002000,-1.217651,-0.447274,0.183468,-1.507516,1.605705,0.490433,2.886078,1.246225,-0.701049,0.000000,0.002000,0.000000
854.000000,0.002000,-1.159928,-0.173129,0.676342,-0.409085,-0.868424,-1.449236,2.941453,0.417817,-1.190936,0.000000,0.002000,0.000000
855.000000,0.002000,2.086183,-0.185088,0.036346,-0.009619,-1.729918,-0.691407,-2.483206,0.430188,-0.025066,0.000000,0.002000,0.000000
856.000000,0.002000,0.702581,-0.613971,0.028903,-1.176356,0.461888,-1.809942,-2.096992,2.344267,0.218928,0.000000,0.002000,0.000000
857.000000,0.002000,-0.461097,0.274911,0.585111,0.483698,0.448390,2.911349,1.691193,-0.013870,-1.650360,0.000000,0.002000,0.000000
858.000000,0.002000,-2.116318,-0.695479,-1.231700,0.496522,0.370520,-0.574125,1.764210,0.472618,1.040291,0.000000,0.002000,0.000000
859.000000,0.002000,-1.371203,3.797559,-2.097515,-0.458613,-0.611667,0.595134,0.219770,-0.615545,0.338993,0.000000,0.002000,0.000000
860.000000,0.002000,0.249549,0.824807,1.010777,-0.765516,0.992699,-1.231443,-0.819426,-1.880632,-2.600310,0.000000,0.002000,0.000000
861.000000,0.002000,3.829111,-2.317810,2.192097,-0.485815,-1.234404,0.300752,-0.466390,0.294139,-0.287602,0.000000,0.002000,0.000000
862.000000,0.002000,-1.477405,-0.254395,-0.031429,-0.815084,-1.174507,0.925170,3.966372,-0.469144,-0.414007,0.000000,0.002000,0.000000
863.000000,0.002000,-3.484273,-2.970182,2.198780,-0.152528,0.833099,-0.274479,0.419549,0.362216,-0.268263,0.000000,0.002000,0.000000
864.000000,0.002000,-3.654537,-9.965796,1.389309,-0.239975,-1.280667,-0.072791,0.058489,0.160423,-0.023767,0.000000,0.002000,0.000000
865.000000,0.002000,0.863722,1.304642,-5.448179,0.247399,-0.648464,0.038449,-0.080123,-0.110385,0.483433,0.000000,0.002000,0.000000
866.000000,0.002000,-0.579524,0.463969,0.920672,-1.853670,-0.815085,2.122353,1.803309,-0.888457,-2.293540,0.000000,0.002000,0.000000
867.000000,0.002000,3.664433,2.826498,0.018606,-0.687480,-0.627630,0.160661,-0.563757,-0.438168,-0.006535,0.000000,0.002000,0.000000
868.000000,0.002000,0.381450,-0.587298,2.483064,0.665403,-1.252719,-0.544246,-0.432358,0.446444,-1.841288,0.000000,0.002000,0.000000
869.000000,0.002000,-0.518336,1.013368,-1.274053,0.486155,-1.775516,0.373744,0.885777,-1.611302,2.227424,0.000000,0.002000,0.000000
870.000000,0.002000,-0.103419,-2.034040,-0.586713,0.624422,-0.127681,-1.311086,0.157392,2.028701,0.533079,0.000000,0.002000,0.000000
871.000000,0.002000,0.280684,-0.918670,0.939650,-0.254747,1.490651,1.106390,-0.757831,2.274792,-2.279498,0.000000,0.002000,0.000000
872.000000,0.002000,-3.023987,-5.704039,0.377873,-0.054736,-0.340189,-0.142111,0.198299,0.355285,-0.032528,0.000000,0.002000,0.000000
873.000000,0.002000,0.992364,4.245227,7.593835,0.098446,0.397763,0.666291,-0.025580,-0.118050,-0.216234,0.000000,0.002000,0.000000
874.000000,0.002000,-3.067972,-4.222662,-7.275460,-0.303037,-0.399544,-0.532688,0.082701,0.110702,0.191674,0.000000,0.002000,0.000000
875.000000,0.002000,0.241181,-1.777870,-0.993871,-0.575645,2.132024,1.305152,-0.481349,2.266873,1.184319,0.000000,0.002000,0.000000
876.000000,0.002000,-0.553861,-0.126471,-0.454822,-2.915510,0.095377,-1.110919,1.801990,0.620820,1.850920,0.000000,0.002000,0.000000
877.000000,0.002000,-3.479244,-1.396397,6.566139,0.092356,-0.056534,0.580624,0.144552,0.057157,-0.276562,0.000000,0.002000,0.000000
878.000000,0.002000,-1.887983,-0.003749,-0.621673,1.812794,0.305698,1.982980,2.537129,0.024131,0.893678,0.000000,0.002000,0.000000
879.000000,0.002000,0.400334,-1.021505,-0.913135,-0.195656,0.112283,-0.242358,-0.760422,1.967382,1.888810,0.000000,0.002000,0.000000
880.000000,0.002000,-4.684039,0.659431,3.715177,0.061161,0.041805,-0.464501,0.352393,-0.043730,-0.279152,0.000000,0.002000,0.000000
881.000000,0.002000,-0.885722,-0.726299,-0.229872,-1.010328,-1.151981,-0.037264,2.416431,2.283115,0.367680,0.000000,0.002000,0.000000
882.000000,0.002000,-1.272844,-2.571730,-2.409920,0.665446,-0.130698,1.287195,0.342491,0.717734,0.653729,0.000000,0.002000,0.000000
883.000000,0.002000,1.704135,-0.712918,1.615423,0.232247,-0.258665,-0.783741,-1.480803,0.677509,-1.255937,0.000000,0.002000,0.000000
884.000000,0.002000,-0.660868,0.058333,-0.141288,2.209340,-0.502384,0.332610,2.450379,-0.176489,1.180037,0.000000,0.002000,0.000000
885.000000,0.002000,-7.373880,-2.683795,0.751934,-0.580645,-0.284717,-0.325602,-0.502404,-0.332650,-0.530787,0.000000,0.002000,0.000000
886.000000,0.002000,0.358456,-0.820487,-0.245031,-2.866325,0.716509,-0.535154,-1.320886,2.629936,0.828453,0.000000,0.002000,0.000000
887.000000,0.002000,1.694666,0.828894,-0.368582,-1.301288,0.338081,-0.752642,-2.528528,-1.106922,0.657367,0.000000,0.002000,0.000000
888.000000,0.002000,-4.920417,-5.936159,1.858515,-0.355873,-0.117709,0.232391,0.215564,0.197407,-0.053476,0.000000,0.002000,0.000000
889.000000,0.002000,-0.502347,-0.088751,0.848425,0.219041,1.020812,-0.837778,1.792250,0.491458,-2.379375,0.000000,0.002000,0.000000
890.000000,0.002000,9.233382,0.923524,0.862927,1.073963,0.264004,0.450849,-0.222336,-0.017553,-0.017350,0.000000,0.002000,0.000000
891.000000,0.002000,-0.545497,-1.329996,-1.544045,-1.400079,0.210458,-1.720306,0.488133,1.425226,1.843679,0.000000,0.002000,0.000000
892.000000,0.002000,-0.811354,-0.934429,-0.846716,-0.233628,-0.166278,1.456960,1.558852,1.924746,1.881829,0.000000,0.002000,0.000000
893.000000,0.002000,4.360804,2.369893,-2.850671,0.377882,-0.742179,-0.162179,-0.379795,-0.200643,0.259295,0.000000,0.002000,0.000000
894.000000,0.002000,0.337775,-1.103064,-0.370945,0.791212,-0.840951,2.018792,-1.687890,3.319435,0.269955,0.000000,0.002000,0.000000
895.000000,0.002000,-1.532491,0.448286,-1.685631,0.213582,-1.369220,1.946832,1.811768,-0.099605,1.237229,0.000000,0.002000,0.000000
896.000000,0.002000,0.743639,-1.631277,-0.278422,-1.115236,-0.280902,-0.550762,-1.235638,2.527288,0.517197,0.000000,0.002000,0.000000
897.000000,0.002000,-0.644153,0.154984,0.121146,0.528146,1.295323,-0.492994,1.801149,-0.069711,-0.391118,0.000000,0.002000,0.000000
898.000000,0.002000,0.284103,5.913808,5.405915,0.080182,0.063948,0.434246,-0.011880,-0.211484,-0.202628,0.000000,0.002000,0.000000
899.000000,0.002000,-0.433784,-1.252598,-0.697493,0.046916,0.891950,-0.651219,1.014485,2.559643,1.203837,0.000000,0.002000,0.000000
900.000000,0.002000,-2.140576,0.499349,-2.145465,-1.323559,-0.520760,-0.883612,0.998070,-0.234204,1.059590,0.000000,0.002000,0.000000
901.000000,0.002000,2.398450,4.062995,-4.012250,-0.091191,0.073832,-0.910722,-0.174443,-0.286110,0.280007,0.000000,0.002000,0.000000
902.000000,0.002000,-0.939017,1.055798,-0.126369,0.808481,-0.931216,-0.064010,2.219522,-2.242295,0.538612,0.000000,0.002000,0.000000
903.000000,0.002000,1.254399,-0.273072,0.360343,-0.576298,1.312970,-0.716683,-3.325457,0.807529,-1.034467,0.000000,0.002000,0.000000
904.000000,0.002000,-0.822734,0.458366,-0.006323,2.312618,-1.044409,0.727942,2.749481,-1.824128,0.165673,0.000000,0.002000,0.000000
905.000000,0.002000,0.772892,1.199909,-1.417974,-0.281192,-1.011033,-1.289326,-1.026226,-1.337806,1.690121,0.000000,0.002000,0.000000
906.000000,0.002000,-2.691461,-3.133260,2.342585,0.210904,-0.108041,-0.963211,0.395275,0.452809,-0.337741,0.000000,0.002000,0.000000
907.000000,0.002000,1.201359,-0.346709,1.008532,-0.673383,-0.850062,1.508565,-2.519313,0.636108,-1.974762,0.000000,0.002000,0.000000
908.000000,0.002000,-0.282498,-0.618223,0.771888,2.014808,-0.689126,-2.063242,1.182757,1.948300,-2.095379,0.000000,0.002000,0.000000
909.000000,0.002000,-0.339375,-0.901303,0.614043,2.307647,-0.784413,-0.013441,0.807069,2.843763,-1.208359,0.000000,0.002000,0.000000
910.000000,0.002000,2.864771,-4.422592,1.132029,-0.314377,-0.706333,0.879159,-0.299541,0.454149,-0.103994,0.000000,0.002000,0.000000
911.000000,0.002000,2.449158,-0.759256,-1.849446,0.954779,-0.442205,-0.518521,-1.067808,0.345189,0.832726,0.000000,0.002000,0.000000
912.000000,0.002000,4.890104,2.778713,-7.864701,0.499528,0.316179,-0.798123,-0.106398,-0.059384,0.166426,0.000000,0.002000,0.000000
913.000000,0.002000,-2.588762,-1.973577,2.929954,1.049927,-0.097275,0.177081,0.464008,0.357005,-0.530667,0.000000,0.002000,0.000000
914.000000,0.002000,0.022010,1.216682,-0.498628,2.030019,-1.291876,-0.865792,-0.206282,-3.193494,1.496240,0.000000,0.002000,0.000000
915.000000,0.002000,0.595105,1.568545,0.814839,0.600444,-0.351660,-0.757778,-0.985560,-2.540517,-1.139028,0.000000,0.002000,0.000000
916.000000,0.002000,-0.142739,-0.054900,0.502417,-2.238709,-1.107231,0.888244,0.836074,0.260097,-1.689880,0.000000,0.002000,0.000000
917.000000,0.002000,0.978382,-1.432199,-5.127194,-0.397561,-0.809045,0.256968,-0.100344,0.141066,0.503627,0.000000,0.002000,0.000000
918.000000,0.002000,0.113887,-0.163868,0.721344,-1.841996,-1.222810,0.825989,0.596330,-0.124473,-4.822646,0.000000,0.002000,0.000000
919.000000,0.002000,0.686943,0.603022,-0.386487,0.403883,-0.029873,1.617223,-2.139326,-1.535747,1.413912,0.000000,0.002000,0.000000
