# 
#                 columns are tag, mass, x, y, z, vx, vy, vz, ax, ay, az, EK, EU, E
#                 Time=10.000000
# 
1.000000,0.002000,-5.055681,4.510403,4.685835,0.583641,-0.058739,0.042209,0.169554,-0.149794,-0.158727,35.413147,-71.975366,-36.562219
2.000000,0.002000,1.610758,-1.437823,4.060117,1.460407,1.059756,-0.361454,-0.332250,0.326766,-0.661157,0.000000,0.000000,0.000000
3.000000,0.002000,0.490939,-0.753223,0.205966,0.484091,-2.997258,0.891643,-1.132874,2.051486,-0.171738,0.000000,0.000000,0.000000
4.000000,0.002000,-0.157592,1.715551,-2.093280,-0.292063,-0.803592,-0.999798,0.105712,-1.106449,1.464417,nan,0.000000,0.000000
5.000000,0.002000,-0.724261,0.290955,-0.112365,1.532116,0.118903,-1.531168,2.427338,-0.808779,-0.037549,0.000000,0.000000,0.000000
6.000000,0.002000,0.722282,1.856604,-0.741302,-0.786598,-0.378897,-1.063175,-0.835584,-2.132349,0.850432,nan,0.000000,0.000000
7.000000,0.002000,-0.573040,-4.399305,8.864505,0.030143,-0.229704,-0.075717,0.011581,0.085494,-0.169449,0.000000,0.002000,0.000000
8.000000,0.002000,0.208404,-0.199990,2.090882,-0.484088,-0.425180,-1.019271,-0.183829,0.097908,-2.490371,0.000000,0.002000,0.000000
9.000000,0.002000,-7.419174,4.461801,1.318021,0.204088,-0.131686,0.055521,0.207139,-0.111023,-0.038189,0.000000,0.002000,0.000000
10.000000,0.002000,0.977176,0.844829,0.197732,-3.384000,-0.567857,1.384067,-2.296694,-1.294021,-0.289395,0.000000,0.002000,0.000000
11.000000,0.002000,-0.462319,0.488402,-1.429080,-0.533301,-1.308856,1.332661,0.780381,-0.645636,2.489173,0.000000,0.002000,0.000000
12.000000,0.002000,7.275217,5.567288,0.620528,-0.298614,-0.078036,0.059073,-0.176327,-0.129632,-0.012237,0.000000,0.002000,0.000000
13.000000,0.002000,-0.306769,-1.163764,-0.952105,1.622464,0.389569,-1.841821,0.602049,2.157425,1.812860,0.000000,0.002000,0.000000
14.000000,0.002000,4.768226,0.783751,-1.722534,0.675394,0.322872,0.197866,-0.607490,-0.084919,0.218122,nan,0.002000,0.000000
15.000000,0.002000,-0.162478,1.874792,0.302704,0.621169,2.888598,1.119884,0.188917,-2.406658,-0.348319,0.000000,0.002000,0.000000
16.000000,0.002000,0.193260,-3.090582,-1.029065,-0.407167,1.515458,1.559371,-0.087786,1.236778,0.378663,nan,0.002000,0.000000
17.000000,0.002000,0.859313,-1.767588,-1.023364,-0.346763,-0.610834,-0.972224,-0.796008,1.889807,1.251828,0.000000,0.002000,0.000000
18.000000,0.002000,-0.753158,0.441874,1.980666,1.181599,1.078793,-0.718563,0.850290,-0.494429,-2.001718,nan,0.002000,0.000000
19.000000,0.002000,-0.319919,0.179090,-0.194432,-0.026872,0.693338,1.030711,0.452000,-0.436271,0.619368,0.000000,0.002000,0.000000
20.000000,0.002000,-1.044375,0.528235,-0.200759,0.100820,-1.448283,-0.917208,2.576679,-0.710746,0.700752,nan,0.002000,0.000000
21.000000,0.002000,-0.137395,0.878426,0.735988,2.190880,-0.472011,0.667123,0.094652,-2.021574,-1.898705,0.000000,0.002000,0.000000
22.000000,0.002000,-1.477649,1.263907,-0.756013,-1.415062,1.247677,-0.847703,1.744321,-1.505708,0.900592,nan,0.002000,0.000000
23.000000,0.002000,-0.864463,-1.426080,-2.254135,-1.383645,1.379700,-0.029389,0.445894,0.858755,1.309486,0.000000,0.002000,0.000000
24.000000,0.002000,-1.435037,0.234039,0.067491,1.299514,-1.525388,-0.086787,2.924216,-0.091842,-0.009223,nan,0.002000,0.000000
25.000000,0.002000,0.208848,-1.916332,-0.017625,0.815381,0.348553,0.774935,-0.259600,2.345749,0.149488,0.000000,0.002000,0.000000
26.000000,0.002000,0.513520,3.445098,2.471135,0.543124,-0.278228,-0.619367,0.048072,-0.699647,-0.555924,nan,0.002000,0.000000
27.000000,0.002000,1.000077,1.564656,-0.161446,0.462369,-0.347480,0.521069,-1.581794,-2.227190,0.377886,0.000000,0.002000,0.000000
28.000000,0.002000,-0.087960,-1.096454,-1.704630,0.151096,0.820847,-0.727177,0.218466,1.271940,1.980530,nan,0.002000,0.000000
29.000000,0.002000,-10.603886,-11.049393,2.945022,-0.624987,-0.639667,0.310345,0.055264,0.057155,-0.015136,0.000000,0.002000,0.000000
30.000000,0.002000,1.496581,1.893548,1.137489,0.828420,1.029079,-0.132317,-1.039912,-1.246429,-0.867996,nan,0.002000,0.000000
31.000000,0.002000,0.285652,0.898535,-0.056129,1.500059,-2.268540,-0.519528,-0.492906,-1.961041,0.056605,0.000000,0.002000,0.000000
32.000000,0.002000,-1.130122,-0.207298,-0.203442,0.998652,-1.435004,-0.633835,2.430871,1.627361,0.707007,nan,0.002000,0.000000
33.000000,0.002000,0.064394,-0.981999,1.714296,-0.369015,0.205376,0.391206,-0.010657,1.293185,-2.134481,0.000000,0.002000,0.000000
34.000000,0.002000,-0.311453,1.669278,-1.679647,0.900904,2.103527,-0.812994,0.207843,-1.465110,1.503666,nan,0.002000,0.000000
35.000000,0.002000,-4.542235,-3.998901,7.916994,-0.220568,0.129265,-0.159502,0.085647,0.079747,-0.147703,0.000000,0.002000,0.000000
36.000000,0.002000,-0.554548,2.451378,-2.426704,-1.073014,1.387986,-1.059183,0.248736,-0.884856,0.852587,nan,0.002000,0.000000
37.000000,0.002000,-11.052298,-12.032969,5.003857,-0.686904,-0.819381,0.519399,0.043969,0.047853,-0.020244,0.000000,0.002000,0.000000
38.000000,0.002000,0.282041,1.911267,-1.989220,-0.766321,0.157715,-0.679635,-0.182366,-1.187580,1.307407,nan,0.002000,0.000000
39.000000,0.002000,0.370889,-0.758247,-0.585191,-0.665816,1.590919,-1.412335,-0.475035,1.841357,1.584824,0.000000,0.002000,0.000000
40.000000,0.002000,1.747152,0.193508,2.603976,0.295731,0.519368,1.177348,-0.788586,-0.059351,-1.228244,nan,0.002000,0.000000
41.000000,0.002000,-0.301147,0.874261,-0.019758,1.401248,-1.644353,-2.021614,0.091952,-1.466081,-0.022583,0.000000,0.002000,0.000000
42.000000,0.002000,-0.412421,-0.829525,2.145587,-1.714607,-0.196406,2.016238,0.379609,0.808806,-1.943102,nan,0.002000,0.000000
43.000000,0.002000,0.607116,1.358502,-0.154635,1.920033,-2.354527,-1.862513,-0.911009,-2.352790,0.643322,0.000000,0.002000,0.000000
44.000000,0.002000,-0.272555,1.227610,-0.816897,-1.554542,0.699853,0.391685,0.331844,-2.094502,1.507218,nan,0.002000,0.000000
45.000000,0.002000,-1.815059,-0.078332,0.031232,0.645734,0.508909,1.389333,2.646720,0.092518,-0.016505,0.000000,0.002000,0.000000
46.000000,0.002000,-1.398563,-0.700446,0.295176,0.448952,-0.710341,1.102607,6.065571,-1.232595,-0.255566,nan,0.002000,0.000000
47.000000,0.002000,-1.363076,-0.769073,-0.978642,2.103056,0.229013,-0.020160,1.786991,1.216346,1.283958,0.000000,0.002000,0.000000
48.000000,0.002000,-0.334186,0.903645,0.063748,-2.368006,0.997389,-0.912318,0.497987,-2.510827,-0.307967,nan,0.002000,0.000000
49.000000,0.002000,-11.762801,-3.670209,0.974077,-0.401070,-0.112956,-0.019802,0.119654,0.037789,-0.010414,0.000000,0.002000,0.000000
50.000000,0.002000,-0.160304,1.862239,1.771618,-0.698882,-0.290698,-0.647916,0.179590,-1.369558,-1.388036,nan,0.002000,0.000000
51.000000,0.002000,-0.874756,0.702605,-0.128002,1.907204,-2.094466,0.544479,1.997457,-1.650502,0.445978,0.000000,0.002000,0.000000
52.000000,0.002000,0.492909,0.267083,-1.590163,0.987353,0.193667,-0.508118,-0.607402,-0.297607,2.560580,nan,0.002000,0.000000
53.000000,0.002000,-0.476783,-0.107939,-0.329407,0.171254,2.012194,2.293486,0.987358,0.576091,1.171395,0.000000,0.002000,0.000000
54.000000,0.002000,-0.611570,-0.431984,2.334208,-1.645247,-1.068081,0.896832,0.530623,0.474833,-1.888849,nan,0.002000,0.000000
55.000000,0.002000,0.639598,-0.129038,-0.382977,1.291645,-0.085704,2.438858,-1.639287,0.786782,0.542287,0.000000,0.002000,0.000000
56.000000,0.002000,1.186876,-1.505079,1.454413,0.748524,-0.470486,-0.328968,-0.971967,1.303532,-1.292191,nan,0.002000,0.000000
57.000000,0.002000,-2.560634,-0.614154,-2.008341,-1.704563,0.821776,-0.056808,1.018634,0.253478,0.846091,0.000000,0.002000,0.000000
58.000000,0.002000,1.004004,2.232636,1.470222,0.907578,1.439698,1.762510,-0.587344,-1.265137,-0.858295,nan,0.002000,0.000000
59.000000,0.002000,-1.453347,0.553390,-0.196741,0.615563,-0.455357,2.090208,2.641920,-0.943665,0.499471,0.000000,0.002000,0.000000
60.000000,0.002000,0.506097,-0.694209,0.925155,-1.511886,-0.116789,0.290129,-0.866272,1.256822,-1.904272,nan,0.002000,0.000000
61.000000,0.002000,1.250434,-0.164785,-0.451325,-1.351370,-2.215367,-0.214859,-2.508890,-0.119724,1.030602,0.000000,0.002000,0.000000
62.000000,0.002000,-3.985821,-0.588984,13.450197,-0.454453,0.031168,0.605845,0.027686,0.004122,-0.094892,nan,0.002000,0.000000
63.000000,0.002000,0.440830,-0.166211,0.370306,2.456174,-0.327777,0.876736,-0.912693,0.821799,-1.263911,0.000000,0.002000,0.000000
64.000000,0.002000,-1.197667,0.455753,-0.395591,0.956786,-2.413227,0.063238,2.468490,-0.731342,1.020004,nan,0.002000,0.000000
65.000000,0.002000,0.730753,2.005435,-0.285145,-1.688416,-0.343455,-0.997230,-0.792879,-2.202058,0.328444,0.000000,0.002000,0.000000
66.000000,0.002000,-1.068402,-1.075737,-2.407992,0.647877,-0.164100,-0.137683,0.558401,0.614101,1.339359,nan,0.002000,0.000000
67.000000,0.002000,-3.221231,-6.105887,2.300083,0.461843,0.403519,-0.139528,0.143823,0.280354,-0.106347,0.000000,0.002000,0.000000
68.000000,0.002000,-0.349102,1.513884,0.788588,0.404438,0.926583,2.761092,0.472996,-2.582940,-0.951404,nan,0.002000,0.000000
69.000000,0.002000,-1.767737,2.091659,-0.610687,-0.159147,2.110504,0.793996,0.221311,-2.126919,1.000317,0.000000,0.002000,0.000000
70.000000,0.002000,2.082216,-0.095012,-1.535885,0.138587,0.850687,-1.229223,-1.557810,0.187182,1.100812,nan,0.002000,0.000000
71.000000,0.002000,-0.671654,1.222600,-2.074721,0.968267,1.135678,0.009679,0.531054,-0.902902,1.746506,0.000000,0.002000,0.000000
72.000000,0.002000,1.249398,0.983032,2.266364,0.276665,0.753619,-0.416226,-0.822888,-0.588055,-1.500421,nan,0.002000,0.000000
73.000000,0.002000,-5.519567,4.393237,-7.062624,-0.167054,0.166285,0.152651,0.103438,-0.078568,0.133811,0.000000,0.002000,0.000000
74.000000,0.002000,-0.076449,1.186903,1.125869,-0.122242,0.519151,0.936095,0.451168,-2.163222,-1.687036,nan,0.002000,0.000000
75.000000,0.002000,-2.597691,0.964766,-1.299235,2.365392,-0.360430,-0.244228,1.282496,-0.469653,0.646238,0.000000,0.002000,0.000000
76.000000,0.002000,0.226155,-0.025635,-0.017643,-2.061760,1.381943,1.356355,-0.821684,-0.038615,0.167088,nan,0.002000,0.000000
77.000000,0.002000,0.905508,0.088680,-1.467048,-1.260966,-0.341526,0.244302,-1.333443,-0.034129,2.417228,0.000000,0.002000,0.000000
78.000000,0.002000,-1.104118,-0.731356,1.144862,0.048276,0.222686,1.766325,1.721293,1.132525,-1.702428,nan,0.002000,0.000000
79.000000,0.002000,1.483754,0.383133,-0.252520,-0.889757,1.340892,1.941415,-2.942088,-0.576016,0.712052,0.000000,0.002000,0.000000
80.000000,0.002000,-1.606284,6.695574,-2.244089,-0.485343,-0.523238,0.427792,0.075326,-0.312457,0.110781,nan,0.002000,0.000000
81.000000,0.002000,1.258209,0.008445,-0.251197,0.908767,-1.018103,0.135686,-2.622756,0.059663,0.914128,0.000000,0.002000,0.000000
82.000000,0.002000,-2.176308,-1.542799,-0.270274,0.159883,0.269361,1.402351,1.471248,1.066636,0.133317,nan,0.002000,0.000000
83.000000,0.002000,-0.174075,-0.733648,1.905606,-1.602408,-0.609624,-1.152660,0.333034,1.236625,-2.018306,0.000000,0.002000,0.000000
84.000000,0.002000,-3.490129,-2.536641,0.851774,0.461670,-0.015910,0.078865,0.660999,0.528663,-0.172275,nan,0.002000,0.000000
85.000000,0.002000,0.765818,0.374602,-3.636865,0.443697,-0.537771,0.660849,-0.224812,-0.080707,1.060400,0.000000,0.002000,0.000000
86.000000,0.002000,0.331858,-0.716390,0.600213,1.313284,-1.937894,-1.587305,-0.530542,1.326794,-1.127028,nan,0.002000,0.000000
87.000000,0.002000,0.764001,-1.473020,-0.663327,0.074238,1.562115,1.091124,-1.369839,2.217221,0.832103,0.000000,0.002000,0.000000
88.000000,0.002000,-0.136652,1.406632,0.007216,1.360387,1.566197,0.467118,0.752581,-2.734211,-0.781384,nan,0.002000,0.000000
89.000000,0.002000,3.309012,2.768405,-0.111018,0.487799,-0.548463,-0.330769,-0.686442,-0.547018,0.017507,0.000000,0.002000,0.000000
90.000000,0.002000,0.218029,-0.514983,-0.431893,0.121325,0.686078,-0.935904,-0.563126,1.463675,0.898217,nan,0.002000,0.000000
91.000000,0.002000,-7.545652,-4.026449,-10.701125,-0.517725,-0.705031,-0.532662,0.056548,0.031941,0.080797,0.000000,0.002000,0.000000
92.000000,0.002000,-1.451741,1.172652,0.695182,0.276963,-0.550563,-0.405571,1.884857,-1.566479,-0.727404,nan,0.002000,0.000000
93.000000,0.002000,-0.150157,0.398360,-1.312585,-2.357697,1.698584,2.100456,0.074861,-0.625691,2.951529,0.000000,0.002000,0.000000
94.000000,0.002000,-4.105829,3.855171,4.267117,0.703217,-0.322265,-0.064663,0.214207,-0.183705,-0.227609,nan,0.002000,0.000000
95.000000,0.002000,-0.844931,-0.856906,-0.538211,0.910940,2.338580,0.906664,1.660167,1.819203,1.394704,0.000000,0.002000,0.000000
96.000000,0.002000,-1.143581,0.150330,-1.441326,-0.963207,-0.456076,-0.962967,1.491241,-0.112846,1.995053,nan,0.002000,0.000000
97.000000,0.002000,1.081019,1.892435,-0.607485,-1.037802,0.409867,-0.505545,-1.375294,-1.778758,1.074997,0.000000,0.002000,0.000000
98.000000,0.002000,0.667147,-8.015954,7.569358,-0.038531,-0.072436,0.201806,-0.009795,0.112055,-0.104542,nan,0.002000,0.000000
99.000000,0.002000,0.387537,-1.029760,-0.874459,0.085224,0.563196,-0.494721,-0.880652,1.893635,1.589327,0.000000,0.002000,0.000000
100.000000,0.002000,0.516284,0.133376,-0.052828,0.649029,-2.013594,2.060907,-1.242900,-0.233162,0.911682,nan,0.002000,0.000000
101.000000,0.002000,2.364744,-1.243228,-0.924582,-0.164709,-0.638187,0.780431,-1.383141,0.744289,0.559944,0.000000,0.002000,0.000000
102.000000,0.002000,-1.259518,0.770046,0.423538,-0.616088,-0.762605,2.112432,2.197283,-1.521385,-0.825462,nan,0.002000,0.000000
103.000000,0.002000,0.213634,-1.662722,1.387104,1.094393,-2.212186,1.844278,-0.179456,1.836454,-1.419911,0.000000,0.002000,0.000000
104.000000,0.002000,-0.576016,0.984319,-0.390236,-0.026324,0.071841,-2.080309,1.010442,-2.148577,0.993742,nan,0.002000,0.000000
105.000000,0.002000,-1.702149,-0.097084,-2.341868,-0.615057,-1.243861,1.030712,0.912184,0.069343,1.333052,0.000000,0.002000,0.000000
106.000000,0.002000,-0.963282,-0.758646,-0.368168,-0.214700,-0.513861,-0.971416,2.224800,1.818712,0.788737,nan,0.002000,0.000000
107.000000,0.002000,0.083205,-0.003787,0.876205,1.177032,1.664886,-1.150123,0.012353,0.400274,-2.316882,0.000000,0.002000,0.000000
108.000000,0.002000,-0.737702,-0.285476,-0.553083,2.035646,0.762221,1.867196,1.810800,0.511446,1.413694,nan,0.002000,0.000000
109.000000,0.002000,1.027258,0.879759,-1.313966,1.237742,0.021027,0.892144,-1.480699,-1.239678,1.854276,0.000000,0.002000,0.000000
110.000000,0.002000,-3.929151,0.233143,-6.177200,0.437427,-0.142682,0.313553,0.171239,0.009427,0.283891,nan,0.002000,0.000000
111.000000,0.002000,0.741152,-1.290352,1.155087,1.121500,1.095418,-1.240814,-0.706697,1.669656,-1.240452,0.000000,0.002000,0.000000
112.000000,0.002000,12.447477,5.098320,3.230399,0.554230,0.064649,0.220761,-0.093592,-0.037397,-0.025361,nan,0.002000,0.000000
113.000000,0.002000,2.254538,-1.214590,0.389905,-0.751746,2.351451,1.268730,-1.626444,0.920292,-0.215383,0.000000,0.002000,0.000000
114.000000,0.002000,-0.877142,-0.794632,0.106997,2.004104,-0.209804,-1.918949,1.790331,1.726922,-0.533077,nan,0.002000,0.000000
115.000000,0.002000,-1.399626,0.099216,-0.922941,-1.152375,0.034741,-0.874618,2.385171,-0.204275,1.724435,0.000000,0.002000,0.000000
116.000000,0.002000,-0.530539,-0.592126,0.416715,0.345308,-0.007502,0.141274,1.229200,1.758043,-1.160032,nan,0.002000,0.000000
117.000000,0.002000,0.960405,-0.882295,1.393633,-1.196593,-0.160781,0.712668,-1.046138,-0.569899,-1.099544,0.000000,0.002000,0.000000
118.000000,0.002000,-1.156896,-0.867342,-1.282431,-1.811584,0.408141,-1.011553,1.788564,0.964786,1.755269,nan,0.002000,0.000000
119.000000,0.002000,-2.173205,-3.038080,2.064852,0.553157,0.628998,0.077619,0.421354,0.630828,-0.421824,0.000000,0.002000,0.000000
120.000000,0.002000,0.519842,0.665778,0.921623,-0.070692,-0.432298,1.895427,-1.517118,-3.781129,-0.556077,nan,0.002000,0.000000
121.000000,0.002000,0.829808,0.983198,0.082591,0.492927,1.595430,-1.221244,-1.725248,-2.207238,0.626901,0.000000,0.002000,0.000000
122.000000,0.002000,0.173668,0.140481,0.531002,1.154132,0.614182,0.588335,-0.453961,-0.184049,-0.793928,nan,0.002000,0.000000
123.000000,0.002000,1.956411,-0.743139,2.788999,-0.642971,0.789571,-0.922094,-0.677753,0.271150,-0.959731,0.000000,0.002000,0.000000
124.000000,0.002000,-0.960756,1.278190,1.665332,-0.337525,0.421674,-0.690399,0.986340,-1.196419,-1.685872,nan,0.002000,0.000000
125.000000,0.002000,-1.965831,0.472047,0.912158,0.587650,-0.061452,-1.268064,2.025208,-0.422172,-0.978446,0.000000,0.002000,0.000000
126.000000,0.002000,-0.700380,-4.302252,-2.373398,0.266991,1.396084,0.003937,0.084399,0.586915,0.313325,nan,0.002000,0.000000
127.000000,0.002000,-0.362518,-1.199257,3.184316,1.008939,-1.138049,1.073622,0.138571,0.469883,-1.163964,0.000000,0.002000,0.000000
128.000000,0.002000,0.116965,3.799716,0.859868,0.001135,-1.764372,-0.514865,-0.020875,-0.973074,-0.188967,nan,0.002000,0.000000
129.000000,0.002000,-2.445478,0.839151,0.859442,-2.020657,0.085970,0.560711,1.651064,-0.560829,-0.571993,0.000000,0.002000,0.000000
130.000000,0.002000,-0.567275,-0.738596,-0.533027,1.034895,-2.795666,-0.905697,0.987791,1.408097,1.735113,nan,0.002000,0.000000
131.000000,0.002000,0.691177,-0.059469,-0.867038,-0.574389,2.362919,-1.504112,-1.638852,0.430914,1.891744,0.000000,0.002000,0.000000
132.000000,0.002000,-0.061051,1.305323,-0.505718,-2.050070,-0.889145,-0.857137,0.250076,-1.763112,0.741813,nan,0.002000,0.000000
133.000000,0.002000,1.239019,1.315549,2.179084,-2.244872,0.239203,-1.166836,-0.771805,-0.762666,-1.345919,0.000000,0.002000,0.000000
134.000000,0.002000,-3.159690,1.860904,-4.206682,0.967100,-0.623522,0.479920,0.313801,-0.181686,0.421354,nan,0.002000,0.000000
135.000000,0.002000,-2.174321,-7.255869,0.506899,0.184561,0.549776,-0.340448,0.083567,0.282751,-0.007383,0.000000,0.002000,0.000000
136.000000,0.002000,0.613363,0.848931,-0.871787,1.283156,0.539213,-1.939377,-1.194537,-1.792085,1.642599,nan,0.002000,0.000000
137.000000,0.002000,-0.570352,-0.734904,-1.033816,0.935512,1.719356,-0.060176,0.931407,1.678277,2.236471,0.000000,0.002000,0.000000
138.000000,0.002000,-2.094897,3.670051,1.266172,-0.234309,-0.652147,-0.069848,0.418664,-0.704833,-0.247618,nan,0.002000,0.000000
139.000000,0.002000,-1.213810,1.264518,0.240981,2.460750,-1.489165,-0.088788,1.843030,-1.632145,-0.349278,0.000000,0.002000,0.000000
140.000000,0.002000,-1.295091,-3.065807,-1.013956,-0.553326,-0.316208,1.285967,0.409592,1.073089,0.337811,nan,0.002000,0.000000
141.000000,0.002000,2.229258,-9.021637,-0.220611,0.126757,0.112918,-0.384693,-0.051185,0.204844,0.003863,0.000000,0.002000,0.000000
142.000000,0.002000,-0.246722,0.227982,-0.303665,-1.424145,2.284208,0.392990,0.300261,-0.319369,0.778214,nan,0.002000,0.000000
143.000000,0.002000,0.251240,15.782024,4.498589,0.085316,0.983400,0.311744,-0.001784,-0.072478,-0.020710,0.000000,0.002000,0.000000
144.000000,0.002000,-0.065792,-0.301794,-0.524408,-0.386400,2.703407,-0.770430,-0.137882,0.970724,1.484104,nan,0.002000,0.000000
145.000000,0.002000,1.527693,0.388926,0.014356,-0.239411,-0.983198,1.763383,-2.341177,-0.596956,0.131459,0.000000,0.002000,0.000000
146.000000,0.002000,-1.062170,-0.455823,1.078073,0.352188,-0.674693,-1.421403,1.754489,0.860196,-1.852238,nan,0.002000,0.000000
147.000000,0.002000,1.485253,-0.348285,-0.749940,1.198839,1.192140,0.222772,-2.468604,0.552958,1.180036,0.000000,0.002000,0.000000
148.000000,0.002000,-0.604229,-2.689875,3.402144,0.241429,-0.613746,0.649116,0.115697,0.500027,-0.623960,nan,0.002000,0.000000
149.000000,0.002000,-0.936222,-0.595947,1.068884,0.938766,-0.288402,1.001760,1.597091,1.063172,-1.813697,0.000000,0.002000,0.000000
150.000000,0.002000,-0.390618,-1.284127,0.950379,1.719949,-0.296834,1.286392,0.947907,2.124002,-1.610514,nan,0.002000,0.000000
151.000000,0.002000,0.102474,0.965028,0.479421,1.504042,2.178822,0.939439,-0.161515,-2.244364,-0.886252,0.000000,0.002000,0.000000
152.000000,0.002000,-0.573417,0.785238,-1.433806,1.012716,-1.979232,-1.059132,0.721297,-0.943272,2.353104,nan,0.002000,0.000000
153.000000,0.002000,-3.065202,3.517932,-2.417026,0.529047,0.272406,0.261222,0.370691,-0.407771,0.297167,0.000000,0.002000,0.000000
154.000000,0.002000,1.492634,-0.821080,1.650734,0.308356,-0.302016,-0.488318,-1.280127,0.772385,-1.481640,nan,0.002000,0.000000
155.000000,0.002000,-0.648241,-0.611639,0.243212,-0.905370,1.361579,-1.317499,1.764372,1.561923,-0.631423,0.000000,0.002000,0.000000
156.000000,0.002000,-1.663847,-1.685361,-8.965946,0.536369,-0.166114,0.050641,0.039104,0.038901,0.209825,nan,0.002000,0.000000
157.000000,0.002000,9.959312,5.952040,7.529883,0.383159,0.363128,0.266942,-0.074342,-0.042452,-0.057030,0.000000,0.002000,0.000000
158.000000,0.002000,-0.051072,-0.045024,0.762680,2.283730,0.682518,-1.128082,0.650001,0.149291,-2.062810,nan,0.002000,0.000000
159.000000,0.002000,0.669860,-0.000118,-1.971717,-1.812817,-0.796473,-0.096849,-0.699208,-0.065286,2.283205,0.000000,0.002000,0.000000
160.000000,0.002000,-0.335491,-2.019505,-2.120290,0.954267,0.718939,1.475431,0.161196,1.006165,1.035666,nan,0.002000,0.000000
161.000000,0.002000,0.515310,1.378876,0.116916,2.177991,0.163762,-0.769357,-0.388774,-2.749310,0.102837,0.000000,0.002000,0.000000
162.000000,0.002000,-4.015964,-8.977278,-2.256436,-0.145576,0.024816,-0.521152,0.072503,0.165623,0.042156,nan,0.002000,0.000000
163.000000,0.002000,1.004901,-1.604817,-1.414531,-0.038235,2.296359,1.518034,-0.912936,1.448222,1.147330,0.000000,0.002000,0.000000
164.000000,0.002000,-0.043101,1.207972,0.172837,0.854631,-0.253377,-1.573706,0.152287,-2.769348,0.097495,nan,0.002000,0.000000
165.000000,0.002000,-2.421140,-16.498868,0.291691,-0.085886,-1.118077,0.243671,0.010455,0.070628,-0.002171,0.000000,0.002000,0.000000
166.000000,0.002000,0.168813,-0.906952,0.429017,-0.620540,-3.005041,-1.486891,-0.450796,2.241212,-0.722565,nan,0.002000,0.000000
167.000000,0.002000,0.796597,0.307631,-0.771756,2.657166,0.488491,0.982647,-1.991355,-0.687540,1.652709,0.000000,0.002000,0.000000
168.000000,0.002000,-1.186635,-0.504404,1.036399,-0.411427,0.511453,0.052723,2.002125,0.914204,-1.672442,nan,0.002000,0.000000
169.000000,0.002000,-0.472570,0.900279,-2.036264,-0.349976,1.143681,-1.501711,0.329986,-0.686568,2.058677,0.000000,0.002000,0.000000
170.000000,0.002000,0.798393,6.661816,-6.737459,-0.212909,-0.102026,0.135205,-0.017295,-0.143700,0.147821,nan,0.002000,0.000000
171.000000,0.002000,-6.888552,0.859539,-3.047474,0.684266,0.211948,-0.088360,0.282776,-0.037827,0.129807,0.000000,0.002000,0.000000
172.000000,0.002000,7.586196,-6.773674,6.012711,0.029473,-0.325388,0.241292,-0.088230,0.078454,-0.069819,nan,0.002000,0.000000
173.000000,0.002000,0.703890,1.722526,0.273289,-1.720745,0.117150,-0.276929,-0.956772,-2.629831,-0.358622,0.000000,0.002000,0.000000
174.000000,0.002000,-1.583368,-7.706855,0.923518,0.390437,0.328809,-0.284050,0.044502,0.277966,-0.033137,nan,0.002000,0.000000
175.000000,0.002000,-0.294838,-1.676200,-0.731218,-2.062567,1.072518,1.415455,0.413798,2.376828,0.791292,0.000000,0.002000,0.000000
176.000000,0.002000,0.953381,-1.342786,-1.618589,-1.384945,-0.253069,1.791951,-1.088415,0.922848,1.411570,nan,0.002000,0.000000
177.000000,0.002000,3.264767,-11.354789,-3.657164,-0.194411,-0.559722,-0.582724,-0.033792,0.113991,0.035838,0.000000,0.002000,0.000000
178.000000,0.002000,-1.110916,-0.874338,0.349134,1.059211,-0.443285,-0.875073,1.863451,1.739840,-0.943892,nan,0.002000,0.000000
179.000000,0.002000,-1.116601,0.063999,-1.622866,-0.960185,-0.607494,0.144497,1.365696,-0.060957,2.096158,0.000000,0.002000,0.000000
180.000000,0.002000,-0.206450,-0.673068,-0.404513,1.405049,-0.758357,2.020493,0.052181,1.780233,0.666741,nan,0.002000,0.000000
181.000000,0.002000,1.003771,-2.353582,1.535756,0.154759,-1.442686,0.016866,-0.531867,1.226624,-0.782899,0.000000,0.002000,0.000000
182.000000,0.002000,-1.844570,-1.084646,-0.399928,-2.879617,0.205911,0.569448,2.232962,1.248119,0.481959,nan,0.002000,0.000000
183.000000,0.002000,-0.404128,-4.149543,-10.171702,0.132829,-0.567583,-0.116993,-0.007544,0.061078,0.145660,0.000000,0.002000,0.000000
184.000000,0.002000,-1.989693,0.919603,0.447420,-1.074090,-0.055191,-1.029251,2.121993,-0.821347,-0.505224,nan,0.002000,0.000000
185.000000,0.002000,-0.690694,-1.825428,1.480370,-0.921454,-0.681451,1.156340,0.530308,1.469734,-1.122279,0.000000,0.002000,0.000000
186.000000,0.002000,-0.502686,-2.840419,-3.623867,0.761615,0.047840,1.328335,0.075975,0.469545,0.601403,nan,0.002000,0.000000
187.000000,0.002000,5.241276,-2.974816,-4.145627,-0.471741,0.020619,0.461766,-0.237039,0.138650,0.186664,0.000000,0.002000,0.000000
188.000000,0.002000,0.268804,-1.579178,0.109336,-0.469067,0.345029,-2.034518,-0.317360,2.774352,-0.055761,nan,0.002000,0.000000
189.000000,0.002000,-1.337519,0.491022,0.489416,2.606606,1.678471,-1.245942,2.666486,-0.713992,-1.147009,0.000000,0.002000,0.000000
190.000000,0.002000,-1.105448,-0.160417,-0.674052,-1.224939,1.812405,0.299223,2.005157,0.537370,1.394726,nan,0.002000,0.000000
191.000000,0.002000,1.143762,0.469324,-0.842388,-1.144835,-1.063813,1.164140,-1.771914,-0.595231,1.403270,0.000000,0.002000,0.000000
192.000000,0.002000,-0.111111,-2.008170,1.866539,-0.691295,-0.626259,0.225427,0.091289,1.283374,-1.105729,nan,0.002000,0.000000
193.000000,0.002000,0.332739,-0.985100,0.038720,0.053544,1.557011,0.889121,-1.018390,2.616220,0.453671,0.000000,0.002000,0.000000
194.000000,0.002000,-5.025150,-3.719193,2.846217,0.769587,0.014945,-0.444123,0.279104,0.202187,-0.149812,nan,0.002000,0.000000
195.000000,0.002000,0.961947,-0.908977,1.407021,2.106765,-0.774752,-0.109092,-1.142198,2.818162,-2.786132,0.000000,0.002000,0.000000
196.000000,0.002000,-0.348122,1.157062,-0.254116,1.715171,-0.894422,-0.928578,0.573011,-2.424320,0.466672,nan,0.002000,0.000000
197.000000,0.002000,-1.398648,2.683032,3.586889,-0.549813,0.178186,1.459584,0.243518,-0.429453,-0.598421,0.000000,0.002000,0.000000
198.000000,0.002000,0.881837,0.288645,0.859770,-2.113267,-0.248429,0.324739,-2.092887,-0.426516,-1.908597,nan,0.002000,0.000000
199.000000,0.002000,-0.118313,0.542455,0.709631,-1.099364,-1.219405,1.791966,0.547785,-1.112417,-1.192076,0.000000,0.002000,0.000000
200.000000,0.002000,0.388202,0.504071,1.113323,0.263653,2.065850,-0.053839,-1.069454,-1.253879,-2.263462,nan,0.002000,0.000000
201.000000,0.002000,8.371341,-3.306639,6.393984,0.102997,-0.028264,0.056216,-0.117899,0.047728,-0.091398,0.000000,0.002000,0.000000
202.000000,0.002000,-2.431909,-2.676077,-0.623290,-1.489286,-1.028312,-0.187562,0.691170,0.838011,0.159524,nan,0.002000,0.000000
203.000000,0.002000,-0.135704,2.041702,1.137403,-0.239078,-0.802432,1.114711,0.031509,-1.894428,-1.196731,0.000000,0.002000,0.000000
204.000000,0.002000,1.234187,0.562115,0.748511,-1.635000,1.947571,0.487534,-2.438996,-0.652337,-1.282650,nan,0.002000,0.000000
205.000000,0.002000,-1.466385,-0.783136,1.506734,-0.407113,0.625757,1.482741,1.459305,0.763081,-1.450758,0.000000,0.002000,0.000000
206.000000,0.002000,-1.061079,-0.838564,-0.092222,-0.708332,-1.207791,1.083692,1.910082,1.960582,0.183851,nan,0.002000,0.000000
207.000000,0.002000,-7.600434,6.005130,-2.887390,0.103945,0.003143,0.062044,0.139935,-0.107842,0.050340,0.000000,0.002000,0.000000
208.000000,0.002000,0.268541,-1.088265,-1.487504,-0.670088,-0.091433,-0.438739,-0.545391,1.371703,1.786061,nan,0.002000,0.000000
209.000000,0.002000,1.011803,1.476303,0.690515,-0.079645,1.219368,-0.950526,-1.308083,-1.887791,-1.058716,0.000000,0.002000,0.000000
210.000000,0.002000,0.181225,1.164101,-2.029869,-1.757010,0.055366,0.561405,-0.200536,-0.947114,1.869428,nan,0.002000,0.000000
211.000000,0.002000,-0.185143,0.291355,-0.577754,1.256513,-1.445465,1.103336,0.312768,-0.335873,1.803157,0.000000,0.002000,0.000000
212.000000,0.002000,-0.360895,-0.121340,0.121403,-0.845614,-0.944623,1.466742,0.642471,-0.350298,-0.460873,nan,0.002000,0.000000
213.000000,0.002000,-1.325086,0.315872,1.766933,-0.786113,0.903488,-0.750895,1.360214,-0.295933,-1.934671,0.000000,0.002000,0.000000
214.000000,0.002000,-0.836132,1.191679,1.021156,-2.794366,1.791820,0.486136,1.244776,-1.828230,-1.781391,nan,0.002000,0.000000
215.000000,0.002000,0.681488,-0.692002,-2.076789,-0.784578,0.583605,-2.062187,-0.609695,0.796892,1.950003,0.000000,0.002000,0.000000
216.000000,0.002000,0.308974,0.131433,-1.724223,0.473305,-0.921724,-0.602136,-0.240755,0.070563,2.695080,nan,0.002000,0.000000
217.000000,0.002000,-0.397547,0.719651,0.525047,0.551768,-2.954034,0.739841,1.304581,-1.430860,-1.307354,0.000000,0.002000,0.000000
218.000000,0.002000,-5.288956,-3.952702,-3.121008,-0.209490,0.645428,0.583603,0.240253,0.182016,0.142691,nan,0.002000,0.000000
219.000000,0.002000,0.280135,0.410430,-0.794437,0.349033,1.619971,0.064566,-0.268059,-0.485511,1.699975,0.000000,0.002000,0.000000
220.000000,0.002000,3.113175,-0.815457,-2.572959,-0.433696,0.264381,1.050410,-0.665758,0.215717,0.582398,nan,0.002000,0.000000
221.000000,0.002000,2.169237,-0.715436,-2.534916,1.136084,0.613368,-1.231120,-0.765769,0.253419,0.892603,0.000000,0.002000,0.000000
222.000000,0.002000,0.238499,-0.076828,0.631028,0.912086,-1.567346,-0.984544,-0.588228,-0.140071,-1.848949,nan,0.002000,0.000000
223.000000,0.002000,0.723526,-1.827895,0.212278,-0.832007,2.682131,-1.048123,-0.815759,2.342862,-0.183010,0.000000,0.002000,0.000000
224.000000,0.002000,-0.359293,4.848672,-4.123860,0.195040,-1.033150,0.059855,0.036814,-0.341169,0.283234,nan,0.002000,0.000000
225.000000,0.002000,1.746789,1.421558,-0.794155,1.244999,-0.004515,0.630190,-1.551195,-1.180899,0.835707,0.000000,0.002000,0.000000
226.000000,0.002000,1.678520,0.635140,0.713226,0.535531,0.916153,-0.326402,-2.175039,-0.726850,-0.996547,nan,0.002000,0.000000
227.000000,0.002000,-0.214746,-1.076977,-1.253282,0.356291,0.951254,0.979834,0.255368,1.853371,2.067688,0.000000,0.002000,0.000000
228.000000,0.002000,-1.629087,-0.879280,-2.259560,0.326914,0.775023,-2.116577,0.789426,0.446072,1.263309,nan,0.002000,0.000000
229.000000,0.002000,-1.481266,2.849506,-1.479454,-1.932319,-0.742434,1.000134,0.525310,-0.980810,0.535935,0.000000,0.002000,0.000000
230.000000,0.002000,-0.484705,-8.958158,-11.591424,-0.178926,-0.587256,-0.568302,0.003336,0.056970,0.072645,nan,0.002000,0.000000
231.000000,0.002000,-2.336657,-0.971077,0.384745,-0.376353,-0.374889,0.809814,1.738987,0.915455,-0.413423,0.000000,0.002000,0.000000
232.000000,0.002000,1.034541,0.850824,-0.765362,2.134939,1.775400,-1.519222,-1.847174,-1.444907,1.366919,nan,0.002000,0.000000
233.000000,0.002000,-0.057302,1.259675,0.793084,-0.210720,0.787070,1.388142,0.265176,-2.263087,-1.387511,0.000000,0.002000,0.000000
234.000000,0.002000,-2.038968,1.580948,3.963864,-0.023783,0.735865,-0.252299,0.320055,-0.253977,-0.639648,nan,0.002000,0.000000
235.000000,0.002000,-3.266568,0.076201,0.947218,-0.420231,0.778969,-0.075241,1.204760,0.008368,-0.363424,0.000000,0.002000,0.000000
236.000000,0.002000,1.074249,-0.170574,0.532604,-1.937968,-2.427695,1.897945,-2.317290,0.681972,-1.420301,nan,0.002000,0.000000
237.000000,0.002000,0.678994,1.420011,-0.042271,1.285030,-1.394339,-1.424877,-1.308469,-2.715692,-0.006009,0.000000,0.002000,0.000000
238.000000,0.002000,-0.714845,-1.362691,-0.459501,-1.710388,0.095009,-0.281111,0.995724,2.488562,0.645793,nan,0.002000,0.000000
239.000000,0.002000,-1.594852,-0.058745,1.097309,0.797247,-1.210635,-0.421959,1.968006,0.188122,-1.525408,0.000000,0.002000,0.000000
240.000000,0.002000,1.899407,0.119488,-0.540671,0.138051,-0.857468,0.368527,-2.400893,-0.075041,0.738225,nan,0.002000,0.000000
241.000000,0.002000,-1.166551,-1.040149,0.278238,-2.066676,0.142815,-0.140636,1.855600,2.027189,-0.600249,0.000000,0.002000,0.000000
242.000000,0.002000,-0.213872,-0.084885,-0.373348,0.564643,-3.715801,1.761229,0.716484,0.048582,0.972327,nan,0.002000,0.000000
243.000000,0.002000,1.444643,-1.985592,-0.203785,0.356578,-0.490791,0.317812,-1.184640,1.641194,0.133845,0.000000,0.002000,0.000000
244.000000,0.002000,0.564273,0.937008,0.810312,-1.895790,0.188630,0.927206,-1.056357,-1.844791,-1.703040,nan,0.002000,0.000000
245.000000,0.002000,0.973660,4.991461,-11.088770,-0.714253,0.397579,-0.530936,-0.020096,-0.059270,0.123340,0.000000,0.002000,0.000000
246.000000,0.002000,2.077218,-1.185018,1.456918,-1.846103,0.951476,-1.289759,-1.242345,0.774017,-0.922097,nan,0.002000,0.000000
247.000000,0.002000,-0.792643,1.236065,1.950002,1.146273,1.700366,1.696579,0.669899,-0.978929,-1.718136,0.000000,0.002000,0.000000
248.000000,0.002000,0.135401,0.113081,1.224723,-0.476506,1.658622,2.158893,0.079211,0.033558,-2.750462,nan,0.002000,0.000000
249.000000,0.002000,-0.498147,0.385556,0.358376,-1.505021,-0.132129,0.896948,-0.003742,-0.423624,-2.028336,0.000000,0.002000,0.000000
250.000000,0.002000,-0.703386,0.940267,-0.433810,0.549668,-0.720836,2.408602,1.717771,-2.635100,1.049155,nan,0.002000,0.000000
251.000000,0.002000,-5.055847,-3.562790,-4.948248,0.448924,-0.158865,0.377263,0.179794,0.128385,0.180092,0.000000,0.002000,0.000000
252.000000,0.002000,0.761676,-1.866066,1.229368,1.009313,0.071309,0.400534,-0.670002,1.738925,-1.054590,nan,0.002000,0.000000
253.000000,0.002000,-0.724922,1.462171,-0.100212,1.149258,0.747973,0.587474,1.007702,-2.340608,0.151593,0.000000,0.002000,0.000000
254.000000,0.002000,-1.607040,0.275535,-0.309122,-0.802178,2.420599,-1.857407,2.805274,-0.655103,0.706910,nan,0.002000,0.000000
255.000000,0.002000,1.125297,-0.894192,0.294668,-0.036899,1.956394,1.329905,-2.345216,1.866425,-0.583802,0.000000,0.002000,0.000000
256.000000,0.002000,1.146935,-2.213303,-0.916299,-0.738431,0.893483,0.246774,-0.774608,1.533041,0.586453,nan,0.002000,0.000000
257.000000,0.002000,0.573566,1.248006,1.071984,2.038967,0.875298,0.800054,-0.771434,-1.883944,-1.325523,0.000000,0.002000,0.000000
258.000000,0.002000,-0.479631,0.799688,-0.581992,0.133014,-0.771226,0.698880,1.751691,-1.180687,0.125915,nan,0.002000,0.000000
259.000000,0.002000,0.734407,0.750518,-0.562540,0.906268,2.740264,0.103308,-1.462679,-1.459819,1.133040,0.000000,0.002000,0.000000
260.000000,0.002000,1.006620,1.032330,1.772056,-0.540761,-2.361113,-0.478150,-0.872985,-1.276460,-1.638065,nan,0.002000,0.000000
261.000000,0.002000,2.031947,-0.677939,0.305814,-1.611587,-0.925415,-0.782939,-2.208449,0.826310,-0.193944,0.000000,0.002000,0.000000
262.000000,0.002000,1.899137,-2.301627,2.290445,-1.108220,0.177104,0.289180,-0.524776,0.651392,-0.666994,nan,0.002000,0.000000
263.000000,0.002000,0.715092,0.352004,0.492619,2.311366,1.288897,-1.110342,-2.274953,-0.689636,-1.001917,0.000000,0.002000,0.000000
264.000000,0.002000,-0.609176,1.041013,-0.834066,1.368528,-1.790344,1.181963,1.172923,-1.715023,1.789666,nan,0.002000,0.000000
265.000000,0.002000,-1.367608,0.623572,-1.663733,-0.785873,0.985417,0.186264,1.445243,-0.576253,1.696110,0.000000,0.002000,0.000000
266.000000,0.002000,-1.950366,4.072262,1.958426,0.289058,0.085723,0.400200,0.283098,-0.583436,-0.285032,nan,0.002000,0.000000
267.000000,0.002000,4.345562,-0.388040,1.750734,-0.405427,0.300960,-0.572917,-0.687978,0.127790,-0.277997,0.000000,0.002000,0.000000
268.000000,0.002000,1.480066,0.591425,-1.400833,0.796231,-0.806348,0.155263,-1.703914,-0.643431,1.625931,nan,0.002000,0.000000
269.000000,0.002000,-0.986807,-0.122363,0.894694,0.056356,0.762822,1.255833,2.275618,0.467567,-1.680646,0.000000,0.002000,0.000000
270.000000,0.002000,-1.294820,3.873242,-0.998696,-0.889734,0.007485,-0.816512,0.299238,-0.845948,0.224590,nan,0.002000,0.000000
271.000000,0.002000,-0.304754,-1.017354,0.141727,1.647910,-1.030081,-1.593588,0.327056,2.755357,-0.657934,0.000000,0.002000,0.000000
272.000000,0.002000,-0.675115,-3.362775,4.516917,-0.162999,1.177667,-0.225770,0.060391,0.319958,-0.420385,nan,0.002000,0.000000
273.000000,0.002000,0.287104,-1.634741,0.691103,-1.529610,-1.046267,1.087815,-0.505512,2.515968,-0.856136,0.000000,0.002000,0.000000
274.000000,0.002000,0.051625,-0.287921,0.146921,0.225292,1.339908,0.413074,-0.638822,0.001473,-0.938417,nan,0.002000,0.000000
275.000000,0.002000,-1.264899,0.950637,0.821085,-1.519753,-0.039529,-0.136187,1.666393,-1.329962,-1.095548,0.000000,0.002000,0.000000
276.000000,0.002000,0.237353,-7.356432,-10.827155,0.067768,-0.343669,-0.366481,-0.002752,0.064794,0.093569,nan,0.002000,0.000000
277.000000,0.002000,-0.738630,1.601205,-0.887630,-0.114487,1.506683,-0.885413,0.980231,-1.978762,1.238426,0.000000,0.002000,0.000000
278.000000,0.002000,0.099091,-0.145561,-0.066408,-2.254077,1.335644,0.598340,-0.325278,0.702607,1.285277,nan,0.002000,0.000000
279.000000,0.002000,0.314365,-2.020027,0.146346,0.036497,0.907038,-0.458513,-0.403997,2.438318,-0.162367,0.000000,0.002000,0.000000
280.000000,0.002000,-1.028805,-0.422534,-0.477173,-0.107606,0.349176,0.538759,2.117762,1.055852,1.024273,nan,0.002000,0.000000
281.000000,0.002000,-1.257564,0.414033,-1.580568,-0.315400,-1.083143,1.310763,1.473704,-0.422783,1.966495,0.000000,0.002000,0.000000
282.000000,0.002000,-3.177722,-0.900687,-1.022504,0.271805,-0.639944,-1.658123,1.143617,0.292903,0.375846,nan,0.002000,0.000000
283.000000,0.002000,0.801612,-1.606533,-0.928877,-1.302091,-0.849285,0.115747,-0.849956,1.765356,1.086563,0.000000,0.002000,0.000000
284.000000,0.002000,-9.633582,1.172632,7.096675,-0.394403,-0.242690,0.143463,0.106162,-0.013343,-0.078384,nan,0.002000,0.000000
285.000000,0.002000,-0.539917,-0.462609,-0.636635,-1.310896,-0.828376,-1.957720,1.001363,1.132817,1.610613,0.000000,0.002000,0.000000
286.000000,0.002000,2.016895,0.189954,0.086089,0.844450,2.136465,0.494270,-2.540238,-0.167079,-0.018492,nan,0.002000,0.000000
287.000000,0.002000,0.311545,-0.274182,0.057793,-0.126007,1.366908,-2.371422,-0.795511,0.786076,-0.048379,0.000000,0.002000,0.000000
288.000000,0.002000,0.260001,-0.542521,1.076933,-0.090982,0.263318,-0.321657,-0.810641,0.916119,-2.744602,nan,0.002000,0.000000
289.000000,0.002000,0.743124,0.811261,0.005922,1.842259,0.375257,0.199062,-1.405700,-1.484957,0.240544,0.000000,0.002000,0.000000
290.000000,0.002000,-0.861306,-0.896252,1.284600,-0.391349,-0.457109,0.614028,1.181029,1.313607,-1.582562,nan,0.002000,0.000000
291.000000,0.002000,-1.433551,-0.769292,2.582198,-1.661606,0.027327,1.508947,0.677148,0.431729,-1.239460,0.000000,0.002000,0.000000
292.000000,0.002000,1.447801,0.474292,0.287872,0.856287,-1.056837,1.254980,-2.531674,-0.733984,-0.590242,nan,0.002000,0.000000
293.000000,0.002000,-1.051711,0.991244,-0.175811,-1.072052,0.285469,0.297914,2.148832,-2.028953,-1.775523,0.000000,0.002000,0.000000
294.000000,0.002000,2.524165,-0.960696,2.033360,-0.747922,-0.398838,-1.427515,-0.918627,0.387153,-0.755028,nan,0.002000,0.000000
295.000000,0.002000,-1.008980,-0.045247,-0.671490,0.609071,-0.060565,1.870223,2.028132,0.146605,1.538609,0.000000,0.002000,0.000000
296.000000,0.002000,-0.982284,1.077857,-0.485585,-0.499714,-0.149923,2.264403,1.756475,-2.056176,1.084800,nan,0.002000,0.000000
297.000000,0.002000,0.225031,-0.942682,-0.113038,-0.907461,0.719743,2.420030,-0.451792,2.426294,0.572189,0.000000,0.002000,0.000000
298.000000,0.002000,1.750387,0.723040,-0.229044,2.611764,0.041663,-0.026086,-2.340596,-0.907448,0.347403,nan,0.002000,0.000000
299.000000,0.002000,-1.561112,-0.526779,-0.960083,-1.641015,-2.348265,-1.126439,1.961597,0.747791,1.299108,0.000000,0.002000,0.000000
300.000000,0.002000,-1.528416,3.788681,0.465862,-0.489191,-0.890520,-1.179693,0.362832,-0.891833,-0.114323,nan,0.002000,0.000000
301.000000,0.002000,-0.886937,0.788401,1.660425,-0.377115,0.963697,1.417543,0.917997,-1.108766,-2.223605,0.000000,0.002000,0.000000
302.000000,0.002000,0.468940,0.881335,-1.718710,-1.366200,0.304193,1.269031,-0.552869,-0.969042,2.247553,nan,0.002000,0.000000
303.000000,0.002000,-0.235536,-0.945043,0.983657,3.024379,1.711233,-0.588532,0.516877,1.874225,-2.011057,0.000000,0.002000,0.000000
304.000000,0.002000,0.208365,-1.900673,-1.638052,0.825359,-0.156748,-0.797373,-0.183578,1.475949,1.448323,nan,0.002000,0.000000
305.000000,0.002000,-4.106009,-2.192652,0.927481,0.110387,0.638622,0.021842,0.636138,0.321974,-0.152653,0.000000,0.002000,0.000000
306.000000,0.002000,1.160312,0.138178,0.686949,-1.660586,0.096472,-0.533080,-2.181392,-0.079855,-1.464309,nan,0.002000,0.000000
307.000000,0.002000,-0.522835,-1.157943,-0.567174,-0.629778,-0.569686,2.275823,0.941510,2.434592,0.933903,0.000000,0.002000,0.000000
308.000000,0.002000,3.121650,-2.022709,-1.517890,-0.924119,1.508788,0.679541,-0.732484,0.510158,0.354271,nan,0.002000,0.000000
309.000000,0.002000,3.632613,-0.852838,1.470325,-1.390462,1.106878,-0.670517,-0.845785,0.227601,-0.348569,0.000000,0.002000,0.000000
310.000000,0.002000,-0.244375,0.375269,1.604116,-1.120355,1.503889,0.196350,0.535981,-0.489269,-2.549380,nan,0.002000,0.000000
311.000000,0.002000,0.815064,-0.875078,1.028216,0.648696,2.354328,-2.387885,-1.430083,1.661836,-1.692836,0.000000,0.002000,0.000000
312.000000,0.002000,3.106742,-0.349556,-3.614515,0.152521,0.044620,0.434828,-0.393621,0.098957,0.523659,nan,0.002000,0.000000
313.000000,0.002000,0.147176,0.960953,0.308120,2.898550,-0.067855,2.678865,-0.144630,-2.147085,-1.040068,0.000000,0.002000,0.000000
314.000000,0.002000,-0.448443,-0.264293,1.457174,-1.185160,0.991295,1.614269,0.812500,0.311909,-2.568883,nan,0.002000,0.000000
315.000000,0.002000,3.189448,1.547099,0.465902,1.110070,-0.014427,0.181290,-1.074591,-0.533474,-0.167780,0.000000,0.002000,0.000000
316.000000,0.002000,-0.826923,-0.101568,2.386360,-0.891359,-0.277045,-1.322360,0.690685,0.098945,-1.862230,nan,0.002000,0.000000
317.000000,0.002000,0.008704,0.837226,-0.848756,1.168478,-0.280694,-2.221587,0.441746,-2.233346,1.197657,0.000000,0.002000,0.000000
318.000000,0.002000,-0.407491,0.884065,-1.009131,0.068984,2.533535,0.693363,0.792138,-1.654808,1.982200,nan,0.002000,0.000000
319.000000,0.002000,-0.125383,-0.305247,1.639530,-1.293351,-0.466712,-1.281029,0.295576,0.397005,-2.861134,0.000000,0.002000,0.000000
320.000000,0.002000,-2.012861,-7.893728,-7.363475,-0.179734,0.099697,-0.364729,0.026581,0.112203,0.103502,nan,0.002000,0.000000
321.000000,0.002000,1.302286,1.085999,-0.802890,0.558941,-0.290906,-0.278141,-1.765094,-1.337915,1.071182,0.000000,0.002000,0.000000
322.000000,0.002000,-0.433198,-1.718742,-0.177972,-1.485291,0.518124,0.416546,0.519865,2.836588,0.196557,nan,0.002000,0.000000
323.000000,0.002000,-0.792176,0.958725,-1.862702,-0.228982,0.332396,0.850423,0.775581,-0.862693,1.963795,0.000000,0.002000,0.000000
324.000000,0.002000,-1.354224,-0.224664,0.278977,0.898833,0.684377,-1.298540,2.711880,0.493011,-0.504001,nan,0.002000,0.000000
325.000000,0.002000,1.099171,4.424933,0.696621,-0.320572,-0.789770,1.488432,-0.187050,-0.848529,-0.139660,0.000000,0.002000,0.000000
326.000000,0.002000,2.933772,-0.515779,3.376024,-0.022509,0.636898,-0.030183,-0.521883,0.097865,-0.599169,nan,0.002000,0.000000
327.000000,0.002000,-0.160048,0.250260,0.547553,0.155631,-1.463104,1.091219,0.683925,-0.403909,-1.165070,0.000000,0.002000,0.000000
328.000000,0.002000,-1.395544,0.450251,-0.234032,-0.083982,1.188149,-2.023339,2.696924,-0.631674,0.602133,nan,0.002000,0.000000
329.000000,0.002000,0.693457,-0.201056,-0.199300,1.192935,1.791626,-0.714249,-1.565814,0.983956,0.628976,0.000000,0.002000,0.000000
330.000000,0.002000,-0.816028,1.850642,0.567140,0.472680,0.637615,-0.272676,1.041334,-2.076478,-0.660787,nan,0.002000,0.000000
331.000000,0.002000,-0.310496,-0.001333,-0.685673,1.323632,0.254531,-0.556878,0.616701,0.181263,1.599578,0.000000,0.002000,0.000000
332.000000,0.002000,0.760646,1.155680,-1.407971,-0.168448,-0.312452,-0.186194,-1.239904,-1.499541,1.482968,nan,0.002000,0.000000
333.000000,0.002000,-1.281574,-0.114281,-1.545798,-2.680217,-0.503304,-0.248743,1.560694,0.182882,1.921792,0.000000,0.002000,0.000000
334.000000,0.002000,0.505032,-0.327871,2.361908,-0.847166,0.943672,0.513497,-0.453076,0.342729,-1.998674,nan,0.002000,0.000000
335.000000,0.002000,0.584778,-0.377691,-1.211208,-0.501247,0.389679,0.101182,-0.898041,0.477999,2.253817,0.000000,0.002000,0.000000
336.000000,0.002000,-0.091450,1.109758,-1.575854,-0.740869,-0.825658,-0.355719,-0.008578,-1.185641,2.184276,nan,0.002000,0.000000
337.000000,0.002000,0.336695,1.585040,-0.729118,0.788695,1.567714,1.501853,-0.585685,-2.436606,1.129468,0.000000,0.002000,0.000000
338.000000,0.002000,4.320681,2.761991,0.607781,-0.771995,-0.904239,0.832667,-0.554034,-0.349871,-0.083529,nan,0.002000,0.000000
339.000000,0.002000,1.372267,-0.858452,0.752043,0.675199,1.170503,-0.587477,-1.998583,1.546421,-1.037274,0.000000,0.002000,0.000000
340.000000,0.002000,1.932762,-1.662795,-0.916178,2.299405,0.016149,0.076218,-1.290913,1.099037,0.512817,nan,0.002000,0.000000
341.000000,0.002000,0.681138,-1.477150,-0.696308,-0.501203,-0.616042,0.588639,-0.909420,2.371800,1.082978,0.000000,0.002000,0.000000
342.000000,0.002000,0.223222,-0.304964,-6.608187,-0.353209,0.557760,0.713500,-0.011654,0.020012,0.395340,nan,0.002000,0.000000
343.000000,0.002000,0.130211,-1.512243,0.445753,-1.524522,-0.426470,1.727438,-0.383353,2.975005,-0.720462,0.000000,0.002000,0.000000
344.000000,0.002000,1.081393,-0.509322,0.545621,-0.270605,-1.283761,0.463323,-2.059153,1.194136,-1.191275,nan,0.002000,0.000000
345.000000,0.002000,1.819891,1.023062,-0.620226,-1.319567,-0.174173,-0.165448,-1.932844,-0.938432,0.995015,0.000000,0.002000,0.000000
346.000000,0.002000,2.264972,-0.240676,2.273045,-1.098790,1.417718,-1.353511,-1.002540,0.144010,-0.979491,nan,0.002000,0.000000
347.000000,0.002000,0.208284,-0.589275,1.356983,0.514702,-2.850445,-1.136368,-0.338779,1.215721,-2.450642,0.000000,0.002000,0.000000
348.000000,0.002000,0.274367,0.613471,0.121317,2.242234,1.467589,-0.295297,-0.782338,-1.757473,-0.571864,nan,0.002000,0.000000
349.000000,0.002000,-0.358882,1.035014,-1.119447,2.318844,1.088701,0.577342,0.500816,-1.485520,2.322223,0.000000,0.002000,0.000000
350.000000,0.002000,-0.090860,-1.130149,2.064139,-1.115317,-1.036119,0.283807,0.065084,1.078742,-1.823270,nan,0.002000,0.000000
351.000000,0.002000,-1.764963,-1.709885,1.480190,-1.396767,-1.225945,0.100008,0.938019,1.003613,-0.833652,0.000000,0.002000,0.000000
352.000000,0.002000,1.974256,3.641724,-1.331387,-0.711877,0.178596,1.436992,-0.407828,-0.709815,0.289917,nan,0.002000,0.000000
353.000000,0.002000,-2.120422,-1.501080,-1.527826,0.921646,1.941675,1.030940,0.998928,0.764279,0.761251,0.000000,0.002000,0.000000
354.000000,0.002000,-0.473584,-1.311224,-1.218973,-0.093461,-0.680713,0.221042,0.608868,1.873527,1.748270,nan,0.002000,0.000000
355.000000,0.002000,0.924586,0.084359,-0.531237,-0.355693,0.119720,0.101016,-2.327536,-0.248625,1.889282,0.000000,0.002000,0.000000
356.000000,0.002000,-1.376486,-0.429831,-0.104808,0.471062,0.025751,1.423820,2.448814,0.785783,0.036615,nan,0.002000,0.000000
357.000000,0.002000,-1.601201,-4.163103,-0.029985,-0.341520,-0.759966,0.512360,0.262095,0.759381,-0.007555,0.000000,0.002000,0.000000
358.000000,0.002000,-1.056857,1.428951,0.915250,1.393593,0.241875,2.012306,1.140237,-2.047524,-1.401941,nan,0.002000,0.000000
359.000000,0.002000,-1.109452,-0.388041,-1.080826,-2.001035,1.494998,-0.075291,1.198049,0.440688,1.973000,0.000000,0.002000,0.000000
360.000000,0.002000,3.088388,2.983310,-0.745754,-0.189633,1.071986,-0.413339,-0.643021,-0.594250,0.152783,nan,0.002000,0.000000
361.000000,0.002000,-0.728790,0.260746,-0.793077,-0.117946,-0.338244,1.465310,2.161121,-0.458620,1.986111,0.000000,0.002000,0.000000
362.000000,0.002000,-1.145141,0.860936,-0.987517,1.016703,1.281320,0.571184,1.824463,-1.278382,1.936000,nan,0.002000,0.000000
363.000000,0.002000,-0.244819,1.266490,-1.338510,-0.345913,-0.398430,1.135475,0.277550,-1.656137,1.928341,0.000000,0.002000,0.000000
364.000000,0.002000,-1.291735,-0.699892,-0.311965,-1.993198,0.557343,-0.127808,2.039876,1.135163,1.254241,nan,0.002000,0.000000
365.000000,0.002000,4.609159,3.275453,-15.490922,0.218376,0.195875,-0.994610,-0.020582,-0.014175,0.068424,0.000000,0.002000,0.000000
366.000000,0.002000,0.328122,0.068244,-0.881121,-0.877015,1.209865,0.095882,-1.060650,0.257163,2.441792,nan,0.002000,0.000000
367.000000,0.002000,-1.028325,0.033288,-1.141428,-0.144819,0.275489,-2.256007,1.615710,0.044402,2.513543,0.000000,0.002000,0.000000
368.000000,0.002000,-1.600979,-2.106055,2.408822,-1.357250,0.435699,0.910246,0.495806,0.683981,-0.755244,nan,0.002000,0.000000
369.000000,0.002000,0.935753,0.636258,-0.341402,0.873682,0.968419,1.783530,-2.164966,-0.931790,1.311027,0.000000,0.002000,0.000000
370.000000,0.002000,-0.163110,0.397460,-1.146738,0.724242,1.951577,1.664360,0.433547,-0.750237,2.925838,nan,0.002000,0.000000
371.000000,0.002000,-1.384157,1.226783,0.011748,-1.941905,1.187204,-0.345160,2.107671,-1.799975,0.034504,0.000000,0.002000,0.000000
372.000000,0.002000,4.184425,-4.563285,-7.256050,-0.058134,0.110378,-0.063939,-0.087631,0.098636,0.150978,nan,0.002000,0.000000
373.000000,0.002000,2.666701,-1.327357,-2.591940,0.426657,0.197158,1.027871,-0.626413,0.335294,0.625336,0.000000,0.002000,0.000000
374.000000,0.002000,-1.150015,-0.060879,-2.234123,-0.428716,1.023978,1.975882,0.827226,0.088800,1.784943,nan,0.002000,0.000000
375.000000,0.002000,0.118147,-1.969921,2.086595,-1.365142,1.686083,-1.093733,-0.088477,1.166450,-1.128244,0.000000,0.002000,0.000000
376.000000,0.002000,0.496148,-0.897313,0.609655,-0.216296,1.067590,0.095210,-1.222851,2.886112,-1.573956,nan,0.002000,0.000000
377.000000,0.002000,-1.933719,-2.674960,3.988789,0.366080,0.007750,-1.288755,0.233034,0.325413,-0.472131,0.000000,0.002000,0.000000
378.000000,0.002000,-1.006807,3.225477,-2.092992,0.273615,-1.077452,0.339262,0.266609,-0.799507,0.537749,nan,0.002000,0.000000
379.000000,0.002000,-0.001887,-0.947738,0.180888,-0.051108,-0.117095,0.116313,-0.390571,2.034663,0.193265,0.000000,0.002000,0.000000
380.000000,0.002000,0.198140,-0.752967,1.265670,-0.248114,-1.644367,0.044047,-0.410815,1.671824,-2.278957,nan,0.002000,0.000000
381.000000,0.002000,10.145627,1.890322,-6.517253,0.386874,-0.031893,-0.189721,-0.107789,-0.019816,0.068984,0.000000,0.002000,0.000000
382.000000,0.002000,-1.330097,-0.469018,0.366610,1.151973,-1.729443,1.177262,2.387562,0.980492,-0.859665,nan,0.002000,0.000000
383.000000,0.002000,0.336634,0.138146,-1.009891,1.525007,0.510205,1.065397,-0.992491,0.103546,2.465459,0.000000,0.002000,0.000000
384.000000,0.002000,0.430819,2.336389,0.163744,0.128780,0.802257,-0.754418,-0.407520,-2.121257,-0.168306,nan,0.002000,0.000000
385.000000,0.002000,-0.868697,-1.178803,1.417067,0.554857,0.330480,0.042425,0.960493,1.527457,-1.686405,0.000000,0.002000,0.000000
386.000000,0.002000,-1.136173,1.635852,-0.120108,-0.633751,1.386356,0.259251,1.491387,-2.065638,0.226100,nan,0.002000,0.000000
387.000000,0.002000,-9.709494,-0.679082,6.360611,-0.227408,-0.212123,0.216177,0.115404,0.009000,-0.075760,0.000000,0.002000,0.000000
388.000000,0.002000,-0.411829,0.752785,-1.575200,0.717499,0.060747,1.384985,0.646367,-0.872741,2.453615,nan,0.002000,0.000000
389.000000,0.002000,1.795065,-0.988345,0.843134,1.099176,-1.586519,-1.191480,-1.714245,1.169063,-0.887148,0.000000,0.002000,0.000000
390.000000,0.002000,1.476883,0.731540,1.312536,0.189453,-0.439052,0.698934,-1.688625,-0.858147,-1.437417,nan,0.002000,0.000000
391.000000,0.002000,-1.343298,1.884628,-1.025591,-0.530302,0.345983,-0.091185,1.157924,-1.432629,0.926116,0.000000,0.002000,0.000000
392.000000,0.002000,-0.302073,1.799711,-0.074573,1.532485,0.423645,-0.532799,0.351880,-2.863051,0.096920,nan,0.002000,0.000000
393.000000,0.002000,1.012466,0.505770,-1.417236,-0.540076,-0.606597,0.090732,-1.349947,-0.669496,2.074762,0.000000,0.002000,0.000000
394.000000,0.002000,-0.567682,1.927560,0.612038,0.797704,1.060749,0.002164,0.451253,-2.027504,-0.832294,nan,0.002000,0.000000
395.000000,0.002000,0.275143,0.712203,-0.057161,0.016848,-2.487575,1.453161,-0.669944,-2.436065,0.741909,0.000000,0.002000,0.000000
396.000000,0.002000,-0.491724,-0.906614,-0.502191,-1.039636,-1.361252,0.200581,0.734524,2.494776,1.331936,nan,0.002000,0.000000
397.000000,0.002000,1.206783,0.968864,0.387912,-0.324617,-1.381352,-0.849847,-2.259641,-1.772214,-0.612323,0.000000,0.002000,0.000000
398.000000,0.002000,4.626899,0.559360,-0.660051,1.232086,0.146836,-0.065954,-0.759791,-0.114701,0.134377,nan,0.002000,0.000000
399.000000,0.002000,1.138144,-0.167934,-0.650089,2.187419,-2.150777,-2.139358,-2.160021,0.220510,1.405126,0.000000,0.002000,0.000000
400.000000,0.002000,0.632062,3.591762,-0.823787,1.317698,0.873135,0.418637,-0.179282,-1.080104,0.272645,nan,0.002000,0.000000
401.000000,0.002000,11.853396,1.705324,-10.529941,0.777459,-0.028197,-0.626589,-0.057940,-0.007885,0.051408,0.000000,0.002000,0.000000
402.000000,0.002000,0.731424,-0.839391,-1.176205,-0.040949,-0.685513,1.521034,-1.267759,1.496295,1.807486,nan,0.002000,0.000000
403.000000,0.002000,-2.276573,-0.547772,1.621658,2.419218,0.052548,-0.549088,1.295527,0.336473,-0.932450,0.000000,0.002000,0.000000
404.000000,0.002000,0.092786,0.252471,2.760607,0.756540,0.603767,1.461214,-0.020628,-0.134575,-1.721242,nan,0.002000,0.000000
405.000000,0.002000,0.269050,0.196807,1.287866,1.055162,1.237244,0.044102,-0.459757,0.002803,-2.694628,0.000000,0.002000,0.000000
406.000000,0.002000,0.386579,-0.600939,0.760532,0.471417,1.011216,1.727663,-0.787670,1.243935,-1.651431,nan,0.002000,0.000000
407.000000,0.002000,0.803417,0.833743,0.371963,0.693394,1.401101,1.246799,-1.628841,-1.225828,-0.782245,0.000000,0.002000,0.000000
408.000000,0.002000,1.285963,-0.311987,0.668667,1.406255,-2.027461,0.984001,-2.103987,0.647126,-1.274565,nan,0.002000,0.000000
409.000000,0.002000,0.860137,-0.548160,-0.398146,-1.619440,-0.005801,0.215332,-1.935204,1.449824,0.864068,0.000000,0.002000,0.000000
410.000000,0.002000,1.243998,4.299464,-1.080805,-0.155075,-0.049973,-0.646167,-0.235741,-0.772243,0.217427,nan,0.002000,0.000000
411.000000,0.002000,0.690838,0.022835,-1.184901,2.822159,1.298636,-1.022513,-1.116684,0.115648,2.271314,0.000000,0.002000,0.000000
412.000000,0.002000,-8.859542,-7.460585,6.986457,-0.292311,-0.521934,0.208260,0.068992,0.058663,-0.054555,nan,0.002000,0.000000
413.000000,0.002000,-1.650869,0.627389,-0.057094,-0.142246,0.551083,-0.623346,2.710520,-0.886515,0.152572,0.000000,0.002000,0.000000
414.000000,0.002000,2.973772,2.422045,2.067003,-1.382583,-0.112896,-0.925485,-0.595347,-0.455494,-0.414511,nan,0.002000,0.000000
415.000000,0.002000,-0.265323,0.635957,-0.770160,1.853410,1.800690,1.037445,0.154497,-1.194112,1.447964,0.000000,0.002000,0.000000
416.000000,0.002000,0.173795,0.949573,-1.182353,1.691458,0.156026,1.633755,-0.314692,-1.399190,2.248347,nan,0.002000,0.000000
417.000000,0.002000,1.897884,4.088622,7.553680,0.006981,-0.377926,-0.233129,-0.054366,-0.107592,-0.205121,0.000000,0.002000,0.000000
418.000000,0.002000,0.397912,0.767575,1.791152,0.210281,0.161941,-2.098490,-0.496872,-0.897735,-2.266965,nan,0.002000,0.000000
419.000000,0.002000,6.222837,9.232033,-3.280844,0.237557,0.194264,-0.629632,-0.077971,-0.115172,0.043537,0.000000,0.002000,0.000000
420.000000,0.002000,3.033956,0.652020,3.263585,-0.297273,0.198020,0.094783,-0.536633,-0.088911,-0.590148,nan,0.002000,0.000000
421.000000,0.002000,0.018122,0.397319,0.999555,0.127032,0.550057,-1.626967,0.511760,-0.552513,-2.308169,0.000000,0.002000,0.000000
422.000000,0.002000,3.344419,2.658444,-1.257874,-0.374368,0.047509,-0.019483,-0.653894,-0.476128,0.251478,nan,0.002000,0.000000
423.000000,0.002000,0.139018,-15.968811,12.308505,-0.083919,-1.294919,1.017200,-0.000581,0.038366,-0.030011,0.000000,0.002000,0.000000
424.000000,0.002000,0.525321,5.770942,2.931238,0.311812,-0.770429,-0.021520,-0.033728,-0.376608,-0.198652,nan,0.002000,0.000000
425.000000,0.002000,1.545893,-0.610289,0.685297,0.305171,-0.102953,-1.576562,-2.460701,1.281015,-1.457674,0.000000,0.002000,0.000000
426.000000,0.002000,1.583202,-1.518197,0.473819,1.177454,-0.750482,-0.651680,-1.474982,1.495427,-0.356586,nan,0.002000,0.000000
427.000000,0.002000,0.779145,1.741386,0.354123,0.987115,-2.013106,-0.092531,-1.232683,-2.316814,-0.689886,0.000000,0.002000,0.000000
428.000000,0.002000,-0.362845,0.331654,2.062228,-1.097691,1.712814,-0.065238,0.321163,-0.210999,-2.285418,nan,0.002000,0.000000
429.000000,0.002000,0.733972,-0.452489,-0.132873,-1.735780,-1.891386,0.984874,-1.677438,1.475310,0.202862,0.000000,0.002000,0.000000
430.000000,0.002000,6.949792,-4.092955,-2.744957,-0.248167,0.130223,0.350898,-0.197798,0.121437,0.079230,nan,0.002000,0.000000
431.000000,0.002000,0.379270,1.442498,-0.973372,-0.717866,0.938628,0.285967,-0.505351,-2.281207,1.343068,0.000000,0.002000,0.000000
432.000000,0.002000,0.696914,1.407919,-1.288886,-0.550906,-2.062979,1.643303,-0.844824,-1.548672,1.592036,nan,0.002000,0.000000
433.000000,0.002000,0.220291,0.242094,0.106467,1.014722,0.539556,0.747572,-0.058477,0.504263,0.453813,0.000000,0.002000,0.000000
434.000000,0.002000,-2.718332,-2.315539,-0.826047,-1.058617,1.003785,1.248590,0.797887,0.738186,0.266598,nan,0.002000,0.000000
435.000000,0.002000,-0.210424,-1.413723,0.387918,-0.461235,1.002140,1.979321,0.596640,2.775327,-0.418467,0.000000,0.002000,0.000000
436.000000,0.002000,0.649262,-0.453744,1.237134,2.097385,1.464621,-1.029223,-1.306426,0.596981,-2.115149,nan,0.002000,0.000000
437.000000,0.002000,-0.322280,0.261030,-0.493436,-1.558749,0.357898,-1.644372,0.239401,0.048097,1.402077,0.000000,0.002000,0.000000
438.000000,0.002000,-0.188277,-0.008777,0.170123,-0.727385,-0.896685,-1.562681,0.197000,0.220925,-0.924513,nan,0.002000,0.000000
439.000000,0.002000,0.227588,0.521757,1.308502,1.316157,-1.132754,0.884910,-0.307776,-1.055424,-3.405042,0.000000,0.002000,0.000000
440.000000,0.002000,-0.646776,-0.568658,-1.460963,1.634090,0.263279,0.562655,0.831953,0.984453,2.405428,nan,0.002000,0.000000
441.000000,0.002000,-0.983713,-1.758463,-0.857524,0.348584,-0.530328,0.896797,0.942202,1.903359,0.868878,0.000000,0.002000,0.000000
442.000000,0.002000,0.278734,0.570260,-0.709095,-0.617141,0.354521,2.429236,-0.365626,-1.022141,1.678656,nan,0.002000,0.000000
443.000000,0.002000,0.299918,0.474710,0.314322,-1.018794,2.763843,-1.413584,-0.569062,-1.125330,-1.091769,0.000000,0.002000,0.000000
444.000000,0.002000,-0.827899,-0.304596,0.441089,1.568266,-1.402102,-0.048680,1.939554,1.069999,-1.074586,nan,0.002000,0.000000
445.000000,0.002000,-0.990105,-0.075232,0.383442,0.181339,0.627027,-1.944518,2.347729,0.439926,-1.137039,0.000000,0.002000,0.000000
446.000000,0.002000,0.367393,1.005848,2.044978,0.684015,1.131218,1.160230,-0.415189,-1.012049,-1.999373,nan,0.002000,0.000000
447.000000,0.002000,1.222119,-1.724319,-0.391473,-0.341056,0.261516,-0.346914,-0.336282,1.683430,0.690640,0.000000,0.002000,0.000000
448.000000,0.002000,0.291013,0.503217,-2.237609,-1.596553,0.513096,1.708617,-0.306150,-0.400232,1.986817,nan,0.002000,0.000000
449.000000,0.002000,-0.489709,-0.183480,-0.529656,-1.365734,2.050535,-1.176520,1.199258,0.477859,1.406245,0.000000,0.002000,0.000000
450.000000,0.002000,0.091451,-0.687509,1.423655,0.772762,-1.835202,1.078832,-0.049143,1.413556,-2.501972,nan,0.002000,0.000000
451.000000,0.002000,-2.027659,-7.545529,4.519853,-0.595068,0.337587,0.693715,0.048872,0.189876,-0.108991,0.000000,0.002000,0.000000
452.000000,0.002000,-10.537005,8.336328,4.757955,-0.362916,0.708110,0.274713,0.072731,-0.057330,-0.032317,nan,0.002000,0.000000
453.000000,0.002000,-3.398539,1.622790,0.278698,-1.436285,0.727803,0.900225,0.983922,-0.483308,-0.071250,0.000000,0.002000,0.000000
454.000000,0.002000,-1.587130,-0.922910,1.036091,-0.786040,0.399307,1.396771,1.726572,1.004934,-1.189316,nan,0.002000,0.000000
455.000000,0.002000,1.477390,3.506510,0.254173,-0.205874,-1.341136,0.293579,-0.442428,-1.007268,-0.041138,0.000000,0.002000,0.000000
456.000000,0.002000,-0.812655,0.235841,0.576219,0.033637,-0.904433,1.022672,2.504859,0.435069,-1.108951,nan,0.002000,0.000000
457.000000,0.002000,1.048343,3.867031,-0.522057,-0.395510,-1.202138,-0.069519,-0.287826,-0.946701,0.148424,0.000000,0.002000,0.000000
458.000000,0.002000,0.178786,1.267368,0.446509,-0.372268,0.502783,-2.224117,-1.942984,-1.292839,-0.367874,nan,0.002000,0.000000
459.000000,0.002000,-0.102060,-0.119054,2.005760,-1.316180,1.398872,-0.327433,0.216204,0.200885,-2.376484,0.000000,0.002000,0.000000
460.000000,0.002000,0.934016,-0.206940,0.124648,-0.246886,0.827815,0.216489,-2.237646,0.612133,0.029423,nan,0.002000,0.000000
461.000000,0.002000,-1.454121,0.129993,-0.123327,0.335560,1.023842,2.488977,3.260051,0.130010,-0.374883,0.000000,0.002000,0.000000
462.000000,0.002000,-0.281635,-0.929371,-1.830573,-1.529908,-0.281113,-1.083007,0.453675,1.153969,2.046095,nan,0.002000,0.000000
463.000000,0.002000,-0.833954,0.062561,-1.387830,-1.474176,1.511720,-0.473962,1.111475,-0.042962,2.306828,0.000000,0.002000,0.000000
464.000000,0.002000,1.552283,-0.529562,0.295908,-0.502125,-1.716073,0.921966,-2.604049,0.974785,-0.700115,nan,0.002000,0.000000
465.000000,0.002000,0.038070,0.667287,-2.488708,0.077366,0.908853,1.661502,-0.096656,-0.454323,1.816962,0.000000,0.002000,0.000000
466.000000,0.002000,1.764469,-3.056235,-4.237936,-0.963225,0.861226,0.323509,-0.177040,0.280738,0.391671,nan,0.002000,0.000000
467.000000,0.002000,1.476985,0.518898,1.251836,-0.144788,0.416489,0.421462,-1.824174,-0.413360,-1.545711,0.000000,0.002000,0.000000
468.000000,0.002000,-11.063381,2.468489,-1.305130,-0.391619,-0.095527,0.205462,0.146239,-0.029930,0.011922,nan,0.002000,0.000000
469.000000,0.002000,0.303325,0.613310,-0.478793,-2.072139,0.889019,-0.997476,-0.590506,-1.594470,1.256457,0.000000,0.002000,0.000000
470.000000,0.002000,-9.430233,0.619587,0.285585,0.041477,0.470003,-0.009437,0.209071,-0.011757,-0.009339,nan,0.002000,0.000000
471.000000,0.002000,-0.750192,1.310902,1.144373,1.589012,-0.634565,-2.237744,0.942537,-1.904365,-1.745538,0.000000,0.002000,0.000000
472.000000,0.002000,-0.424528,-0.759823,-1.402405,2.023041,-1.243574,2.266663,0.775913,1.067694,2.093488,nan,0.002000,0.000000
473.000000,0.002000,-14.634748,1.489773,11.272531,-1.457361,-0.235353,0.672854,0.045892,-0.004616,-0.035506,0.000000,0.002000,0.000000
474.000000,0.002000,-0.933894,-0.943247,0.977363,-1.255984,0.001952,-1.899140,1.422804,1.678405,-1.483301,nan,0.002000,0.000000
475.000000,0.002000,-0.672340,0.713449,0.183275,2.674404,0.821514,1.066061,0.385814,-1.378858,-0.357226,0.000000,0.002000,0.000000
476.000000,0.002000,-2.076789,2.326143,-2.947024,-0.737794,0.029707,-1.172846,0.437156,-0.484294,0.607182,nan,0.002000,0.000000
477.000000,0.002000,-1.384755,-0.708652,0.296192,0.911435,-0.377573,-1.994014,-1.983795,3.561644,-0.818796,0.000000,0.002000,0.000000
478.000000,0.002000,7.584093,14.552258,-6.032249,0.440071,1.085577,-0.440772,-0.028459,-0.054373,0.022879,nan,0.002000,0.000000
479.000000,0.002000,-0.635387,1.275302,0.893191,-1.460488,0.697591,-1.607580,1.146821,-2.364622,-1.885056,0.000000,0.002000,0.000000
480.000000,0.002000,2.780821,2.013598,-0.289018,1.898332,0.410909,-0.941641,-0.976458,-0.635712,0.116740,nan,0.002000,0.000000
481.000000,0.002000,-1.337156,1.108583,-1.797105,-0.310789,-1.501204,1.514127,1.056360,-0.734754,1.655252,0.000000,0.002000,0.000000
482.000000,0.002000,-1.534743,-2.339205,-1.015262,0.414624,1.646357,-0.274885,0.738940,1.234547,0.544788,nan,0.002000,0.000000
483.000000,0.002000,18.793914,-6.314212,-5.462238,1.551675,-0.532603,-0.397637,-0.042918,0.014607,0.012489,0.000000,0.002000,0.000000
484.000000,0.002000,0.227996,1.317168,-0.964899,-0.722547,-0.945110,-0.408745,-0.237108,-2.100320,1.634965,nan,0.002000,0.000000
485.000000,0.002000,0.197358,-0.208596,0.263681,1.262694,1.535951,-0.794735,-0.711439,0.882114,-0.541502,0.000000,0.002000,0.000000
486.000000,0.002000,-1.226225,-0.351873,3.710032,-0.616564,-0.907535,-0.525907,0.315435,0.108277,-0.958828,nan,0.002000,0.000000
487.000000,0.002000,-1.088261,4.656009,5.796681,-0.214652,-0.761919,-0.133860,0.055872,-0.200060,-0.255973,0.000000,0.002000,0.000000
488.000000,0.002000,-3.296223,1.741685,-2.286637,-0.820076,0.448584,0.209773,0.642341,-0.338878,0.446687,nan,0.002000,0.000000
489.000000,0.002000,-0.464557,-0.426324,-2.115758,0.524749,-1.197824,0.952810,0.421627,0.463832,2.027226,0.000000,0.002000,0.000000
490.000000,0.002000,-0.143406,-0.652816,0.906775,2.912736,1.198688,-1.207376,0.165259,1.636327,-1.520540,nan,0.002000,0.000000
491.000000,0.002000,-0.946334,-0.590105,-0.775514,0.349677,-0.848500,-0.159628,2.008441,1.148837,1.531885,0.000000,0.002000,0.000000
492.000000,0.002000,0.666492,0.193240,1.288599,-1.029185,-0.942068,-0.776497,-1.778704,-0.197598,-2.355617,nan,0.002000,0.000000
493.000000,0.002000,0.905364,-0.027024,-1.109394,-0.354100,-0.598196,-2.724997,-2.420149,0.306874,1.542318,0.000000,0.002000,0.000000
494.000000,0.002000,1.055884,-0.337392,0.130211,1.253433,-0.321450,-0.725904,-2.438925,0.600359,0.184190,nan,0.002000,0.000000
495.000000,0.002000,0.488830,-0.059807,-0.209564,1.114824,-0.063418,-1.969417,-1.041945,0.258851,0.718675,0.000000,0.002000,0.000000
496.000000,0.002000,-2.557242,-0.892288,0.829105,-1.923322,-1.570148,-0.071007,1.493123,0.581670,-0.513638,nan,0.002000,0.000000
497.000000,0.002000,-2.690878,-15.688992,-5.723464,-0.661721,-0.891866,-0.154739,0.010565,0.064189,0.023283,0.000000,0.002000,0.000000
498.000000,0.002000,1.020216,-1.463622,0.413381,0.866683,0.719214,-0.386221,-1.271830,2.121445,-0.597372,nan,0.002000,0.000000
499.000000,0.002000,3.715747,1.152644,-2.251166,0.638699,-0.491292,0.202735,-0.688172,-0.191724,0.416935,0.000000,0.002000,0.000000
500.000000,0.002000,-0.836455,0.521322,-1.417438,-0.288122,1.601080,-0.247812,1.054710,-0.409282,2.329485,nan,0.002000,0.000000
501.000000,0.002000,-0.650727,0.084338,0.818684,-1.152763,-0.673556,1.472806,1.151643,-0.064886,-2.108175,0.000000,0.002000,0.000000
502.000000,0.002000,0.240593,1.037378,-0.795611,-2.088444,0.956280,-1.339699,-0.167974,-2.298427,2.785936,nan,0.002000,0.000000
503.000000,0.002000,0.019584,-0.917138,-1.086801,0.256987,1.245192,-1.277457,0.001645,1.583867,1.817990,0.000000,0.002000,0.000000
504.000000,0.002000,1.153518,-0.270430,0.806413,0.918469,1.627816,-2.045043,-2.233935,0.503010,-1.510013,nan,0.002000,0.000000
505.000000,0.002000,-0.474787,-0.674496,-0.080581,-1.293501,-1.995200,-1.885453,1.322467,1.890168,0.174021,0.000000,0.002000,0.000000
506.000000,0.002000,1.055252,1.914697,-0.542137,0.858224,0.226020,-0.302669,-1.158894,-2.137379,0.285154,nan,0.002000,0.000000
507.000000,0.002000,-2.364436,0.241185,1.949086,-0.851457,0.297267,-1.135558,1.118508,-0.109560,-0.953141,0.000000,0.002000,0.000000
508.000000,0.002000,-2.516530,3.535734,-1.581310,0.419476,-0.288306,-0.476962,0.435490,-0.593318,0.273197,nan,0.002000,0.000000
509.000000,0.002000,-1.779801,-0.063883,-2.622482,-0.818065,0.598035,-1.018331,0.752613,0.038578,1.210642,0.000000,0.002000,0.000000
510.000000,0.002000,-5.914759,2.529615,6.134413,0.230151,-0.295754,-0.046359,0.157587,-0.062924,-0.164585,nan,0.002000,0.000000
511.000000,0.002000,5.781356,-1.848349,6.135854,-0.432848,0.697585,0.512571,-0.161511,0.052371,-0.173634,0.000000,0.002000,0.000000
512.000000,0.002000,-1.174549,-0.123464,-0.696330,-0.894440,0.161512,1.891764,2.326866,0.193794,1.302969,nan,0.002000,0.000000
513.000000,0.002000,-5.421542,-1.119371,-8.478976,-0.352371,-0.122220,0.124006,0.097602,0.022369,0.153438,0.000000,0.002000,0.000000
514.000000,0.002000,0.429644,-1.731715,0.325041,-0.907008,-1.546997,1.282940,-0.569109,2.550502,-0.387057,nan,0.002000,0.000000
515.000000,0.002000,-2.792962,9.236558,6.118661,0.020860,0.129734,0.154409,0.037045,-0.116848,-0.083202,0.000000,0.002000,0.000000
516.000000,0.002000,-0.924145,0.196800,-0.776998,1.165077,-0.169236,0.021971,1.846744,-0.663028,2.024673,nan,0.002000,0.000000
517.000000,0.002000,0.186829,-0.369359,-1.520189,0.636622,-1.083233,0.973456,-0.173000,0.576703,2.235268,0.000000,0.002000,0.000000
518.000000,0.002000,-0.109479,-1.048958,-1.045598,1.065694,0.838424,-1.485040,0.117531,2.166838,2.222889,nan,0.002000,0.000000
519.000000,0.002000,0.869062,-1.465290,0.681546,-0.505226,1.437331,-0.422613,-1.111084,2.156143,-0.913465,0.000000,0.002000,0.000000
520.000000,0.002000,0.873495,1.009111,0.203241,-1.624891,0.460140,-1.092806,-1.758464,-1.611989,-0.488164,nan,0.002000,0.000000
521.000000,0.002000,-1.721096,-0.461165,1.312975,0.568908,-1.304883,-0.784108,1.670796,0.552498,-1.294274,0.000000,0.002000,0.000000
522.000000,0.002000,-1.017337,-0.191742,-0.350403,0.434264,-1.548900,-1.066091,2.057970,0.712611,1.013224,nan,0.002000,0.000000
523.000000,0.002000,-0.837495,0.899877,0.365455,-0.211233,-0.379842,-2.124713,1.483797,-1.810764,-1.014581,0.000000,0.002000,0.000000
524.000000,0.002000,0.150394,0.277043,-0.025872,-2.590675,-3.076018,0.655380,-0.365032,0.199731,0.313165,nan,0.002000,0.000000
525.000000,0.002000,1.463700,1.714165,0.552978,1.576395,1.644147,0.998894,-1.448013,-1.465902,-0.547039,0.000000,0.002000,0.000000
526.000000,0.002000,0.400086,0.455954,0.318970,0.311837,2.216983,-1.557629,-1.288517,-1.039355,-0.555703,nan,0.002000,0.000000
527.000000,0.002000,0.379812,0.583402,1.260438,1.638364,0.811583,0.445278,-0.231373,0.152667,-4.017863,0.000000,0.002000,0.000000
528.000000,0.002000,-2.257289,-0.290975,3.453643,0.758190,-0.612426,0.966286,0.484053,0.079236,-0.788600,nan,0.002000,0.000000
529.000000,0.002000,0.075505,-1.013199,0.901417,1.403468,-1.546608,-0.044142,-0.077070,1.813904,-1.739295,0.000000,0.002000,0.000000
530.000000,0.002000,2.393056,-12.658577,-4.982386,0.458195,-0.661395,-0.221440,-0.017929,0.093192,0.035915,nan,0.002000,0.000000
531.000000,0.002000,0.783591,0.159440,-2.542713,0.094134,-0.107665,2.038116,-0.482744,-0.094888,1.720056,0.000000,0.002000,0.000000
532.000000,0.002000,-0.140862,1.551803,1.696489,2.213792,-0.525407,-0.559660,0.209151,-1.444208,-1.675538,nan,0.002000,0.000000
533.000000,0.002000,2.981240,-1.212599,0.173887,-0.468579,1.116129,-1.127181,-1.284275,0.556975,-0.079062,0.000000,0.002000,0.000000
534.000000,0.002000,-0.721898,0.111672,-0.701939,-1.104674,0.355704,0.554861,1.618516,-0.772079,1.801263,nan,0.002000,0.000000
535.000000,0.002000,4.824059,4.438469,5.817913,-0.205457,-0.160577,-0.297359,-0.133752,-0.118021,-0.162101,0.000000,0.002000,0.000000
536.000000,0.002000,2.385288,3.799928,0.879875,0.442830,0.576876,0.203253,-0.417212,-0.657383,-0.156324,nan,0.002000,0.000000
537.000000,0.002000,-1.133085,-1.423203,-0.638268,0.294462,1.809987,-1.056877,1.317925,1.729474,0.912279,0.000000,0.002000,0.000000
538.000000,0.002000,0.651370,-1.170168,-0.187914,1.010721,-3.314295,-0.117634,-1.210465,2.333135,0.410847,nan,0.002000,0.000000
539.000000,0.002000,2.807716,1.415599,-2.331465,1.145578,0.847812,0.016944,-0.725727,-0.347936,0.626414,0.000000,0.002000,0.000000
540.000000,0.002000,1.789460,-1.114311,0.575181,0.620635,0.637307,0.384578,-1.825973,1.251857,-0.542502,nan,0.002000,0.000000
541.000000,0.002000,0.099984,-1.462457,-2.391351,0.073497,1.158162,1.561895,-0.005482,0.937674,1.429320,0.000000,0.002000,0.000000
542.000000,0.002000,-1.943401,0.025669,-0.509557,1.105023,-0.024603,-1.877463,2.437385,0.178616,0.593193,nan,0.002000,0.000000
543.000000,0.002000,-0.942620,-0.365599,-1.336557,-0.506053,-1.231904,-0.515716,1.439234,0.508331,2.205570,0.000000,0.002000,0.000000
544.000000,0.002000,-0.589535,1.458590,-0.992933,-0.500103,-0.234793,0.649969,0.924379,-2.005102,1.413618,nan,0.002000,0.000000
545.000000,0.002000,-2.632504,3.033551,2.118070,-0.425002,-0.027533,0.482526,0.482461,-0.493270,-0.342784,0.000000,0.002000,0.000000
546.000000,0.002000,1.015672,-0.044649,-0.087310,1.787948,-0.570748,1.248944,-2.291873,0.103542,0.384301,nan,0.002000,0.000000
547.000000,0.002000,-0.371963,-1.154605,1.161703,-0.028000,-0.336281,0.831323,0.778577,1.656478,-2.145426,0.000000,0.002000,0.000000
548.000000,0.002000,-0.072424,-3.263458,-3.304771,-0.414454,-0.469461,-0.473214,0.006443,0.544398,0.532248,nan,0.002000,0.000000
549.000000,0.002000,0.954891,-1.686116,0.978648,-1.623425,-1.894571,1.373274,-1.018231,1.912209,-0.924122,0.000000,0.002000,0.000000
550.000000,0.002000,-0.890431,-0.172548,-2.034220,0.085587,1.483002,0.765096,0.756486,0.219695,2.045691,nan,0.002000,0.000000
551.000000,0.002000,5.718142,2.853016,-0.340077,-0.597789,-0.521399,-0.557895,-0.394443,-0.186923,0.024774,0.000000,0.002000,0.000000
552.000000,0.002000,-0.064835,0.013404,-1.064045,1.743170,-2.211855,-0.029422,0.257679,0.234111,2.969584,nan,0.002000,0.000000
553.000000,0.002000,4.357882,-3.233706,-3.186085,-0.365902,0.276765,0.953997,-0.297592,0.231786,0.214531,0.000000,0.002000,0.000000
554.000000,0.002000,0.583479,0.351297,0.560254,1.117729,0.330258,0.420227,-1.571133,-0.376538,-1.855492,nan,0.002000,0.000000
555.000000,0.002000,0.731431,0.688482,-0.191229,-2.194165,1.388316,1.370396,-2.419913,-3.474191,1.391426,0.000000,0.002000,0.000000
556.000000,0.002000,0.539306,-0.475429,-0.037207,-0.741689,2.182403,-1.689811,-1.619020,1.626904,0.341452,nan,0.002000,0.000000
557.000000,0.002000,0.558621,0.076102,-1.604704,1.842354,-0.003864,-0.491963,-1.084188,0.138638,2.625389,0.000000,0.002000,0.000000
558.000000,0.002000,-2.020973,1.484038,-2.157326,-0.986614,1.939514,-0.455473,0.806580,-0.571866,0.886918,nan,0.002000,0.000000
559.000000,0.002000,-2.234123,-0.009534,-2.350889,0.720314,1.151912,-0.981810,0.906959,0.004597,1.035736,0.000000,0.002000,0.000000
560.000000,0.002000,-0.166890,-0.862819,1.387889,-0.373861,-3.059867,-1.225612,0.314113,1.527099,-2.313527,nan,0.002000,0.000000
561.000000,0.002000,-0.624311,1.249703,1.816238,-0.327150,-1.217035,0.375386,0.560603,-1.127364,-1.813308,0.000000,0.002000,0.000000
562.000000,0.002000,2.754606,3.166122,0.049815,0.487234,-1.675540,-0.044574,-0.620227,-0.648611,0.017434,nan,0.002000,0.000000
563.000000,0.002000,-3.634521,3.094818,-0.564058,-0.649504,0.637772,-0.702592,0.552437,-0.460839,0.079867,0.000000,0.002000,0.000000
564.000000,0.002000,-0.073237,3.337109,-2.014079,1.106573,0.873903,-0.798680,0.019498,-0.884146,0.534396,nan,0.002000,0.000000
565.000000,0.002000,-0.801174,-3.166654,-1.444415,-1.236365,-0.766571,-0.324680,0.253234,1.013302,0.493311,0.000000,0.002000,0.000000
566.000000,0.002000,-1.705602,0.853391,0.861512,0.374828,0.796579,-1.086102,2.049991,-0.885452,-1.032939,nan,0.002000,0.000000
567.000000,0.002000,5.687118,-1.221118,2.763117,-0.611969,0.288186,-0.739487,-0.367720,0.082496,-0.182356,0.000000,0.002000,0.000000
568.000000,0.002000,0.095914,-0.356465,0.582073,-0.724155,-1.601438,1.481708,-0.126808,1.541406,-1.709431,nan,0.002000,0.000000
569.000000,0.002000,-0.788342,1.516432,0.293920,-0.572233,0.796572,2.857207,1.045807,-2.322271,-0.382487,0.000000,0.002000,0.000000
570.000000,0.002000,-4.687804,2.000168,-3.345462,-0.454616,-0.288459,0.023574,0.362566,-0.154068,0.262498,nan,0.002000,0.000000
571.000000,0.002000,0.372202,-0.468635,-1.107815,1.187930,1.834753,-0.663642,-0.556618,0.899503,2.474780,0.000000,0.002000,0.000000
572.000000,0.002000,-0.103370,-0.541118,-0.543218,-3.095660,2.247932,0.821953,0.108268,1.124735,1.040011,nan,0.002000,0.000000
573.000000,0.002000,0.196445,0.261427,-0.109457,-0.282370,2.246026,-1.135263,-0.947726,-0.248478,0.875613,0.000000,0.002000,0.000000
574.000000,0.002000,-1.808641,-0.888156,-1.976643,-1.678668,0.144327,0.325016,1.034521,0.482427,1.133137,nan,0.002000,0.000000
575.000000,0.002000,0.118290,7.592014,1.131057,0.366316,-0.525506,-0.207873,-0.005052,-0.308334,-0.047838,0.000000,0.002000,0.000000
576.000000,0.002000,0.266567,0.836590,-0.347791,2.568952,-0.683527,0.353755,-0.432903,-1.668398,0.892480,nan,0.002000,0.000000
577.000000,0.002000,1.647266,-0.223295,0.293488,-0.448702,0.570809,1.544399,-2.786414,0.185261,-0.293481,0.000000,0.002000,0.000000
578.000000,0.002000,-0.304097,0.892796,5.014448,0.569824,0.662308,-0.646757,0.046776,-0.113721,-0.685422,nan,0.002000,0.000000
579.000000,0.002000,0.367462,2.060365,-4.448958,0.164455,-0.134119,-0.565874,-0.041362,-0.286323,0.632601,0.000000,0.002000,0.000000
580.000000,0.002000,0.892225,0.119976,1.508590,-1.431379,1.081917,-0.671309,-1.407710,-0.270091,-2.421329,nan,0.002000,0.000000
581.000000,0.002000,-1.429185,-1.147181,1.147701,-0.786727,1.406487,0.456180,1.483656,1.324071,-1.206402,0.000000,0.002000,0.000000
582.000000,0.002000,4.170380,4.585953,12.858762,0.082768,0.364141,0.674533,-0.028563,-0.029591,-0.087033,nan,0.002000,0.000000
583.000000,0.002000,1.045771,-0.635157,-4.513758,-1.167939,-1.354540,0.116882,-0.143506,0.062173,0.717361,0.000000,0.002000,0.000000
584.000000,0.002000,0.410672,-0.863443,0.486241,1.245989,-1.529082,-1.157151,-0.648810,2.476270,-0.527866,nan,0.002000,0.000000
585.000000,0.002000,1.030402,2.675657,-2.474222,-0.894395,-0.481180,0.696000,-0.295400,-0.760203,0.727815,0.000000,0.002000,0.000000
586.000000,0.002000,-1.065015,0.508598,0.469430,0.769950,0.398128,-1.251098,1.650505,-1.298370,-1.169976,nan,0.002000,0.000000
587.000000,0.002000,-3.156019,-2.449272,1.943380,-0.904996,-0.082753,0.026880,0.576243,0.464062,-0.377104,0.000000,0.002000,0.000000
588.000000,0.002000,1.162988,-1.130860,1.883288,0.625963,0.131210,1.112197,-0.826818,0.919608,-1.483882,nan,0.002000,0.000000
589.000000,0.002000,0.839614,-1.599835,0.982385,-0.385756,2.517657,0.670354,-0.872351,1.857140,-1.017683,0.000000,0.002000,0.000000
590.000000,0.002000,0.555046,-0.232249,1.337732,-2.165218,-1.937677,-1.984293,-1.190465,0.610573,-2.504754,nan,0.002000,0.000000
591.000000,0.002000,-0.654333,0.829351,0.109718,1.927881,0.521461,-0.682167,1.278847,-2.047674,-0.121681,0.000000,0.002000,0.000000
592.000000,0.002000,1.275146,1.286882,0.222722,0.393177,0.659112,-0.468717,-2.063202,-1.752008,-0.530995,nan,0.002000,0.000000
593.000000,0.002000,-7.718630,4.472522,6.376391,-0.062110,0.208942,0.016154,0.111521,-0.061667,-0.093334,0.000000,0.002000,0.000000
594.000000,0.002000,0.403320,1.162809,0.606622,0.548069,1.563207,-3.292610,-0.902523,-2.805670,-1.058955,nan,0.002000,0.000000
595.000000,0.002000,-2.095532,0.377478,-0.681256,0.403938,-1.438916,-0.157487,2.225717,-0.267004,0.649406,0.000000,0.002000,0.000000
596.000000,0.002000,-6.724159,5.104796,0.524545,0.251333,-0.469359,0.113084,0.204208,-0.156806,-0.024652,nan,0.002000,0.000000
597.000000,0.002000,-1.483635,3.683200,-0.112302,-0.582241,-0.906994,-0.565459,0.387582,-0.947370,0.041995,0.000000,0.002000,0.000000
598.000000,0.002000,0.334662,-1.180042,0.490573,0.237710,1.452457,1.363954,-0.774627,2.341117,-0.844315,nan,0.002000,0.000000
599.000000,0.002000,0.247806,-0.355743,-1.611520,-2.101955,-0.685564,1.895504,-0.545358,0.495718,2.764890,0.000000,0.002000,0.000000
600.000000,0.002000,0.483523,-0.669153,0.504325,-0.042382,2.996663,-0.359570,-0.984924,1.255699,-1.258111,nan,0.002000,0.000000
601.000000,0.002000,0.393861,-0.740933,-1.428720,1.733698,-1.543916,0.766408,-0.527210,1.204187,2.187335,0.000000,0.002000,0.000000
602.000000,0.002000,-0.592828,1.563110,-1.757681,0.878518,-0.459260,0.067725,0.785023,0.113869,2.889500,nan,0.002000,0.000000
603.000000,0.002000,-2.778388,-0.490351,-0.929753,1.189124,1.490531,1.488196,1.469187,0.274165,0.467119,0.000000,0.002000,0.000000
604.000000,0.002000,-1.434476,-1.127333,-0.197428,-0.755839,0.527304,-0.154403,1.978330,1.652723,0.004408,nan,0.002000,0.000000
605.000000,0.002000,1.470576,-0.537640,-0.575687,-1.615393,0.122934,-0.418734,-2.389854,1.011438,1.008428,0.000000,0.002000,0.000000
606.000000,0.002000,8.447949,1.768226,-4.334403,-0.092808,0.446586,-0.183490,-0.175707,-0.035775,0.091049,nan,0.002000,0.000000
607.000000,0.002000,-0.944026,-0.927273,0.809787,-1.795483,-0.815805,-1.440104,1.476204,1.687752,-1.355468,0.000000,0.002000,0.000000
608.000000,0.002000,0.264711,-1.315996,-0.554011,-0.233633,-0.515802,-1.327392,-0.215417,2.413388,0.714069,nan,0.002000,0.000000
609.000000,0.002000,1.869881,0.821982,1.385844,-2.076451,-1.363843,-1.150048,-1.574662,-0.603277,-1.380009,0.000000,0.002000,0.000000
610.000000,0.002000,1.114610,0.389904,0.360543,-0.924812,-1.430651,-0.593710,-2.050552,-0.240727,-1.018205,nan,0.002000,0.000000
611.000000,0.002000,-0.135129,0.984684,-0.317999,0.338913,-0.412522,1.936229,0.181376,-2.222828,0.679623,0.000000,0.002000,0.000000
612.000000,0.002000,1.129861,-0.419258,0.320885,-0.539337,0.054211,-1.079048,-2.237192,0.853810,-0.726751,nan,0.002000,0.000000
613.000000,0.002000,0.265020,-0.279102,0.863879,-0.534888,-1.150828,2.089134,-0.602222,0.518073,-2.149880,0.000000,0.002000,0.000000
614.000000,0.002000,-1.151488,0.100274,-0.193536,1.193680,0.286142,2.006472,2.131968,-0.111281,0.234634,nan,0.002000,0.000000
615.000000,0.002000,-0.121179,-0.958463,-0.115209,-1.716481,-0.977371,-2.079640,0.291495,2.168349,-0.133179,0.000000,0.002000,0.000000
616.000000,0.002000,1.071493,0.110271,-0.376959,0.516950,0.243338,2.320255,-3.176404,0.356495,0.857452,nan,0.002000,0.000000
617.000000,0.002000,0.426105,0.262083,0.288623,1.713230,-0.728614,2.208073,-1.417439,-0.343932,-0.649529,0.000000,0.002000,0.000000
618.000000,0.002000,0.278708,0.469268,0.496674,-0.911452,1.368733,-0.375970,-0.483245,-1.105867,-1.119576,nan,0.002000,0.000000
619.000000,0.002000,1.259586,1.208656,-4.555309,-0.227125,-0.379549,1.418805,-0.184386,-0.143996,0.652416,0.000000,0.002000,0.000000
620.000000,0.002000,0.214107,-1.942779,-0.812798,0.632446,-0.209466,0.451711,-0.427983,2.145484,0.910923,nan,0.002000,0.000000
621.000000,0.002000,-0.920972,1.392538,-1.876866,-0.749214,-0.679248,-0.562567,0.750073,-1.009515,1.594207,0.000000,0.002000,0.000000
622.000000,0.002000,-0.438937,-0.612213,1.831323,-1.916179,0.617531,0.623467,0.469027,0.662204,-2.374401,nan,0.002000,0.000000
623.000000,0.002000,-0.019496,-0.125291,0.195326,1.423948,-1.169219,-0.074787,0.267562,0.716109,-0.440138,0.000000,0.002000,0.000000
624.000000,0.002000,1.453857,-0.300930,0.021976,0.170510,1.718092,0.016314,-2.844712,0.372151,-0.138152,nan,0.002000,0.000000
625.000000,0.002000,1.659773,7.801250,3.728870,-0.149830,-0.335191,0.026359,-0.045637,-0.212096,-0.103902,0.000000,0.002000,0.000000
626.000000,0.002000,-0.060311,1.581144,-1.651662,-1.244900,-0.703247,-0.191319,-0.026626,-1.526418,1.526200,nan,0.002000,0.000000
627.000000,0.002000,-0.317381,-1.048885,0.817124,-1.430658,-1.458249,-0.378307,0.823617,2.002601,-1.179593,0.000000,0.002000,0.000000
628.000000,0.002000,1.145307,-1.570435,0.119487,-0.663776,0.358524,1.698878,-1.362279,2.072167,0.075510,nan,0.002000,0.000000
629.000000,0.002000,0.345416,-0.383484,2.017545,1.973736,-0.542631,-0.772076,-0.534317,0.638849,-2.353174,0.000000,0.002000,0.000000
630.000000,0.002000,-0.557202,-0.054214,2.754143,0.770745,0.049513,0.579311,0.365993,0.042411,-1.643379,nan,0.002000,0.000000
631.000000,0.002000,-4.397012,-1.792370,-1.410704,0.258952,-0.444636,0.070633,0.645245,0.231335,0.268215,0.000000,0.002000,0.000000
632.000000,0.002000,1.776066,0.677154,-1.227612,0.763069,-0.545976,-0.489261,-1.885029,-0.601040,1.226715,nan,0.002000,0.000000
633.000000,0.002000,4.444756,3.673435,-6.515401,0.186261,-0.420526,0.263998,-0.124699,-0.101349,0.184578,0.000000,0.002000,0.000000
634.000000,0.002000,0.695471,-0.400552,0.771884,2.238365,0.844027,-1.489168,-1.488439,0.713214,-1.996879,nan,0.002000,0.000000
635.000000,0.002000,-0.184720,-0.340787,-0.213970,-1.128176,0.264229,-2.553220,0.447901,1.466404,0.540188,0.000000,0.002000,0.000000
636.000000,0.002000,0.088384,1.467294,-0.514417,-0.221103,-0.769664,0.753947,0.234873,-3.284595,0.524645,nan,0.002000,0.000000
637.000000,0.002000,-2.866695,-3.251072,0.021452,-0.143249,-0.265369,-0.452194,0.545055,0.650774,-0.028025,0.000000,0.002000,0.000000
638.000000,0.002000,-2.967293,-0.290782,-1.486667,-1.929649,-0.321587,-1.297587,1.180519,0.136599,0.617699,nan,0.002000,0.000000
639.000000,0.002000,3.008115,0.020280,0.823480,-0.146832,0.282679,0.893841,-1.397366,0.035118,-0.384369,0.000000,0.002000,0.000000
640.000000,0.002000,2.108937,0.679711,1.186050,0.368603,0.332108,0.521892,-1.693230,-0.790139,-0.872401,nan,0.002000,0.000000
641.000000,0.002000,0.102443,-0.703018,-1.054556,1.613628,-2.037268,-0.079475,-0.274537,1.597121,2.355136,0.000000,0.002000,0.000000
642.000000,0.002000,0.180511,0.731073,0.608867,-0.416050,-0.975017,-2.036431,-0.200655,-1.687814,-1.090509,nan,0.002000,0.000000
643.000000,0.002000,0.738909,-3.144023,-1.710012,-1.098007,-1.074775,-0.537732,-0.218779,0.963747,0.496243,0.000000,0.002000,0.000000
644.000000,0.002000,1.206945,2.324149,-1.590625,-0.522309,0.859057,0.500933,-0.581267,-1.146423,0.869320,nan,0.002000,0.000000
645.000000,0.002000,-0.423379,-1.207819,0.009854,-0.821993,0.044872,1.036797,0.621954,2.579603,-0.211582,0.000000,0.002000,0.000000
646.000000,0.002000,0.410939,-0.519964,-1.228780,0.360398,-1.677919,-3.096110,-0.557375,1.505654,2.944614,nan,0.002000,0.000000
647.000000,0.002000,-1.241426,1.246535,-2.272019,1.264270,-1.473785,0.464950,0.709642,-0.718245,1.351627,0.000000,0.002000,0.000000
648.000000,0.002000,-0.395865,-2.516912,0.803208,-0.932363,0.660524,-0.007415,0.273772,1.647483,-0.521021,nan,0.002000,0.000000
649.000000,0.002000,0.156552,1.284097,0.452973,0.069858,0.608235,0.666002,1.281476,-3.693043,-1.282722,0.000000,0.002000,0.000000
650.000000,0.002000,-0.879303,-7.676176,-0.217266,0.673848,0.210541,-0.256304,0.026765,0.293105,0.009385,nan,0.002000,0.000000
651.000000,0.002000,-9.055591,5.193104,4.767688,-0.407973,0.103048,-0.187928,0.117254,-0.063780,-0.061517,0.000000,0.002000,0.000000
652.000000,0.002000,-1.212518,-1.161294,-0.045280,0.145655,-1.050599,-1.597278,1.692243,1.955690,0.123641,nan,0.002000,0.000000
653.000000,0.002000,-3.911275,8.852855,3.640684,0.023232,-0.033817,0.247392,0.067635,-0.150827,-0.062961,0.000000,0.002000,0.000000
654.000000,0.002000,0.809272,-0.736585,-0.508499,-1.778013,0.404970,-2.250955,-1.801866,1.771849,1.169828,nan,0.002000,0.000000
655.000000,0.002000,2.209060,-2.806316,-0.739396,1.086372,0.589859,0.638498,-0.641657,0.845502,0.231802,0.000000,0.002000,0.000000
656.000000,0.002000,-0.113537,0.559390,-2.649112,0.706521,-0.029234,0.679923,0.139596,-0.374760,1.736036,nan,0.002000,0.000000
657.000000,0.002000,-1.122797,0.689023,-1.199579,1.065038,-0.174269,-1.208068,1.656572,-0.821739,1.853993,0.000000,0.002000,0.000000
658.000000,0.002000,-0.575494,0.222608,-0.177524,2.008509,0.095860,-0.292200,0.685892,-0.553037,1.093357,nan,0.002000,0.000000
659.000000,0.002000,1.296554,2.072797,1.939234,1.048434,1.110763,0.115402,-0.633310,-0.929737,-0.946530,0.000000,0.002000,0.000000
660.000000,0.002000,-1.153829,-0.319071,0.262619,-1.021590,1.364826,1.757272,1.838163,0.741741,-0.737249,nan,0.002000,0.000000
661.000000,0.002000,2.298741,-0.712677,0.204106,0.858677,-1.188042,-0.338836,-2.022139,0.810172,-0.166121,0.000000,0.002000,0.000000
662.000000,0.002000,2.239785,0.755696,3.473489,-0.517152,0.330770,1.046946,-0.518058,-0.138050,-0.757239,nan,0.002000,0.000000
663.000000,0.002000,-1.110236,-0.127883,0.158850,-2.084599,-0.161394,2.249314,2.539394,0.583316,-0.300783,0.000000,0.002000,0.000000
664.000000,0.002000,-1.191810,-0.142637,1.080833,-0.065957,-1.262464,0.126160,2.092728,0.318507,-1.729770,nan,0.002000,0.000000
665.000000,0.002000,1.077920,-1.372724,0.167003,-1.397580,-0.759630,-0.403953,-1.438857,1.881705,-0.098444,0.000000,0.002000,0.000000
666.000000,0.002000,-0.096523,-1.293707,-0.701609,-0.601821,0.807770,2.242111,0.083993,2.582520,1.014861,nan,0.002000,0.000000
667.000000,0.002000,-0.064605,-0.651090,0.540317,-0.992411,-2.463140,0.382050,0.358375,1.899837,-1.061532,0.000000,0.002000,0.000000
668.000000,0.002000,-0.849410,0.510762,0.078841,1.345217,-2.026201,-1.828843,1.796420,-0.848349,-0.444429,nan,0.002000,0.000000
669.000000,0.002000,2.110903,0.598105,1.119642,0.825911,-0.748425,-0.840778,-1.819580,-0.305677,-0.739496,0.000000,0.002000,0.000000
670.000000,0.002000,0.500523,-0.598440,-0.529471,-1.122698,-1.396700,1.389973,-1.822955,1.449966,1.694926,nan,0.002000,0.000000
671.000000,0.002000,0.209295,0.907105,0.625574,-0.709767,2.575689,-0.767241,-0.506446,-2.009990,-1.413018,0.000000,0.002000,0.000000
672.000000,0.002000,-1.164713,-0.539098,0.286653,-1.118875,-0.153564,-0.194635,2.212147,1.459763,-0.830255,nan,0.002000,0.000000
673.000000,0.002000,-2.475403,2.773705,2.791455,-0.135690,1.023011,-1.548017,0.415529,-0.442500,-0.468339,0.000000,0.002000,0.000000
674.000000,0.002000,2.988408,5.463604,6.023752,0.046521,-0.449508,0.000014,-0.086045,-0.152746,-0.175072,nan,0.002000,0.000000
675.000000,0.002000,-0.308910,-3.985297,-0.000129,0.695105,-1.052207,0.357463,0.090130,0.937379,0.002652,0.000000,0.002000,0.000000
676.000000,0.002000,0.168966,0.152743,-0.361330,2.345847,0.922604,0.258744,-0.430359,-0.388822,1.347935,nan,0.002000,0.000000
677.000000,0.002000,0.187903,-0.300950,2.052702,-0.740008,-0.278771,-0.572313,-0.061135,0.569020,-2.407633,0.000000,0.002000,0.000000
678.000000,0.002000,-0.586795,1.173253,-0.550154,-0.115166,-1.333826,-0.762615,1.145767,-2.337189,1.024459,nan,0.002000,0.000000
679.000000,0.002000,-5.238577,3.374662,3.346667,0.750744,-0.057210,-0.376437,0.270308,-0.169328,-0.168069,0.000000,0.002000,0.000000
680.000000,0.002000,-4.671677,-6.986486,2.183578,0.266866,0.195459,0.118631,0.129819,0.194975,-0.061424,nan,0.002000,0.000000
681.000000,0.002000,-0.247056,0.621849,-0.516697,1.492976,2.493398,-1.599802,0.923825,-1.603740,1.320402,0.000000,0.002000,0.000000
682.000000,0.002000,-0.035273,0.009759,-0.473691,-1.327722,2.013597,0.366068,-0.133479,-0.286769,1.071330,nan,0.002000,0.000000
683.000000,0.002000,-0.525504,-0.412138,0.467716,1.245047,2.281950,-2.873085,1.207178,1.265086,-1.377447,0.000000,0.002000,0.000000
684.000000,0.002000,2.731302,-4.330029,0.744983,-0.088276,0.139160,-0.078200,-0.331583,0.530729,-0.083382,nan,0.002000,0.000000
685.000000,0.002000,-0.912000,-0.754093,-0.118356,0.857992,-2.184653,-0.574302,2.364789,1.802708,-0.065229,0.000000,0.002000,0.000000
686.000000,0.002000,-0.427651,1.039356,-0.472717,0.281768,-0.469739,2.278295,0.835243,-2.506281,1.009594,nan,0.002000,0.000000
687.000000,0.002000,-0.976100,-10.317397,-0.916630,0.018116,-0.031192,0.353559,0.013956,0.168510,0.013365,0.000000,0.002000,0.000000
688.000000,0.002000,0.487182,1.058726,0.258624,-0.146018,-1.561849,2.521334,-0.605915,-2.201736,-0.668270,nan,0.002000,0.000000
689.000000,0.002000,-0.670859,6.198991,2.936222,-0.259225,-0.687552,-0.520281,0.038112,-0.340757,-0.166391,0.000000,0.002000,0.000000
690.000000,0.002000,0.136294,-3.188998,-7.973482,0.252858,0.071511,0.354713,-0.010220,0.093099,0.223522,nan,0.002000,0.000000
691.000000,0.002000,-5.114895,-4.585150,1.370251,0.734993,0.429795,-0.000782,0.259646,0.228383,-0.075643,0.000000,0.002000,0.000000
692.000000,0.002000,0.478072,-0.896382,0.266776,-0.558770,0.688603,-1.637237,-1.068093,2.198709,-0.395150,nan,0.002000,0.000000
693.000000,0.002000,-0.108618,0.195827,1.697887,1.045762,1.461277,-0.967825,0.300985,-0.180059,-2.594637,0.000000,0.002000,0.000000
694.000000,0.002000,-2.196212,-0.304112,-1.267731,-0.166578,1.001279,-0.574424,1.692190,0.255313,1.052149,nan,0.002000,0.000000
695.000000,0.002000,0.158417,2.236460,-0.115505,-1.726198,-1.657877,0.426954,-0.175954,-2.265926,0.154295,0.000000,0.002000,0.000000
696.000000,0.002000,9.323206,0.696258,-3.291731,-0.047761,-0.092589,0.120144,-0.180925,-0.012663,0.063896,nan,0.002000,0.000000
697.000000,0.002000,2.651937,4.144526,0.864837,-0.158712,-1.349752,0.241609,-0.384926,-0.587471,-0.128665,0.000000,0.002000,0.000000
698.000000,0.002000,0.029966,-0.681567,0.603839,0.211721,0.268385,-1.463413,-0.022953,1.901146,-1.461876,nan,0.002000,0.000000
699.000000,0.002000,0.332790,1.958239,-0.299305,0.895136,1.361501,-0.359270,-0.368449,-2.383553,0.476942,0.000000,0.002000,0.000000
700.000000,0.002000,1.204881,-0.491583,-1.404824,-1.718644,-1.002752,-0.890222,-1.465415,0.864823,1.876104,nan,0.002000,0.000000
701.000000,0.002000,-0.516893,1.085267,0.073878,0.337905,0.928703,1.606078,0.624822,-1.783485,-0.126043,0.000000,0.002000,0.000000
702.000000,0.002000,2.537530,-2.216767,-1.627452,0.135866,-0.819267,-1.539104,-0.709883,0.638364,0.444183,nan,0.002000,0.000000
703.000000,0.002000,-1.893975,0.816584,-0.053937,-0.828008,1.462849,-1.168824,2.591366,-0.804049,-0.028106,0.000000,0.002000,0.000000
704.000000,0.002000,4.905985,1.354180,-1.788761,-1.123962,0.192944,0.777073,-0.543552,-0.146420,0.196158,nan,0.002000,0.000000
705.000000,0.002000,4.165803,-0.814273,18.377020,0.363460,-0.173293,1.440755,-0.012288,0.002630,-0.054174,0.000000,0.002000,0.000000
706.000000,0.002000,1.970560,-0.023261,1.763154,2.478057,0.066246,0.757859,-1.390764,0.081412,-1.296886,nan,0.002000,0.000000
707.000000,0.002000,-1.379208,-0.687049,-3.311883,0.373040,-0.570814,-1.429865,0.414895,0.211092,1.016627,0.000000,0.002000,0.000000
708.000000,0.002000,0.459787,0.235894,1.325367,0.598543,1.271594,-2.112480,-1.201679,1.673117,-3.977582,nan,0.002000,0.000000
709.000000,0.002000,-0.323232,-1.480814,-0.952914,0.764321,0.028407,0.551006,2.226036,2.225911,1.648501,0.000000,0.002000,0.000000
710.000000,0.002000,0.155839,-0.509432,0.598342,-0.158503,-2.307623,-1.207333,-0.283862,1.183375,-1.740325,nan,0.002000,0.000000
711.000000,0.002000,-2.433403,-0.531276,3.326798,1.807789,-0.257211,-0.052344,0.545466,0.154566,-0.726896,0.000000,0.002000,0.000000
712.000000,0.002000,1.019530,-0.737693,0.190755,0.200366,0.213308,-0.369997,-1.854291,1.636598,0.075065,nan,0.002000,0.000000
713.000000,0.002000,0.112720,1.148366,-0.893082,2.541493,1.739539,-0.922148,-0.174638,-1.898655,1.732350,0.000000,0.002000,0.000000
714.000000,0.002000,0.335940,1.835083,0.583965,-0.816745,-1.372504,0.721333,-0.392733,-2.439102,-0.757830,nan,0.002000,0.000000
715.000000,0.002000,-4.866954,-8.623626,10.880873,-0.398383,-0.616543,0.470482,0.029783,0.053073,-0.066460,0.000000,0.002000,0.000000
716.000000,0.002000,0.484993,2.972543,1.691892,0.880934,1.733180,0.620165,-0.189557,-1.091531,-0.619128,nan,0.002000,0.000000
717.000000,0.002000,2.974679,2.633512,-0.562378,-0.687954,-0.116308,0.534797,-0.743264,-0.621571,0.130943,0.000000,0.002000,0.000000
718.000000,0.002000,1.092578,-0.490884,1.475806,-2.231147,-0.884096,-1.930752,-1.392552,0.948846,-2.018102,nan,0.002000,0.000000
719.000000,0.002000,-0.301203,3.399673,2.637247,-0.929039,-0.136850,0.070666,0.079371,-0.704858,-0.563322,0.000000,0.002000,0.000000
720.000000,0.002000,2.169158,0.260025,-1.577855,-2.399029,-0.642389,0.671257,-1.436374,-0.111447,1.032855,nan,0.002000,0.000000
721.000000,0.002000,0.249420,1.717903,0.118586,0.745355,-0.790161,0.541056,-0.369694,-3.204450,-0.543257,0.000000,0.002000,0.000000
722.000000,0.002000,-0.266449,0.189231,0.265425,-2.787602,0.781143,-1.367117,0.638454,-0.476543,-1.689773,nan,0.002000,0.000000
723.000000,0.002000,0.439971,-0.792100,-0.031946,1.504108,1.856872,0.537362,-1.246469,1.917893,0.311037,0.000000,0.002000,0.000000
724.000000,0.002000,8.485959,-0.397210,-3.754698,0.139407,0.073347,0.435297,-0.197304,0.009918,0.088812,nan,0.002000,0.000000
725.000000,0.002000,-0.022630,-0.586805,1.042433,0.453999,2.220273,0.200813,-0.027411,1.607781,-2.349828,0.000000,0.002000,0.000000
726.000000,0.002000,0.723841,2.237250,3.227689,-0.486688,-0.596709,-0.215635,-0.195636,-0.549577,-0.833150,nan,0.002000,0.000000
727.000000,0.002000,0.655585,-0.424537,-0.575802,0.121128,2.075136,-2.760243,-1.797120,1.271591,1.622090,0.000000,0.002000,0.000000
728.000000,0.002000,0.476626,-0.524776,-0.991268,-1.526539,-2.136493,-0.485719,-1.270239,1.550158,2.099325,nan,0.002000,0.000000
729.000000,0.002000,-1.310436,1.603676,-0.438168,-1.072851,-1.060346,0.030941,1.423569,-1.807216,0.502965,0.000000,0.002000,0.000000
730.000000,0.002000,-1.805939,1.178860,0.082623,-1.044006,-1.398851,0.174484,1.969731,-1.184608,0.014405,nan,0.002000,0.000000
731.000000,0.002000,-0.911171,0.402691,0.509968,-2.523892,-0.719326,-0.249624,1.847746,-0.986463,-1.315936,0.000000,0.002000,0.000000
732.000000,0.002000,-1.644203,0.266729,0.587113,-0.608297,-2.046963,0.650587,2.405021,-0.294988,-1.333948,nan,0.002000,0.000000
733.000000,0.002000,0.394257,4.599552,1.055615,-0.647161,-0.952747,-1.142443,-0.065363,-0.764784,-0.186541,0.000000,0.002000,0.000000
734.000000,0.002000,-0.059896,1.224706,0.351180,1.798589,-0.773823,0.773964,0.194914,-2.435776,-0.714638,nan,0.002000,0.000000
735.000000,0.002000,1.330929,-0.490405,-0.532392,-2.060998,0.219436,-1.465242,-2.204180,0.128007,1.137247,0.000000,0.002000,0.000000
736.000000,0.002000,-1.247124,0.407766,0.518183,-0.868509,-0.784502,1.341799,2.901468,-0.503036,-1.557905,nan,0.002000,0.000000
737.000000,0.002000,-0.521903,-0.426414,1.207068,-0.476404,-0.387719,0.898021,1.092160,0.893464,-2.002324,0.000000,0.002000,0.000000
738.000000,0.002000,3.811148,0.339884,-2.354232,0.608135,0.310233,-0.341709,-0.677811,-0.006436,0.419855,nan,0.002000,0.000000
739.000000,0.002000,-3.391660,-2.750017,-1.944257,0.495575,0.055082,1.073235,0.520026,0.463179,0.317181,0.000000,0.002000,0.000000
740.000000,0.002000,0.247043,-0.785232,0.424982,0.015070,-1.480312,-0.157530,-0.357399,2.041690,-0.856835,nan,0.002000,0.000000
741.000000,0.002000,0.957392,-0.324905,0.865709,-1.712671,0.794253,1.055282,-1.443840,0.779432,-2.014080,0.000000,0.002000,0.000000
742.000000,0.002000,0.161979,0.652851,0.006141,0.529734,0.105218,2.195295,0.005739,-1.861015,0.580656,nan,0.002000,0.000000
743.000000,0.002000,0.239604,0.595444,-0.840358,-2.262696,1.156810,1.705044,-0.642302,-1.204239,1.782293,0.000000,0.002000,0.000000
744.000000,0.002000,-0.114436,-0.351466,-0.750280,1.603149,-1.835430,-1.014363,0.202041,1.801157,1.593298,nan,0.002000,0.000000
745.000000,0.002000,3.051309,1.674937,-5.318611,-1.145682,0.374549,0.144030,-0.206715,-0.112468,0.365763,0.000000,0.002000,0.000000
746.000000,0.002000,3.862440,2.205201,0.067267,0.424102,0.295845,-0.156257,-0.712019,-0.415041,0.007397,0.000000,0.002000,0.000000
747.000000,0.002000,-0.832596,0.341330,-2.059183,0.158232,1.570130,2.333046,0.826409,-0.309301,1.964124,0.000000,0.002000,0.000000
748.000000,0.002000,0.483014,-0.054785,0.182251,-1.559816,3.744437,0.376292,-1.047832,0.679965,-0.600537,0.000000,0.002000,0.000000
749.000000,0.002000,8.208926,2.761514,3.614291,-0.214118,-0.121338,-0.028251,-0.185140,-0.060049,-0.084055,0.000000,0.002000,0.000000
750.000000,0.002000,0.443003,-0.249667,-0.823572,0.654621,0.682819,-0.136705,-0.640313,0.297144,2.542837,0.000000,0.002000,0.000000
751.000000,0.002000,-1.040921,-0.611143,-0.490153,0.564910,2.466107,-0.713640,2.220977,1.422160,1.133959,0.000000,0.002000,0.000000
752.000000,0.002000,0.575585,-2.974863,-1.460052,1.065529,0.881986,1.318697,-0.212806,1.103330,0.530165,0.000000,0.002000,0.000000
753.000000,0.002000,-1.062722,-1.594987,1.735805,-0.421522,-0.574242,0.598426,0.754231,1.182703,-1.227998,0.000000,0.002000,0.000000
754.000000,0.002000,1.823047,1.743614,-0.782095,0.949260,0.878569,-0.415880,-1.409637,-1.248841,0.605233,0.000000,0.002000,0.000000
755.000000,0.002000,0.336740,1.035639,2.249259,-1.488780,0.830089,-1.225616,-0.367527,-0.836049,-1.943756,0.000000,0.002000,0.000000
756.000000,0.002000,-0.376243,3.722869,-0.071727,-0.308985,1.401832,0.582635,0.172091,-1.072242,0.075006,0.000000,0.002000,0.000000
757.000000,0.002000,3.508223,-0.043189,-0.639291,0.461238,0.107398,-0.106600,-1.156258,0.035065,0.221123,0.000000,0.002000,0.000000
758.000000,0.002000,-0.240043,0.496865,-0.268290,0.208335,-0.032310,1.522871,0.228250,-1.137668,0.838494,0.000000,0.002000,0.000000
759.000000,0.002000,-0.263574,1.757305,0.545311,-1.523719,0.291291,0.724648,0.285523,-2.409669,-0.726383,0.000000,0.002000,0.000000
760.000000,0.002000,-1.456693,0.788609,0.465116,1.439923,2.009837,-0.279654,3.211724,-1.520931,-1.388079,0.000000,0.002000,0.000000
761.000000,0.002000,-0.813556,0.259774,-2.178930,-1.533501,0.074366,-0.148191,0.689502,-0.141471,2.015119,0.000000,0.002000,0.000000
762.000000,0.002000,-1.495154,2.028998,-0.772520,-0.291787,1.916442,0.226831,1.168008,-1.541370,0.605444,0.000000,0.002000,0.000000
763.000000,0.002000,-1.031473,-1.784200,-0.608894,-1.428200,-0.299625,-0.758738,0.870299,1.909130,0.626329,0.000000,0.002000,0.000000
764.000000,0.002000,1.245423,-0.236197,-0.424389,1.111978,-0.833562,0.359134,-2.441346,0.695594,0.650896,0.000000,0.002000,0.000000
765.000000,0.002000,0.685121,0.024794,2.421729,-2.310289,-0.828930,-0.955971,-0.559734,0.011838,-1.965984,0.000000,0.002000,0.000000
766.000000,0.002000,0.347418,1.611089,-0.148538,0.455050,-0.827684,1.760723,-0.635660,-2.633174,0.386531,0.000000,0.002000,0.000000
767.000000,0.002000,1.650556,1.427408,0.547149,-1.473153,0.955308,1.017762,-1.604849,-1.386841,-0.534753,0.000000,0.002000,0.000000
768.000000,0.002000,-0.797716,0.929765,-0.204812,-0.481539,-2.203275,-0.373518,2.369946,-3.696175,0.902924,0.000000,0.002000,0.000000
769.000000,0.002000,0.534303,-0.265559,-0.415020,0.861347,-0.120150,0.350618,-2.009648,1.019836,-0.120087,0.000000,0.002000,0.000000
770.000000,0.002000,0.435887,1.771850,-0.862011,-1.428134,0.629973,-0.747835,-0.346025,-2.313747,0.866565,0.000000,0.002000,0.000000
771.000000,0.002000,-0.496614,6.634142,0.827083,0.186602,-0.848676,-0.206822,0.029006,-0.401030,-0.054008,0.000000,0.002000,0.000000
772.000000,0.002000,0.024752,1.159234,-3.079142,0.182841,0.614595,1.534712,-0.033331,-0.428763,1.279611,0.000000,0.002000,0.000000
773.000000,0.002000,-0.248185,3.777556,-1.985710,-0.312445,0.159198,0.767450,0.059612,-0.790104,0.417199,0.000000,0.002000,0.000000
774.000000,0.002000,0.943335,0.338073,-0.451964,2.098026,-0.545693,1.141978,-2.322224,-0.966671,1.873972,0.000000,0.002000,0.000000
775.000000,0.002000,7.706446,-5.067684,3.101506,-0.203297,0.049075,0.130515,-0.156026,0.108292,-0.062925,0.000000,0.002000,0.000000
776.000000,0.002000,4.697272,-7.460641,-4.199597,0.190438,0.224642,-0.277591,-0.091678,0.148026,0.080430,0.000000,0.002000,0.000000
777.000000,0.002000,1.454140,0.083296,1.110154,-0.123028,0.742703,-1.931402,-2.027987,-0.074755,-1.811929,0.000000,0.002000,0.000000
778.000000,0.002000,0.334776,0.263654,-1.659563,1.075762,1.023605,-0.155366,-0.353684,-0.375748,2.711490,0.000000,0.002000,0.000000
779.000000,0.002000,-1.790324,-1.308489,-0.463912,1.284360,-0.135414,-0.896139,1.812119,1.372816,0.496246,0.000000,0.002000,0.000000
780.000000,0.002000,1.017495,-3.743797,1.894760,0.451447,0.297964,-0.003479,-0.188328,0.744890,-0.359629,0.000000,0.002000,0.000000
781.000000,0.002000,0.652752,0.872408,0.348364,0.226391,-0.441658,-3.343191,-2.145985,-1.631804,-0.179358,0.000000,0.002000,0.000000
782.000000,0.002000,1.698817,1.812469,-0.758819,0.993342,-0.627754,0.725790,-1.226836,-1.347859,0.604943,0.000000,0.002000,0.000000
783.000000,0.002000,1.332142,-1.572282,-5.055925,-0.034421,0.520548,1.238567,-0.136750,0.171340,0.532078,0.000000,0.002000,0.000000
784.000000,0.002000,1.219870,-0.059388,0.008426,-1.155464,1.021249,-2.011770,-2.319768,0.147248,0.188567,0.000000,0.002000,0.000000
785.000000,0.002000,2.024090,-2.755047,0.328049,-0.785350,1.225340,-1.369790,-0.711348,0.975691,-0.094087,0.000000,0.002000,0.000000
786.000000,0.002000,-2.542490,2.189968,-2.843567,-0.731553,0.235656,0.361646,0.510476,-0.415597,0.553901,0.000000,0.002000,0.000000
787.000000,0.002000,-0.449632,7.821720,-1.883079,0.005919,-0.374144,-0.358272,0.009736,-0.276129,0.068654,0.000000,0.002000,0.000000
788.000000,0.002000,-1.361394,0.431609,-1.276797,-0.187760,-1.874814,-0.168997,1.733416,-0.415500,2.006806,0.000000,0.002000,0.000000
789.000000,0.002000,-0.391133,-0.881152,1.509885,0.300507,0.086563,0.447126,0.538676,1.501659,-2.171262,0.000000,0.002000,0.000000
790.000000,0.002000,0.200759,1.375105,-0.623604,0.228818,0.790623,-2.588499,-0.284777,-2.271941,1.141151,0.000000,0.002000,0.000000
791.000000,0.002000,-5.027137,4.068937,1.041273,0.844851,-0.359052,-0.407295,0.325877,-0.253102,-0.068427,0.000000,0.002000,0.000000
792.000000,0.002000,-1.249290,0.384841,-0.909464,-0.951677,-1.437672,-0.170145,2.195150,-0.512719,1.563078,0.000000,0.002000,0.000000
793.000000,0.002000,1.786468,-1.335696,0.810165,0.634953,-0.107809,0.379469,-1.617627,1.233800,-0.812430,0.000000,0.002000,0.000000
794.000000,0.002000,-1.075776,1.639100,-1.688955,-0.458943,-1.026984,0.305541,0.850141,-1.182218,1.269128,0.000000,0.002000,0.000000
795.000000,0.002000,0.407146,0.367542,-2.846040,0.759912,-0.516094,-2.290250,-0.269161,-0.118939,1.587371,0.000000,0.002000,0.000000
796.000000,0.002000,-0.750375,2.181841,2.088699,1.073984,-0.628185,-1.275400,0.315033,-1.059173,-1.024322,0.000000,0.002000,0.000000
797.000000,0.002000,-0.210824,-0.374240,1.416021,-0.289566,0.874998,0.597616,0.432020,0.767759,-2.510662,0.000000,0.002000,0.000000
798.000000,0.002000,-0.095627,1.638949,-0.537868,1.981559,0.592086,-0.592603,0.608509,-2.610313,0.734650,0.000000,0.002000,0.000000
799.000000,0.002000,1.621911,-2.116263,1.014946,-0.788746,-0.151935,-1.125705,-0.886416,1.258106,-0.576415,0.000000,0.002000,0.000000
800.000000,0.002000,-1.158673,0.662767,0.267052,0.742492,1.744711,-0.689852,2.423841,-0.938789,-0.261672,0.000000,0.002000,0.000000
801.000000,0.002000,-0.140254,-0.377598,1.559033,-0.192676,1.782995,0.166251,0.217516,0.766050,-2.796268,0.000000,0.002000,0.000000
802.000000,0.002000,-0.807995,-0.889925,-0.174148,-0.950736,-1.334860,-0.389928,1.893886,2.403317,0.224431,0.000000,0.002000,0.000000
803.000000,0.002000,1.663456,-0.601850,-0.650061,-2.701143,-0.062695,0.358998,-2.425713,0.974793,0.863260,0.000000,0.002000,0.000000
804.000000,0.002000,-0.004603,0.753559,-1.944296,-0.711694,0.537871,0.451581,0.061025,-0.839789,2.061700,0.000000,0.002000,0.000000
805.000000,0.002000,1.112629,-1.477734,0.029069,0.889121,-0.198196,1.089590,-1.413420,1.852689,0.188156,0.000000,0.002000,0.000000
806.000000,0.002000,-7.463154,-7.798879,-10.223968,-0.385443,-0.439350,-0.660804,0.044662,0.046951,0.061108,0.000000,0.002000,0.000000
807.000000,0.002000,0.969971,-0.927566,0.845565,0.876153,1.454545,-1.268902,-1.506943,1.697431,-1.539429,0.000000,0.002000,0.000000
808.000000,0.002000,0.733012,0.760946,0.983109,-0.239184,0.878364,-1.170530,-1.220035,-1.434075,-1.858124,0.000000,0.002000,0.000000
809.000000,0.002000,-1.366732,0.025943,-0.979751,-1.530642,0.886761,0.648417,2.112275,0.104228,1.875130,0.000000,0.002000,0.000000
810.000000,0.002000,-0.059317,-0.667179,-0.362188,1.840932,1.014580,0.351032,0.054327,1.880991,-0.329362,0.000000,0.002000,0.000000
811.000000,0.002000,0.012566,1.103490,-0.634019,-0.560279,0.700187,2.785466,0.221126,-2.319941,1.399326,0.000000,0.002000,0.000000
812.000000,0.002000,0.482869,0.638315,0.760389,2.368049,-0.533095,-1.409082,-1.529203,-1.401301,-1.547086,0.000000,0.002000,0.000000
813.000000,0.002000,0.763189,0.017852,0.021327,-2.981174,-0.649970,0.833398,-2.279289,-0.157949,0.025331,0.000000,0.002000,0.000000
814.000000,0.002000,0.609378,0.442327,1.873875,-0.732340,-1.059737,-1.079238,-1.053437,-0.195649,-2.683964,0.000000,0.002000,0.000000
815.000000,0.002000,0.314382,-1.901524,1.048123,0.937860,-0.960033,0.389461,-0.309091,1.926638,-1.000963,0.000000,0.002000,0.000000
816.000000,0.002000,-0.411406,1.781034,-1.230256,-1.083235,-0.101532,0.209617,0.408020,-1.865941,1.256750,0.000000,0.002000,0.000000
817.000000,0.002000,2.020546,-1.247359,1.084740,-1.460931,0.800123,-1.335888,-1.430027,0.966904,-0.810056,0.000000,0.002000,0.000000
818.000000,0.002000,0.971441,3.679732,-2.750541,0.719807,-1.355769,0.543103,-0.144892,-0.603518,0.462983,0.000000,0.002000,0.000000
819.000000,0.002000,-0.310361,-0.718715,1.436308,-1.664126,0.181153,0.946279,0.528875,1.297970,-2.319492,0.000000,0.002000,0.000000
820.000000,0.002000,-0.717967,1.412455,4.484657,0.219201,-0.127850,0.111310,0.114251,-0.219610,-0.705383,0.000000,0.002000,0.000000
821.000000,0.002000,1.135343,-3.137678,-1.805471,0.292503,1.175289,0.306080,-0.294555,0.854806,0.477668,0.000000,0.002000,0.000000
822.000000,0.002000,4.114323,-2.997079,1.940314,-0.707606,0.652316,-0.618525,-0.429280,0.322063,-0.203523,0.000000,0.002000,0.000000
823.000000,0.002000,-0.080164,0.744223,0.100462,-0.348756,-2.043205,-3.408787,0.338960,-2.039531,-0.051734,0.000000,0.002000,0.000000
824.000000,0.002000,-0.153880,1.231007,-1.638835,0.348723,-1.206216,0.660599,0.080063,-0.995763,2.071569,0.000000,0.002000,0.000000
825.000000,0.002000,4.124634,-2.839768,-5.783294,-0.858833,-0.207872,-0.377188,-0.164011,0.116521,0.228278,0.000000,0.002000,0.000000
826.000000,0.002000,-0.088216,-1.167328,-1.758260,1.109077,-0.828274,-0.507134,0.160685,1.608606,2.140991,0.000000,0.002000,0.000000
827.000000,0.002000,1.711730,0.611129,0.440624,1.424575,-0.554051,0.405194,-2.268748,-1.096901,-0.703903,0.000000,0.002000,0.000000
828.000000,0.002000,1.381632,0.302907,-1.244531,0.205722,-1.632237,0.192390,-2.003487,-0.316732,1.776864,0.000000,0.002000,0.000000
829.000000,0.002000,-2.017228,-1.461195,-2.152407,0.608330,0.520763,2.099041,0.792793,0.599669,0.868604,0.000000,0.002000,0.000000
830.000000,0.002000,0.603187,2.594770,-0.562575,-0.161722,-0.495695,-0.137302,-0.404697,-1.742276,0.373373,0.000000,0.002000,0.000000
831.000000,0.002000,-1.171630,1.604670,-0.917673,-0.327171,0.696586,1.746721,1.242453,-1.664675,1.081644,0.000000,0.002000,0.000000
832.000000,0.002000,-0.931916,1.722445,-0.565528,-0.508569,1.702927,-0.366618,1.062534,-2.245458,0.766453,0.000000,0.002000,0.000000
833.000000,0.002000,-0.101843,0.870504,-0.538198,0.603798,-1.033493,2.243764,0.063036,-1.872104,1.415131,0.000000,0.002000,0.000000
834.000000,0.002000,0.834981,-1.076252,-0.075126,-0.326668,-2.183333,0.861875,-1.699090,2.205559,0.100712,0.000000,0.002000,0.000000
835.000000,0.002000,-1.949731,-1.069886,-0.846570,-2.773269,0.273728,-0.044096,1.676537,1.006682,0.796161,0.000000,0.002000,0.000000
836.000000,0.002000,0.697957,2.601613,-1.014686,1.065731,1.967594,-0.284040,-0.435217,-1.523658,0.556929,0.000000,0.002000,0.000000
837.000000,0.002000,0.584352,-0.065149,-0.052125,-1.031433,-0.047506,2.733819,-1.292568,0.645181,0.107935,0.000000,0.002000,0.000000
838.000000,0.002000,2.412971,-0.209197,0.924155,-0.079534,-0.705290,0.986436,-1.515035,-0.305738,-0.573165,0.000000,0.002000,0.000000
839.000000,0.002000,1.794428,0.865011,0.983396,1.139646,0.234687,0.285258,-1.929941,-0.923230,-1.021627,0.000000,0.002000,0.000000
840.000000,0.002000,0.395147,-0.765817,0.712955,-0.666667,-0.871604,2.755962,-1.213548,1.666327,-1.825228,0.000000,0.002000,0.000000
841.000000,0.002000,0.622880,-0.565017,-2.426244,1.216598,0.164693,0.000192,-0.538477,0.994296,1.887544,0.000000,0.002000,0.000000
842.000000,0.002000,0.291480,-0.087145,0.382878,-1.266956,-1.227663,1.497198,-0.955104,0.610975,-0.791906,0.000000,0.002000,0.000000
843.000000,0.002000,0.987545,-0.007672,-0.272492,0.242468,0.759731,0.247748,-2.095470,0.324020,0.710005,0.000000,0.002000,0.000000
844.000000,0.002000,1.006241,0.574851,0.902415,1.069039,0.456841,1.640227,-1.870063,-0.914013,-1.832369,0.000000,0.002000,0.000000
845.000000,0.002000,-1.095920,0.679068,-0.612196,1.156988,3.160442,1.013809,2.279638,-1.031354,1.247199,0.000000,0.002000,0.000000
846.000000,0.002000,-0.353119,-0.134778,-0.450771,-0.875438,-2.236206,0.811337,0.742229,0.372246,1.216712,0.000000,0.002000,0.000000
847.000000,0.002000,-4.567887,1.933728,-0.674532,0.999114,-1.005748,0.414350,0.625957,-0.262591,0.080769,0.000000,0.002000,0.000000
848.000000,0.002000,-0.874078,1.710538,-0.817177,-0.349195,1.493753,0.332350,1.030749,-1.898972,1.039820,0.000000,0.002000,0.000000
849.000000,0.002000,1.979380,4.362554,-3.919755,0.287601,-0.635735,0.705105,-0.150592,-0.320008,0.300065,0.000000,0.002000,0.000000
850.000000,0.002000,-0.762213,-0.343440,-0.282785,2.700786,0.571921,0.583869,2.060436,0.970530,0.473896,0.000000,0.002000,0.000000
851.000000,0.002000,0.157700,-0.035299,-1.111772,-1.464577,-1.481032,-1.763963,-0.765563,0.458469,2.570715,0.000000,0.002000,0.000000
852.000000,0.002000,-0.761503,-0.670717,-0.877088,1.017120,-0.279708,-1.261545,1.488107,1.477599,1.978967,0.000000,0.002000,0.000000
853.000000,0.002000,-0.512847,-1.245138,-0.016427,-1.856540,1.323765,0.499490,0.778630,2.596115,-0.107128,0.000000,0.002000,0.000000
854.000000,0.002000,-1.407495,-0.156076,0.602816,-0.802408,-0.859880,-1.216803,2.377790,0.396499,-1.213200,0.000000,0.002000,0.000000
855.000000,0.002000,-0.234625,2.465503,1.002801,1.665238,-0.061036,0.133035,0.031420,-1.708820,-0.675024,0.000000,0.002000,0.000000
856.000000,0.002000,1.217666,-1.028356,0.038164,-0.557282,0.196831,-1.268794,-2.227146,2.102486,0.104607,0.000000,0.002000,0.000000
857.000000,0.002000,-1.470942,-0.098196,-2.029315,-0.561186,0.266688,0.392433,1.151044,0.124852,1.553067,0.000000,0.002000,0.000000
858.000000,0.002000,0.813753,0.060367,1.921941,-1.451362,-0.512375,-1.111095,-1.033888,-0.118655,-2.234733,0.000000,0.002000,0.000000
859.000000,0.002000,2.577912,-2.547328,0.839689,1.393537,-0.346336,-0.174196,-0.735569,0.742618,-0.224587,0.000000,0.002000,0.000000
860.000000,0.002000,0.105334,1.059523,0.962070,-0.585461,0.773540,-1.008619,-0.167466,-1.801114,-1.882707,0.000000,0.002000,0.000000
861.000000,0.002000,-0.637338,-3.765845,1.213758,-1.379956,0.880535,-0.820730,0.112193,0.853657,-0.285371,0.000000,0.002000,0.000000
862.000000,0.002000,-0.653419,0.445846,-0.458225,-1.782516,-1.652148,1.072877,1.650453,-1.160619,1.495771,0.000000,0.002000,0.000000
863.000000,0.002000,2.677681,1.019615,-1.186013,2.100417,-0.447325,-0.407654,-1.247193,-0.424792,0.566469,0.000000,0.002000,0.000000
864.000000,0.002000,-4.265469,-14.078102,0.968481,-0.085295,-0.821723,-0.127666,0.026647,0.086116,-0.007722,0.000000,0.002000,0.000000
865.000000,0.002000,0.339629,-0.953984,0.114931,-1.304143,0.761281,3.554388,-1.116517,2.137200,-0.521225,0.000000,0.002000,0.000000
866.000000,0.002000,1.580285,1.309833,-1.627717,0.468183,1.108281,-0.110783,-1.197365,-0.877774,1.222898,0.000000,0.002000,0.000000
867.000000,0.002000,-3.768393,-2.425401,-0.545989,-0.959586,-0.532699,-0.366442,0.704248,0.452561,0.062561,0.000000,0.002000,0.000000
868.000000,0.002000,-1.176168,2.355437,-0.171491,0.139232,-0.138269,1.541504,0.874672,-1.660181,0.134687,0.000000,0.002000,0.000000
869.000000,0.002000,-0.695174,1.081585,-1.475314,-0.430278,-0.294648,-1.706640,0.889576,-1.486285,2.105135,0.000000,0.002000,0.000000
870.000000,0.002000,-0.973532,0.494030,2.142134,-0.189571,-1.464668,-0.499852,0.912203,-0.401738,-1.921590,0.000000,0.002000,0.000000
871.000000,0.002000,0.099589,-1.196970,0.950087,-0.245270,1.105303,1.679180,-1.086045,2.417804,-1.794162,0.000000,0.002000,0.000000
872.000000,0.002000,-1.726977,-4.074011,-0.276948,0.757745,1.377261,-0.147710,0.310936,0.745213,0.064055,0.000000,0.002000,0.000000
873.000000,0.002000,1.209395,5.022816,8.786588,0.012317,0.007058,-0.035640,-0.021392,-0.090861,-0.158237,0.000000,0.002000,0.000000
874.000000,0.002000,-3.705505,-5.051611,-8.094803,-0.026162,-0.029335,0.092800,0.064744,0.086221,0.141319,0.000000,0.002000,0.000000
875.000000,0.002000,-0.180406,3.961297,2.050724,0.184480,-0.341446,-0.187500,0.026923,-0.755843,-0.381885,0.000000,0.002000,0.000000
876.000000,0.002000,2.500943,-0.151272,0.577354,0.315601,-0.152804,-0.189379,-1.892425,0.174034,-0.449346,0.000000,0.002000,0.000000
877.000000,0.002000,-2.148676,-1.203937,6.750738,0.549088,0.155490,-0.522548,0.103438,0.059653,-0.326517,0.000000,0.002000,0.000000
878.000000,0.002000,3.703973,-0.059970,0.350229,-0.649583,-0.062576,-0.677159,-1.080182,0.042179,-0.096711,0.000000,0.002000,0.000000
879.000000,0.002000,0.357925,-1.058059,-0.957804,-0.197453,-0.198146,-0.177367,-0.655361,1.959310,2.029118,0.000000,0.002000,0.000000
880.000000,0.002000,0.866898,-0.109832,-0.944294,3.418856,-0.622042,-1.238571,-1.526129,0.454849,1.735433,0.000000,0.002000,0.000000
881.000000,0.002000,-0.713487,-0.499579,-0.162014,-1.277814,-1.715410,-0.251936,1.348994,0.813434,0.184086,0.000000,0.002000,0.000000
882.000000,0.002000,0.463375,4.154672,0.696787,-0.327275,0.883983,-0.757869,-0.109875,-0.885175,-0.311808,0.000000,0.002000,0.000000
883.000000,0.002000,-1.409618,0.806948,0.440553,1.922252,-0.969523,0.937811,2.006140,-2.654368,-0.796492,0.000000,0.002000,0.000000
884.000000,0.002000,-1.217339,-0.236761,-0.329272,1.481103,-0.181314,0.427601,2.397867,0.829147,0.477050,0.000000,0.002000,0.000000
885.000000,0.002000,-7.534938,-3.470233,-0.543470,0.433294,0.013257,-0.315916,0.239225,0.112160,0.015429,0.000000,0.002000,0.000000
886.000000,0.002000,1.479021,-1.240020,-0.065988,0.391393,-1.702020,-0.579507,-1.806901,1.603492,0.184101,0.000000,0.002000,0.000000
887.000000,0.002000,0.963609,-0.024208,0.304277,1.635720,1.850951,-1.603404,-2.063951,0.039683,-0.744944,0.000000,0.002000,0.000000
888.000000,0.002000,-5.047520,-4.975708,2.424503,0.325641,0.633661,-0.024602,0.211690,0.213628,-0.107492,0.000000,0.002000,0.000000
889.000000,0.002000,-0.495656,0.273648,0.741511,0.442207,0.975905,-1.465153,1.336364,-0.234057,-1.900886,0.000000,0.002000,0.000000
890.000000,0.002000,12.129630,1.836542,2.488242,0.437500,0.193669,0.355862,-0.120907,-0.016162,-0.025989,0.000000,0.002000,0.000000
891.000000,0.002000,0.882802,0.295068,1.361745,1.953083,-1.768986,1.337850,-1.111701,-0.148987,-1.921857,0.000000,0.002000,0.000000
892.000000,0.002000,-0.890925,-1.122253,-0.599767,-0.478449,-0.476545,1.017084,1.868139,2.010402,0.928726,0.000000,0.002000,0.000000
893.000000,0.002000,1.976546,-1.291448,-1.027471,-2.145566,-0.573916,1.339389,-1.387246,0.956695,0.742769,0.000000,0.002000,0.000000
894.000000,0.002000,0.133111,-0.592923,-1.545336,0.839566,-1.545709,1.080059,-0.185041,0.970703,2.406911,0.000000,0.002000,0.000000
895.000000,0.002000,3.603350,0.533133,2.271761,0.194143,0.631756,-0.642945,-0.693167,-0.067047,-0.446787,0.000000,0.002000,0.000000
896.000000,0.002000,0.737888,-0.933943,-0.098552,-0.851126,-1.848251,-1.098487,-1.572473,2.187482,0.304552,0.000000,0.002000,0.000000
897.000000,0.002000,-0.428555,0.495972,-0.398388,0.987268,0.867247,-0.637510,0.824029,-1.462166,1.193773,0.000000,0.002000,0.000000
898.000000,0.002000,0.480817,4.605722,5.529417,0.010424,-0.728108,-0.413545,-0.024884,-0.223939,-0.265892,0.000000,0.002000,0.000000
899.000000,0.002000,-0.809524,-1.127852,-1.082340,-0.337327,0.189063,-1.341950,1.015424,1.782010,1.635705,0.000000,0.002000,0.000000
900.000000,0.002000,-0.884421,-0.658810,-0.341913,2.663418,0.615589,2.050942,2.014517,1.411601,0.797712,0.000000,0.002000,0.000000
901.000000,0.002000,0.995877,2.470177,-5.276423,-0.554519,-0.821835,0.375736,-0.080875,-0.205956,0.446878,0.000000,0.002000,0.000000
902.000000,0.002000,-1.293417,1.233025,-0.205139,0.123491,-0.187640,-0.131582,2.056567,-1.849485,0.410892,0.000000,0.002000,0.000000
903.000000,0.002000,1.905385,-0.292198,0.145696,0.475571,0.712648,-0.428081,-2.648729,0.305048,-0.016526,0.000000,0.002000,0.000000
904.000000,0.002000,-2.164781,0.991975,0.165440,-0.664832,0.337473,0.485676,1.944423,-0.778398,-0.159341,0.000000,0.002000,0.000000
905.000000,0.002000,0.491591,1.375172,1.229541,0.581554,0.688398,-1.953825,-0.502081,-2.001968,-1.782411,0.000000,0.002000,0.000000
906.000000,0.002000,1.761240,2.782962,-0.141246,0.751020,1.523377,1.197304,-0.703075,-1.169668,0.030504,0.000000,0.002000,0.000000
907.000000,0.002000,1.152974,0.084962,0.186722,-0.013040,-1.367669,2.004790,-2.471518,0.127038,-0.440256,0.000000,0.002000,0.000000
908.000000,0.002000,-1.150373,-0.309134,1.624744,-0.044014,-1.431828,1.110977,1.546056,0.174226,-1.990008,0.000000,0.002000,0.000000
909.000000,0.002000,-1.468028,-0.861900,0.755354,1.201340,-1.118962,0.249267,1.944708,1.231942,-1.164150,0.000000,0.002000,0.000000
910.000000,0.002000,0.054050,-3.849239,3.294057,-0.929708,1.021789,0.009283,-0.017101,0.498044,-0.413579,0.000000,0.002000,0.000000
911.000000,0.002000,-1.645460,0.765374,1.156397,-2.000204,1.071184,1.101174,1.963556,-0.625452,-1.268622,0.000000,0.002000,0.000000
912.000000,0.002000,6.200692,3.654762,-9.969088,0.181493,0.135183,-0.292322,-0.064319,-0.037369,0.103725,0.000000,0.002000,0.000000
913.000000,0.002000,0.193328,2.058588,-2.754099,-1.172168,0.875123,-1.219562,-0.051105,-0.711186,1.029941,0.000000,0.002000,0.000000
914.000000,0.002000,-0.755285,1.984978,-0.404016,0.916531,0.954590,-1.440699,0.578500,-2.206864,0.261115,0.000000,0.002000,0.000000
915.000000,0.002000,0.662430,1.397778,0.519249,1.334915,0.654746,-0.453299,-1.744670,-2.385694,-0.913547,0.000000,0.002000,0.000000
916.000000,0.002000,0.729144,0.537893,0.386652,-1.774003,-1.110314,0.677609,-0.589324,-1.278357,-0.376809,0.000000,0.002000,0.000000
917.000000,0.002000,-0.779227,-1.274153,0.484038,0.077789,2.363917,2.456103,1.127988,2.184919,-0.920406,0.000000,0.002000,0.000000
918.000000,0.002000,0.463307,0.172873,0.709065,-1.780553,-1.202552,0.467291,-1.574586,-0.717601,-1.707520,0.000000,0.002000,0.000000
919.000000,0.002000,0.717372,0.660331,-0.200050,0.191297,-0.176267,2.086611,-0.756157,0.054863,2.277068,0.000000,0.002000,0.000000
