# 
#                 columns are tag, mass, x, y, z, vx, vy, vz, ax, ay, az, EK, EU, E
#                 Time=8.000000
# 
1.000000,0.002000,-5.879973,4.346585,4.306867,0.239214,0.214964,0.326403,0.179072,-0.130691,-0.131662,35.231262,-73.881097,-38.649835
2.000000,0.002000,-1.516689,-2.870865,3.499166,1.500058,0.307452,0.851270,0.250659,0.450683,-0.481552,0.000000,0.000000,0.000000
3.000000,0.002000,-0.912325,2.543951,-0.696716,0.359080,0.235857,-0.139565,0.568720,-1.593212,0.433348,0.000000,0.000000,0.000000
4.000000,0.002000,0.090656,-0.493132,1.442146,0.306503,2.686501,-0.841471,-0.312090,0.947846,-2.784240,nan,0.000000,0.000000
5.000000,0.002000,0.565005,-0.084251,0.254571,-1.678388,-0.012512,1.695819,-1.637871,1.000640,-1.334840,0.000000,0.000000,0.000000
6.000000,0.002000,-0.246963,-1.102163,0.573304,1.521508,1.562812,0.930721,0.807698,2.773794,-0.968164,nan,0.000000,0.000000
7.000000,0.002000,-0.609462,-3.770226,8.665443,0.006047,-0.398480,0.280642,0.012796,0.085273,-0.192513,0.000000,0.002000,0.000000
8.000000,0.002000,0.104137,0.320484,-0.513756,0.918208,0.440019,2.892261,-0.892795,-0.859854,2.315025,0.000000,0.002000,0.000000
9.000000,0.002000,-7.424419,4.505785,1.155844,-0.195591,0.094807,0.105968,0.203551,-0.122747,-0.029153,0.000000,0.002000,0.000000
10.000000,0.002000,4.534064,0.682567,-2.103016,-0.853773,0.295211,0.853601,-0.607913,-0.008200,0.245393,0.000000,0.002000,0.000000
11.000000,0.002000,0.499799,0.461917,0.201276,0.389448,1.829304,-2.278674,-1.479617,-1.283871,-0.818915,0.000000,0.002000,0.000000
12.000000,0.002000,7.527242,5.468628,0.478931,0.042819,0.173573,0.081418,-0.170414,-0.124639,-0.009227,0.000000,0.002000,0.000000
13.000000,0.002000,-0.253100,1.060535,1.519317,-1.420915,-1.174309,0.843113,0.509938,-1.529575,-2.571086,0.000000,0.002000,0.000000
14.000000,0.002000,1.875376,0.008214,-1.429283,2.481553,0.444901,-0.765145,-1.661623,-0.034068,1.331337,nan,0.002000,0.000000
15.000000,0.002000,-0.036621,-3.657285,-0.860862,-0.421119,1.379101,0.016823,-0.022248,0.966856,0.211135,0.000000,0.002000,0.000000
16.000000,0.002000,0.837092,-4.533598,-3.430645,-0.247075,0.183432,0.876228,-0.067968,0.401307,0.298726,nan,0.002000,0.000000
17.000000,0.002000,-0.874259,1.647384,0.806484,0.980630,-0.723769,0.301956,1.087919,-2.178558,-0.821533,0.000000,0.002000,0.000000
18.000000,0.002000,-0.528527,-0.735567,-0.152541,-1.774652,-0.791066,2.465053,1.013832,2.512339,0.238626,nan,0.002000,0.000000
19.000000,0.002000,0.114493,0.053771,0.514176,0.069676,-0.852299,-1.054955,-0.915416,0.213327,-1.742247,0.000000,0.002000,0.000000
20.000000,0.002000,0.904942,-0.445883,0.264835,0.096532,1.787093,0.873473,-3.479996,1.120763,-1.836207,nan,0.002000,0.000000
21.000000,0.002000,-0.243049,-0.671935,-0.787242,-2.139326,0.430069,-0.605397,0.363803,2.361706,2.090606,0.000000,0.002000,0.000000
22.000000,0.002000,2.007045,-1.566911,1.065910,-0.631027,0.366135,-0.164298,-1.231168,0.875251,-0.504363,nan,0.002000,0.000000
23.000000,0.002000,1.690943,-1.901463,-0.116048,-0.640019,-1.082155,-1.686408,-1.204976,1.403226,0.138094,0.000000,0.002000,0.000000
24.000000,0.002000,0.614552,0.406514,0.125970,-2.097485,1.843422,0.138761,-2.336686,-1.117238,-0.153981,nan,0.002000,0.000000
25.000000,0.002000,-0.337166,1.487579,-0.079133,-0.894427,-1.459167,-0.900730,0.905483,-2.706131,0.486912,0.000000,0.002000,0.000000
26.000000,0.002000,-0.674643,2.696377,2.592336,0.571833,1.010402,0.539289,0.163587,-0.718941,-0.707975,nan,0.002000,0.000000
27.000000,0.002000,-0.778045,-1.259176,0.218517,-0.101952,1.131267,-0.681567,1.297678,3.124896,0.082489,0.000000,0.002000,0.000000
28.000000,0.002000,0.056491,0.930909,1.397806,-0.341263,-1.835617,-0.164000,-0.303861,-1.644397,-2.774883,nan,0.002000,0.000000
29.000000,0.002000,-9.232283,-9.644265,2.292241,-0.752001,-0.771053,0.343184,0.073469,0.076035,-0.017895,0.000000,0.002000,0.000000
30.000000,0.002000,-1.355526,-1.491180,-1.023745,0.663155,0.630366,1.237091,1.330437,1.599250,1.036654,nan,0.002000,0.000000
31.000000,0.002000,-1.076124,0.597170,0.361629,-0.927889,2.237734,0.350908,1.708341,-1.054696,0.189051,0.000000,0.002000,0.000000
32.000000,0.002000,0.833929,0.344907,0.318971,-1.257097,1.686230,0.556576,-2.613549,-0.788997,-0.390080,nan,0.002000,0.000000
33.000000,0.002000,-0.246358,0.951588,-1.500394,0.506364,-0.715454,0.486106,0.315594,-1.481423,2.631053,0.000000,0.002000,0.000000
34.000000,0.002000,0.182414,-1.992514,2.074083,-0.959054,0.223200,-1.364562,-0.110661,1.148876,-1.123088,nan,0.002000,0.000000
35.000000,0.002000,-3.935224,-4.098220,7.934415,-0.384172,-0.030798,0.144146,0.080766,0.084004,-0.158996,0.000000,0.002000,0.000000
36.000000,0.002000,0.407270,-1.755594,1.914848,0.660424,1.372971,-1.857463,-0.270784,1.308801,-1.320257,nan,0.002000,0.000000
37.000000,0.002000,-9.580107,-10.287718,3.921094,-0.790504,-0.931196,0.564951,0.061312,0.065630,-0.025723,0.000000,0.002000,0.000000
38.000000,0.002000,-0.075942,-1.087298,1.315721,1.355186,1.570919,-0.955906,0.015344,1.998275,-2.416513,nan,0.002000,0.000000
39.000000,0.002000,-0.190996,0.608367,0.740010,0.759734,-1.643079,1.463837,0.795056,-2.114386,-1.521996,0.000000,0.002000,0.000000
40.000000,0.002000,-1.292069,-0.001900,-1.701693,1.686097,-0.599757,1.226453,1.480071,0.006700,2.065656,nan,0.002000,0.000000
41.000000,0.002000,-0.793871,0.454439,1.582769,-0.861353,1.358435,0.972540,1.337538,-0.832387,-2.611211,0.000000,0.002000,0.000000
42.000000,0.002000,0.805657,1.187744,-3.035445,0.531669,-1.019311,1.391774,-0.295963,-0.380706,1.138418,nan,0.002000,0.000000
43.000000,0.002000,-2.732331,2.548568,2.575747,1.167992,0.314385,-0.822808,0.475954,-0.445051,-0.445920,0.000000,0.002000,0.000000
44.000000,0.002000,0.161966,-1.183206,0.971712,1.351900,-0.425265,-0.478171,-0.281038,2.466388,-2.158114,nan,0.002000,0.000000
45.000000,0.002000,1.025648,-0.046536,-0.308702,-1.732675,-0.647136,-1.802092,-2.837233,-0.081960,0.110593,0.000000,0.002000,0.000000
46.000000,0.002000,1.166498,0.649020,-0.198733,-0.826328,0.532063,-1.192328,-2.740886,-1.380785,0.689640,nan,0.002000,0.000000
47.000000,0.002000,-1.609656,0.096173,0.386125,-2.208552,-0.743775,-0.755354,3.991100,-0.014281,-1.537067,0.000000,0.002000,0.000000
48.000000,0.002000,1.089754,-1.182420,0.195665,1.410368,-0.346179,0.660289,-2.189091,2.807797,-0.394488,nan,0.002000,0.000000
49.000000,0.002000,-10.706581,-3.363742,0.990807,-0.662047,-0.195896,0.004106,0.144466,0.046227,-0.013920,0.000000,0.002000,0.000000
50.000000,0.002000,0.508781,-0.342277,-0.028179,0.692578,2.135879,2.490423,-1.533827,2.285729,0.626905,nan,0.002000,0.000000
51.000000,0.002000,-1.301848,1.733765,-0.416486,-1.089630,0.973895,-0.210115,1.418248,-1.953954,0.535215,0.000000,0.002000,0.000000
52.000000,0.002000,-0.268862,-0.078789,1.682505,-0.892431,-0.066621,-0.073811,0.174333,0.600087,-3.342132,nan,0.002000,0.000000
53.000000,0.002000,0.177135,-1.231420,-1.150583,-0.387227,-1.107742,-1.301924,-0.482937,2.227984,1.876344,0.000000,0.002000,0.000000
54.000000,0.002000,1.069114,0.757215,-2.242493,0.608777,0.296442,1.677109,-0.761015,-0.491926,1.680246,nan,0.002000,0.000000
55.000000,0.002000,-1.273254,0.266500,-0.452818,-0.862284,-0.050174,-2.038055,2.248868,-0.452019,0.971823,0.000000,0.002000,0.000000
56.000000,0.002000,-0.933947,1.081169,-1.061960,0.057619,-0.558098,1.494499,1.160625,-1.925507,2.144662,nan,0.002000,0.000000
57.000000,0.002000,1.788231,-0.162790,0.777941,-1.008035,-1.657102,-2.106912,-2.410883,0.195717,-1.187940,0.000000,0.002000,0.000000
58.000000,0.002000,-1.263233,-2.560658,-1.764599,0.643388,1.704803,0.534607,0.450986,0.956008,0.649911,nan,0.002000,0.000000
59.000000,0.002000,0.712236,-0.202216,-0.880905,-1.413586,0.769978,-2.147955,-2.281373,0.067631,2.323523,0.000000,0.002000,0.000000
60.000000,0.002000,-0.422869,0.664425,-0.818672,1.739260,0.198850,-0.150679,1.156641,-1.920296,2.153252,nan,0.002000,0.000000
61.000000,0.002000,-0.243362,1.625943,0.613577,1.764193,1.331789,-0.120083,0.415662,-3.086550,-1.391173,0.000000,0.002000,0.000000
62.000000,0.002000,-3.019709,-0.641754,12.031806,-0.512218,0.020928,0.820632,0.030220,0.006317,-0.122536,nan,0.002000,0.000000
63.000000,0.002000,-0.983602,0.309588,-0.448351,-1.897783,0.198095,-0.801034,2.125254,-0.886388,1.474442,0.000000,0.002000,0.000000
64.000000,0.002000,0.035804,1.758181,0.424937,-1.378689,1.551051,-0.305793,-0.217476,-2.985364,-0.565039,nan,0.002000,0.000000
65.000000,0.002000,1.250720,-0.392797,0.988279,1.735102,1.807010,0.409121,-2.358464,0.772711,-2.015484,0.000000,0.002000,0.000000
66.000000,0.002000,-0.094266,0.449782,0.788635,-2.072820,-0.897323,-2.173514,0.192306,-1.100032,-2.255586,nan,0.002000,0.000000
67.000000,0.002000,-3.866178,-6.392399,2.383190,0.185570,-0.101758,0.048731,0.141396,0.241157,-0.085772,0.000000,0.002000,0.000000
68.000000,0.002000,0.255242,-2.260814,-2.157193,-0.547621,1.237449,-0.181721,-0.109806,0.994352,0.888669,nan,0.002000,0.000000
69.000000,0.002000,1.504523,-2.128223,0.272274,-1.868030,0.445063,-1.265574,-1.034442,1.525168,-0.168717,0.000000,0.002000,0.000000
70.000000,0.002000,-1.490857,0.098862,1.208706,1.734200,-1.160566,0.100324,2.141237,-0.194974,-1.805715,nan,0.002000,0.000000
71.000000,0.002000,0.152947,-0.925434,1.271807,-1.827807,-0.460836,-1.842497,-0.388554,1.989867,-2.679660,0.000000,0.002000,0.000000
72.000000,0.002000,-0.638755,-0.655638,-0.748698,0.867348,-0.086680,2.759250,1.345981,2.302270,2.005156,nan,0.002000,0.000000
73.000000,0.002000,-4.979138,3.903405,-7.091035,-0.373085,0.323490,-0.129616,0.106814,-0.081650,0.154087,0.000000,0.002000,0.000000
74.000000,0.002000,-0.020842,-1.092217,-0.933294,0.059140,-0.226566,-0.638195,-0.147451,2.236880,2.146413,nan,0.002000,0.000000
75.000000,0.002000,-5.546099,1.165838,-0.268923,0.827408,0.054853,-0.622116,0.510231,-0.099451,0.035766,0.000000,0.002000,0.000000
76.000000,0.002000,0.789401,-0.545881,-0.500468,1.580022,-1.092647,-1.168738,-2.099767,1.414869,1.859523,nan,0.002000,0.000000
77.000000,0.002000,-0.476931,-0.023300,1.029801,2.172951,0.697872,-1.019606,1.303620,0.078329,-2.581686,0.000000,0.002000,0.000000
78.000000,0.002000,1.227075,0.897603,-1.196883,-0.694987,-0.931789,-0.909219,-1.547573,-0.977754,1.742090,nan,0.002000,0.000000
79.000000,0.002000,-0.353252,-1.143217,-1.179402,1.703930,-0.594686,-1.341808,0.669249,2.208208,2.060685,0.000000,0.002000,0.000000
80.000000,0.002000,-0.524730,7.149729,-2.879040,-0.574778,0.052847,0.212027,0.007413,-0.271823,0.111253,nan,0.002000,0.000000
81.000000,0.002000,-1.311644,-0.068182,0.216387,-0.650363,0.747438,0.031511,3.127893,1.182865,-0.180356,0.000000,0.002000,0.000000
82.000000,0.002000,0.046213,-0.081213,-1.350419,-1.997041,-1.652754,-1.328650,-0.435966,0.495154,3.275210,nan,0.002000,0.000000
83.000000,0.002000,1.426209,0.911128,0.258626,0.898083,-0.221399,2.321888,-2.705972,-1.625114,-0.310607,0.000000,0.002000,0.000000
84.000000,0.002000,-3.015876,-1.555359,0.391562,-1.038511,-0.988642,0.362943,1.057357,0.605883,-0.149665,nan,0.002000,0.000000
85.000000,0.002000,-0.374607,1.114547,-2.998385,0.565878,-0.095892,-1.354710,0.155891,-0.424483,1.266068,0.000000,0.002000,0.000000
86.000000,0.002000,-1.094358,1.808333,-0.023936,-0.444159,0.533878,1.308731,1.902944,-1.876842,0.122849,nan,0.002000,0.000000
87.000000,0.002000,-0.355446,-0.859971,-0.720512,0.600919,-2.348938,-1.303060,0.375824,2.432499,1.837121,0.000000,0.002000,0.000000
88.000000,0.002000,-0.048711,-1.440030,0.083903,-1.194113,-0.838267,-0.384877,-0.196081,3.027480,0.068715,nan,0.002000,0.000000
89.000000,0.002000,1.019918,2.447959,0.462708,1.790155,1.178720,-0.168715,-0.667684,-1.658524,-0.277485,0.000000,0.002000,0.000000
90.000000,0.002000,-0.258887,0.603592,0.259138,-0.370779,-0.457738,0.940283,0.745521,-1.698201,-0.815693,nan,0.002000,0.000000
91.000000,0.002000,-6.385224,-2.551340,-9.454384,-0.648552,-0.769864,-0.724155,0.076205,0.032127,0.114150,0.000000,0.002000,0.000000
92.000000,0.002000,0.925381,-0.809522,-0.414752,-1.177828,1.446489,0.799690,-2.250861,2.284480,0.958844,nan,0.002000,0.000000
93.000000,0.002000,3.231424,-2.367883,-2.147921,-1.022205,0.928454,-0.357783,-0.529973,0.394238,0.342962,0.000000,0.002000,0.000000
94.000000,0.002000,-5.097637,4.162473,4.005279,0.296413,0.004847,0.301012,0.197828,-0.155908,-0.155196,nan,0.002000,0.000000
95.000000,0.002000,-0.472778,-1.892556,-0.692259,-0.851970,-1.251672,-0.612423,0.461907,2.292277,0.750024,0.000000,0.002000,0.000000
96.000000,0.002000,1.292211,-0.113536,1.651941,0.028997,0.345564,-0.071215,-1.684049,0.401928,-1.955600,nan,0.002000,0.000000
97.000000,0.002000,-0.540861,-1.166200,0.508556,2.055384,0.637669,0.200619,0.971903,2.832931,-1.003777,0.000000,0.002000,0.000000
98.000000,0.002000,0.722740,-7.636891,6.949705,-0.016180,-0.311339,0.420890,-0.012801,0.129889,-0.117070,nan,0.002000,0.000000
99.000000,0.002000,-0.371686,1.109556,0.802885,0.003163,-0.578638,0.387419,0.914527,-2.842804,-1.835098,0.000000,0.002000,0.000000
100.000000,0.002000,-0.856483,1.051740,-0.872045,-0.137044,1.266939,-1.295754,1.517481,-1.970692,1.687292,nan,0.002000,0.000000
101.000000,0.002000,-0.428795,0.767052,-0.368668,2.664771,-0.447290,-1.927678,1.192989,-1.870499,0.829219,0.000000,0.002000,0.000000
102.000000,0.002000,1.410455,-0.537932,-0.743961,-0.137021,1.006431,-1.526004,-2.135830,1.170591,1.722064,nan,0.002000,0.000000
103.000000,0.002000,-0.659961,3.014889,-2.441003,-0.199540,-1.348578,1.018298,0.189069,-0.763876,0.632742,0.000000,0.002000,0.000000
104.000000,0.002000,0.611180,-0.879338,0.740833,0.050268,0.097585,1.899359,-1.432127,2.392510,-1.743097,nan,0.002000,0.000000
105.000000,0.002000,0.621343,1.665196,-1.634309,-1.259194,-0.024529,-1.789632,-0.577192,-1.473658,1.510059,0.000000,0.002000,0.000000
106.000000,0.002000,0.792358,0.876254,0.376175,0.102338,0.536438,0.781995,-1.931527,-1.739969,-0.856165,nan,0.002000,0.000000
107.000000,0.002000,-0.308217,-0.126125,-0.570855,-1.110209,-1.766569,1.278674,0.363041,1.166040,2.025148,0.000000,0.002000,0.000000
108.000000,0.002000,-1.287713,-0.358854,-1.172445,-1.408461,-0.649534,-1.223554,1.977490,0.758340,2.060802,nan,0.002000,0.000000
109.000000,0.002000,-0.972103,-0.675642,0.919297,-0.895426,0.503086,-1.659396,1.963429,1.374755,-1.803723,0.000000,0.002000,0.000000
110.000000,0.002000,-4.496203,0.504225,-6.273341,0.120834,-0.116612,-0.199426,0.173796,-0.024191,0.241374,nan,0.002000,0.000000
111.000000,0.002000,-1.092075,-0.003873,0.207990,-0.528889,-2.015938,2.027795,2.457069,-0.059562,-0.756663,0.000000,0.002000,0.000000
112.000000,0.002000,11.138847,4.887288,2.735628,0.760369,0.149761,0.275037,-0.114770,-0.048887,-0.029276,nan,0.002000,0.000000
113.000000,0.002000,2.007835,-4.318140,-1.960099,0.583354,0.927070,0.980042,-0.245249,0.508966,0.227216,0.000000,0.002000,0.000000
114.000000,0.002000,-0.883280,0.870424,1.285727,-1.697307,-0.575810,1.070305,1.522847,-1.361621,-2.157753,nan,0.002000,0.000000
115.000000,0.002000,1.590548,0.089245,0.997670,0.230224,-0.208334,0.256251,-2.348580,0.027045,-1.338816,0.000000,0.002000,0.000000
116.000000,0.002000,0.467504,0.606994,-0.253519,0.030740,0.345247,-0.471615,-1.677005,-2.054286,0.957445,nan,0.002000,0.000000
117.000000,0.002000,-0.673189,0.815024,-1.099546,2.013963,-0.313045,-0.185828,1.422177,-1.720701,2.345425,0.000000,0.002000,0.000000
118.000000,0.002000,1.327546,1.076775,1.493505,0.510562,-0.943271,-0.246578,-1.523314,-1.055722,-1.376107,nan,0.002000,0.000000
119.000000,0.002000,-2.456172,-3.107733,1.214481,-0.265110,-0.576582,0.726970,0.496940,0.677365,-0.263374,0.000000,0.002000,0.000000
120.000000,0.002000,-0.685362,-0.578114,-0.735327,0.054893,0.417917,-1.724205,2.129601,1.131220,1.942039,nan,0.002000,0.000000
121.000000,0.002000,-1.029727,-1.262386,0.085911,-0.053541,-0.989629,1.002453,2.081754,2.408432,-0.028038,0.000000,0.002000,0.000000
122.000000,0.002000,-0.155740,0.197352,-0.381176,-1.293069,-0.768887,-0.748238,0.294411,-0.208599,1.725307,nan,0.002000,0.000000
123.000000,0.002000,2.209981,-1.747573,3.145126,0.324782,0.190757,0.466339,-0.442606,0.361604,-0.634398,0.000000,0.002000,0.000000
124.000000,0.002000,0.556003,-0.803475,-0.966396,-0.153491,0.477272,2.027720,-0.827640,1.946706,2.564323,nan,0.002000,0.000000
125.000000,0.002000,0.316674,-0.021616,0.516978,-2.399667,0.467606,2.276720,-0.449991,0.528558,-2.655489,0.000000,0.002000,0.000000
126.000000,0.002000,-1.083101,-6.128176,-1.946597,0.123590,0.501590,-0.366613,0.061760,0.372973,0.116979,nan,0.002000,0.000000
127.000000,0.002000,-0.358497,1.111361,-1.681991,-1.619017,-0.121192,2.414617,4.288732,-1.106160,1.637272,0.000000,0.002000,0.000000
128.000000,0.002000,0.064830,5.876858,1.535976,0.038554,-0.493066,-0.193522,-0.007894,-0.449849,-0.124668,nan,0.002000,0.000000
129.000000,0.002000,2.632455,-0.799768,-1.022361,-1.131031,0.831470,0.555358,-1.348551,0.366446,0.522359,0.000000,0.002000,0.000000
130.000000,0.002000,0.189852,2.482696,1.097449,-0.926326,0.273459,-0.265485,-0.119472,-1.664554,-0.701127,nan,0.002000,0.000000
131.000000,0.002000,-0.621424,-0.655780,1.496535,0.788914,-1.638398,0.538899,1.045864,1.307799,-2.672471,0.000000,0.002000,0.000000
132.000000,0.002000,0.978797,-0.606157,0.945230,1.769156,1.429313,0.381680,-2.128368,1.618586,-2.063226,nan,0.002000,0.000000
133.000000,0.002000,4.351544,0.198682,2.907000,-0.974012,0.666641,0.134835,-0.497629,-0.012380,-0.335952,0.000000,0.002000,0.000000
134.000000,0.002000,-4.538074,2.785483,-4.503858,0.440515,-0.314767,-0.119976,0.232839,-0.141257,0.232199,nan,0.002000,0.000000
135.000000,0.002000,-2.397167,-7.829981,1.177320,0.059569,0.049039,-0.321344,0.056456,0.226469,-0.049844,0.000000,0.002000,0.000000
136.000000,0.002000,-1.153213,-1.119823,1.486026,-0.305694,0.279974,0.647829,1.225031,1.268991,-1.690288,nan,0.002000,0.000000
137.000000,0.002000,0.167995,0.149514,0.797475,-1.402018,-2.361905,-0.164148,-1.027467,0.015230,-1.729266,0.000000,0.002000,0.000000
138.000000,0.002000,-0.938146,3.537903,0.960048,-0.866349,0.856580,0.379728,0.248548,-0.966587,-0.253523,nan,0.002000,0.000000
139.000000,0.002000,-3.558393,2.103869,0.146614,0.254889,0.218603,0.113165,0.780561,-0.476984,-0.030783,0.000000,0.002000,0.000000
140.000000,0.002000,0.384011,-0.342286,-2.029805,-0.877596,-2.272392,-0.914433,-0.538470,0.405011,2.390851,nan,0.002000,0.000000
141.000000,0.002000,1.877417,-8.833917,0.543065,0.223567,-0.301795,-0.373260,-0.047650,0.215021,-0.014126,0.000000,0.002000,0.000000
142.000000,0.002000,0.381129,-0.397753,0.176209,1.398511,-2.240694,-0.334179,-1.300844,1.778490,-0.525728,nan,0.002000,0.000000
143.000000,0.002000,0.077125,13.654755,3.829804,0.088658,1.151493,0.358843,-0.001364,-0.098041,-0.026855,0.000000,0.002000,0.000000
144.000000,0.002000,0.163503,-0.696857,0.830326,0.216035,-2.467440,0.362683,-0.449773,2.364982,-1.612164,nan,0.002000,0.000000
145.000000,0.002000,-1.268941,-0.043037,-0.310369,0.851899,1.243362,-1.989735,3.143277,0.171509,0.767382,0.000000,0.002000,0.000000
146.000000,0.002000,0.652399,0.403124,-0.450099,-0.758051,0.827614,2.178763,-1.739535,-1.116248,0.635426,nan,0.002000,0.000000
147.000000,0.002000,-1.518405,0.487988,0.770088,-0.420980,-1.225798,-0.530666,2.763229,-0.821185,-1.352285,0.000000,0.002000,0.000000
148.000000,0.002000,-0.427937,0.077952,0.076814,-1.014228,-2.442475,3.108017,1.485186,-0.041261,-0.482035,nan,0.002000,0.000000
149.000000,0.002000,0.791065,0.528278,-0.980385,-1.159306,0.092680,-0.943874,-1.667490,-1.044069,2.363187,0.000000,0.002000,0.000000
150.000000,0.002000,-0.005711,1.310398,-1.144069,-1.787250,-0.483181,-0.631859,0.053242,-2.047775,1.751862,nan,0.002000,0.000000
151.000000,0.002000,-0.583270,-1.907649,-0.846911,-0.728726,-0.400613,-0.139800,0.590388,2.117620,0.883502,0.000000,0.002000,0.000000
152.000000,0.002000,-0.492162,1.020873,1.801050,-0.905482,1.695871,-0.644082,-0.188524,-1.721350,-2.461048,nan,0.002000,0.000000
153.000000,0.002000,-3.338446,2.226507,-2.336975,-0.305082,1.004542,-0.364453,0.536055,-0.355285,0.384226,0.000000,0.002000,0.000000
154.000000,0.002000,-0.867310,0.526774,-0.961994,0.764736,-0.137112,1.976025,2.361009,-1.263546,2.836433,nan,0.002000,0.000000
155.000000,0.002000,0.489484,0.557240,-0.126393,0.984160,-1.166435,1.349475,-1.649038,-1.733891,0.553141,0.000000,0.002000,0.000000
156.000000,0.002000,-2.642342,-1.285513,-8.642001,0.432453,-0.230585,-0.373612,0.066287,0.030114,0.214948,nan,0.002000,0.000000
157.000000,0.002000,9.033481,5.136169,6.873466,0.547657,0.454807,0.393415,-0.091886,-0.050046,-0.070876,0.000000,0.002000,0.000000
158.000000,0.002000,-0.751947,-0.079062,-0.391158,-2.187481,-0.621151,1.237615,2.378678,0.186060,1.409304,nan,0.002000,0.000000
159.000000,0.002000,1.163952,0.709406,0.988075,1.895961,0.548069,-1.595207,-2.114371,-1.122016,-1.712448,0.000000,0.002000,0.000000
160.000000,0.002000,-1.767055,-2.106672,-3.438913,0.433684,-0.437939,-0.015879,0.322541,0.380364,0.629547,nan,0.002000,0.000000
161.000000,0.002000,-1.135096,-1.556002,0.011064,-1.247233,0.603119,0.607786,1.594923,2.325485,0.050136,0.000000,0.002000,0.000000
162.000000,0.002000,-3.578098,-8.682292,-1.139259,-0.291862,-0.326774,-0.590560,0.072910,0.192617,0.025946,nan,0.002000,0.000000
163.000000,0.002000,0.381405,-4.405149,-3.075399,0.433067,0.794765,0.390923,-0.026929,0.461364,0.310444,0.000000,0.002000,0.000000
164.000000,0.002000,-0.011960,-1.074681,-0.056115,-1.132981,0.131131,1.609825,-0.115208,2.954819,0.168348,nan,0.002000,0.000000
165.000000,0.002000,-2.225470,-14.106016,-0.198370,-0.111281,-1.282346,0.245352,0.015364,0.096007,0.000944,0.000000,0.002000,0.000000
166.000000,0.002000,0.184810,3.579934,0.597592,0.276678,-0.857940,0.597119,-0.026406,-1.082263,-0.172259,nan,0.002000,0.000000
167.000000,0.002000,-2.520257,-0.423047,0.447861,-0.304342,0.066563,-1.204544,1.884039,0.358595,-0.384548,0.000000,0.002000,0.000000
168.000000,0.002000,0.944966,0.746308,-0.918058,0.169102,-0.716933,0.173583,-1.793932,-1.420825,1.760793,nan,0.002000,0.000000
169.000000,0.002000,0.555865,-1.051933,2.361996,-0.220001,0.005776,-0.815107,-0.391711,0.786124,-1.667275,0.000000,0.002000,0.000000
170.000000,0.002000,1.184441,6.587456,-6.718589,-0.166995,0.170911,-0.151707,-0.033937,-0.138496,0.148684,nan,0.002000,0.000000
171.000000,0.002000,-7.717208,0.375480,-2.641174,0.153892,0.262541,-0.306211,0.259952,-0.010914,0.095252,0.000000,0.002000,0.000000
172.000000,0.002000,7.338580,-5.959848,5.383271,0.223873,-0.490995,0.391397,-0.108469,0.088723,-0.081867,nan,0.002000,0.000000
173.000000,0.002000,-0.089599,-0.977807,-0.024279,2.638060,0.748806,0.344651,0.201027,3.030004,0.057053,0.000000,0.002000,0.000000
174.000000,0.002000,-2.272240,-7.825501,1.407545,0.299087,-0.195536,-0.185359,0.044633,0.243584,-0.080672,nan,0.002000,0.000000
175.000000,0.002000,2.787649,-1.010614,-1.637608,-0.682967,-1.119394,-0.280268,-1.017592,0.378882,0.605592,0.000000,0.002000,0.000000
176.000000,0.002000,2.223174,0.234754,-2.955850,0.010152,-0.945148,-0.240579,-0.630353,-0.050732,0.826707,nan,0.002000,0.000000
177.000000,0.002000,3.574809,-9.987673,-2.420100,-0.109891,-0.816881,-0.653704,-0.052498,0.146681,0.035004,0.000000,0.002000,0.000000
178.000000,0.002000,0.934569,0.763041,-0.278360,-1.428647,0.740883,1.025395,-1.983575,-1.972995,0.170646,nan,0.002000,0.000000
179.000000,0.002000,0.908199,-0.028549,1.459490,0.453818,0.753502,-1.181032,-1.630893,0.192158,-2.520535,0.000000,0.002000,0.000000
180.000000,0.002000,-0.398770,0.875958,-0.284523,-1.373409,0.656200,-1.924412,0.821396,-2.403978,0.292580,nan,0.002000,0.000000
181.000000,0.002000,-0.762964,1.844345,-1.072479,0.950265,-0.857702,1.701707,0.988441,-1.906663,1.036506,0.000000,0.002000,0.000000
182.000000,0.002000,3.006162,1.392507,0.387615,-0.740682,-1.463375,-0.789494,-1.130655,-0.469901,-0.148211,nan,0.002000,0.000000
183.000000,0.002000,-0.675097,-2.905562,-9.625451,0.130215,-0.673119,-0.438930,0.011925,0.051034,0.180056,0.000000,0.002000,0.000000
184.000000,0.002000,1.632372,-0.703615,-0.402250,-0.240261,0.579259,1.465215,-2.514015,1.165327,0.733247,nan,0.002000,0.000000
185.000000,0.002000,0.473817,1.959994,-1.436756,0.430964,-1.144441,0.290339,-0.424585,-1.667743,1.239742,0.000000,0.002000,0.000000
186.000000,0.002000,-1.793752,-2.269411,-5.269445,0.519112,-0.523967,0.382408,0.132517,0.176964,0.407568,nan,0.002000,0.000000
187.000000,0.002000,5.738343,-2.770547,-4.718209,-0.035782,-0.212952,0.118735,-0.209382,0.104782,0.169160,0.000000,0.002000,0.000000
188.000000,0.002000,-0.094134,1.111626,0.798022,0.597915,-1.197060,2.147513,0.045505,-2.192180,-1.971055,nan,0.002000,0.000000
189.000000,0.002000,-3.206069,-2.317198,1.451122,-0.056290,0.955823,-0.026196,0.683145,0.492282,-0.302036,0.000000,0.002000,0.000000
190.000000,0.002000,1.236774,0.128418,0.654357,0.826776,-1.711947,-0.419164,-2.727000,-0.103619,-1.338079,nan,0.002000,0.000000
191.000000,0.002000,-0.068590,0.427072,-0.018600,2.056068,1.530155,-1.770335,0.328022,-1.364864,-1.005180,0.000000,0.002000,0.000000
192.000000,0.002000,0.049600,1.343970,-1.189136,0.993888,-1.022347,1.438998,-0.449546,-2.273543,2.130256,nan,0.002000,0.000000
193.000000,0.002000,-0.328844,0.859329,0.067936,0.026952,-1.953926,-0.963740,1.081070,-2.461478,-0.346612,0.000000,0.002000,0.000000
194.000000,0.002000,-6.058445,-3.403125,3.457442,0.280854,-0.305784,-0.177261,0.229905,0.129210,-0.124511,nan,0.002000,0.000000
195.000000,0.002000,-1.515160,1.237400,-1.362957,-0.643804,-0.281310,1.161650,1.374256,-1.075799,1.402116,0.000000,0.002000,0.000000
196.000000,0.002000,-0.161345,-0.705063,0.379387,-2.212923,1.182958,0.954513,0.851672,1.980480,-0.892962,nan,0.002000,0.000000
197.000000,0.002000,0.361579,0.219898,-0.858126,-0.939345,3.007269,2.400261,-1.525902,-0.547728,2.793266,0.000000,0.002000,0.000000
198.000000,0.002000,0.266504,-0.096770,-0.709408,2.569185,0.412437,-0.201091,-0.931994,0.641262,2.471429,nan,0.002000,0.000000
199.000000,0.002000,0.249325,-0.312779,-1.036632,1.083048,1.163982,-1.497870,-1.444837,0.766191,3.067292,0.000000,0.002000,0.000000
200.000000,0.002000,-0.457898,-0.492612,-1.013321,-0.303502,-1.793163,0.148754,1.012130,0.902685,2.112446,nan,0.002000,0.000000
201.000000,0.002000,7.922261,-3.151308,6.092138,0.349157,-0.128614,0.248663,-0.130855,0.053899,-0.103452,0.000000,0.002000,0.000000
202.000000,0.002000,1.674881,1.796668,0.413886,-1.224941,-2.145636,-0.603770,-1.444479,-1.432044,-0.257932,nan,0.002000,0.000000
203.000000,0.002000,0.116874,-0.738614,-1.136252,0.255989,2.575440,-0.498591,-0.337612,1.441500,2.586185,0.000000,0.002000,0.000000
204.000000,0.002000,0.185578,-1.721224,-0.913558,1.922606,-0.721648,0.391470,-0.256512,2.364653,1.155249,nan,0.002000,0.000000
205.000000,0.002000,1.349832,0.699122,-1.501128,-0.815207,-1.377490,-0.203603,-1.614557,-0.646298,1.686094,0.000000,0.002000,0.000000
206.000000,0.002000,1.320259,0.979489,0.252243,0.171463,0.768931,-0.874891,-2.370892,-1.834375,-0.501049,nan,0.002000,0.000000
207.000000,0.002000,-7.523900,5.795432,-2.908512,-0.181557,0.203613,-0.046703,0.145163,-0.107538,0.061850,0.000000,0.002000,0.000000
208.000000,0.002000,-0.258115,1.092747,1.404171,0.842495,-0.471119,-0.246721,0.416189,-1.822783,-2.230298,nan,0.002000,0.000000
209.000000,0.002000,-0.924017,-1.180916,-0.404555,0.634975,-0.606718,1.326299,1.836109,2.646257,0.787392,0.000000,0.002000,0.000000
210.000000,0.002000,1.702046,-0.233560,-0.046168,1.174799,0.862972,-2.047650,-2.823079,0.511640,-0.131849,nan,0.002000,0.000000
211.000000,0.002000,0.013035,-0.037952,0.480046,-1.383669,1.582378,-1.068577,0.151193,0.605071,-1.536159,0.000000,0.002000,0.000000
212.000000,0.002000,0.153915,0.100074,0.007005,0.913940,0.932970,-1.378518,-0.718034,0.013824,0.080638,nan,0.002000,0.000000
213.000000,0.002000,0.917606,-0.358809,-0.938349,0.218368,-0.726157,2.226907,-2.074559,0.829029,1.750374,0.000000,0.002000,0.000000
214.000000,0.002000,2.625269,-2.509822,-1.597843,-0.464976,1.087268,1.173752,-0.622226,0.633561,0.335478,nan,0.002000,0.000000
215.000000,0.002000,-0.549729,0.661757,2.495984,1.258086,-1.213221,-0.548379,0.400409,-0.524380,-1.776390,0.000000,0.002000,0.000000
216.000000,0.002000,-0.336343,-0.218144,1.731371,-0.221514,1.052434,0.021464,0.548709,0.483968,-3.051681,nan,0.002000,0.000000
217.000000,0.002000,-0.089240,1.983196,-1.115413,-0.511753,1.405251,0.220314,0.394859,-2.157768,1.713707,0.000000,0.002000,0.000000
218.000000,0.002000,-4.440888,-4.878054,-3.994618,-0.618399,0.274463,0.278255,0.155162,0.203332,0.176713,nan,0.002000,0.000000
219.000000,0.002000,-0.290918,-0.098621,0.884549,-0.466802,-1.644857,0.059858,0.222731,0.146120,-2.606421,0.000000,0.002000,0.000000
220.000000,0.002000,2.899335,-0.996058,-3.631961,0.572512,-0.062778,0.023792,-0.573801,0.066552,0.535181,nan,0.002000,0.000000
221.000000,0.002000,-1.428708,0.390769,1.699278,1.161588,-1.723928,-1.528582,1.455821,-0.390925,-1.881754,0.000000,0.002000,0.000000
222.000000,0.002000,-0.439189,0.221423,-0.501642,-1.105386,1.762135,0.945570,1.640491,-0.820303,1.650889,nan,0.002000,0.000000
223.000000,0.002000,1.492132,-4.718942,1.804728,-0.123165,0.699620,-0.581020,-0.164085,0.527258,-0.191233,0.000000,0.002000,0.000000
224.000000,0.002000,-0.689065,6.300157,-3.775929,0.134769,-0.441415,-0.369893,0.031195,-0.275196,0.171841,nan,0.002000,0.000000
225.000000,0.002000,-1.599841,-1.091190,0.635147,-0.004728,1.215944,-1.327999,2.089118,1.285212,-0.693954,0.000000,0.002000,0.000000
226.000000,0.002000,-1.582952,-0.465649,-0.682955,0.335227,-0.808736,0.703544,2.667661,0.866574,1.306401,nan,0.002000,0.000000
227.000000,0.002000,-0.096692,0.426288,0.505367,-0.769956,-1.947679,-1.992499,0.481582,-1.649774,-1.412586,0.000000,0.002000,0.000000
228.000000,0.002000,0.560146,0.115763,2.272430,-1.974253,-1.584125,-0.585230,-0.602278,0.003087,-2.242670,nan,0.002000,0.000000
229.000000,0.002000,2.538499,2.536339,-2.306795,-1.733974,0.878460,-0.122926,-0.532146,-0.491794,0.406145,0.000000,0.002000,0.000000
230.000000,0.002000,-0.120953,-7.659728,-10.295111,-0.184285,-0.715904,-0.735040,0.001737,0.073183,0.096404,nan,0.002000,0.000000
231.000000,0.002000,1.699720,0.812964,-0.304879,-1.547516,-0.308526,-0.694555,-2.483394,-1.047640,0.647987,0.000000,0.002000,0.000000
232.000000,0.002000,-2.610685,-1.909724,1.684169,0.708935,0.480380,-0.499658,0.785279,0.609730,-0.503470,nan,0.002000,0.000000
233.000000,0.002000,-0.039045,-1.134645,-0.631760,0.111557,-0.526574,-1.144383,-0.639552,2.550887,1.432936,0.000000,0.002000,0.000000
234.000000,0.002000,-1.284788,-0.208854,3.036566,-0.775513,0.945774,1.351489,0.498835,0.102848,-1.189491,nan,0.002000,0.000000
235.000000,0.002000,0.689011,-0.451792,-0.073785,-3.077102,-1.161411,1.184093,-1.676786,1.854514,-0.297932,0.000000,0.002000,0.000000
236.000000,0.002000,1.499727,3.205644,-2.679277,0.530048,-0.913119,1.036531,-0.287887,-0.583814,0.498702,nan,0.002000,0.000000
237.000000,0.002000,-1.289686,-0.261137,0.737324,-0.654612,2.039382,1.080334,2.905392,0.737104,-1.608962,0.000000,0.002000,0.000000
238.000000,0.002000,0.675711,1.368669,0.571536,1.337144,-0.609940,0.029083,-1.263611,-2.729471,-1.031789,nan,0.002000,0.000000
239.000000,0.002000,0.563475,0.564122,-0.491927,-1.953732,1.626168,1.303097,-1.913322,-1.504159,1.644384,0.000000,0.002000,0.000000
240.000000,0.002000,-1.575409,0.095860,0.359213,0.937882,1.059817,-0.634301,2.568916,0.032733,-0.337244,nan,0.002000,0.000000
241.000000,0.002000,1.475979,1.340920,-0.391270,0.801841,-0.748076,0.231413,-1.828095,-1.647787,0.608965,0.000000,0.002000,0.000000
242.000000,0.002000,-0.459219,4.510180,-1.741721,-0.063277,-1.271549,0.145864,0.073080,-0.636465,0.252641,nan,0.002000,0.000000
243.000000,0.002000,-1.128251,1.558042,0.262429,0.824959,-1.087808,-0.700608,0.676203,-4.464168,6.018284,0.000000,0.002000,0.000000
244.000000,0.002000,-0.331642,-0.835958,-0.853179,2.233271,-0.010106,-0.722788,0.576335,2.464585,2.301349,nan,0.002000,0.000000
245.000000,0.002000,2.356223,4.083856,-9.775092,-0.661891,0.510485,-0.790609,-0.038107,-0.060053,0.146802,0.000000,0.002000,0.000000
246.000000,0.002000,4.268348,-2.195316,2.961892,-0.584189,0.207558,-0.392812,-0.394296,0.219299,-0.271904,nan,0.002000,0.000000
247.000000,0.002000,0.311956,-1.709598,-2.493941,-1.558568,0.417179,1.182570,-0.010910,0.741372,1.188738,0.000000,0.002000,0.000000
248.000000,0.002000,-0.178298,-0.571081,-2.394308,0.395726,-0.727077,0.033165,0.118511,0.477943,1.946688,nan,0.002000,0.000000
249.000000,0.002000,0.122067,-0.283243,-0.112749,1.524981,0.183576,-1.146024,-0.383128,1.441856,0.699216,0.000000,0.002000,0.000000
250.000000,0.002000,-0.001115,-0.179891,-1.500118,-0.788565,1.089909,-1.883602,-0.358848,0.355548,2.971214,nan,0.002000,0.000000
251.000000,0.002000,-5.604208,-3.016893,-5.354856,0.103316,-0.374286,0.034452,0.173276,0.092636,0.169607,0.000000,0.002000,0.000000
252.000000,0.002000,-0.653400,1.445854,-0.926571,-0.616090,-1.539671,0.484134,1.107216,-2.258567,1.424392,nan,0.002000,0.000000
253.000000,0.002000,0.610824,-1.093420,0.101793,-1.488639,-0.477472,-0.409125,-1.473833,2.729891,-0.138224,0.000000,0.002000,0.000000
254.000000,0.002000,2.181143,-1.682187,1.442540,-1.426254,-0.427918,0.186963,-0.970145,0.790943,-0.639608,nan,0.002000,0.000000
255.000000,0.002000,-0.854388,-0.476752,-0.996555,0.707821,-2.238800,-0.852353,1.851938,1.107943,2.316679,0.000000,0.002000,0.000000
256.000000,0.002000,1.110901,-1.460931,-0.473610,0.990565,-1.802118,-0.666145,-1.653478,2.190575,0.699666,nan,0.002000,0.000000
257.000000,0.002000,-0.949409,-1.562832,-1.322993,-0.946550,0.342960,0.300504,0.934135,1.649555,1.373632,0.000000,0.002000,0.000000
258.000000,0.002000,0.427263,-0.718742,0.665318,-0.084087,0.965889,-0.653623,-1.514955,2.109927,-1.719870,nan,0.002000,0.000000
259.000000,0.002000,-1.611244,-1.928066,0.797086,0.466524,-0.615445,-0.574155,1.099128,1.455175,-0.576627,0.000000,0.002000,0.000000
260.000000,0.002000,0.825669,3.633240,0.821294,0.443066,-0.305136,0.955900,-0.188833,-0.943908,-0.236965,nan,0.002000,0.000000
261.000000,0.002000,1.705384,1.348749,0.956068,1.737106,-0.508011,0.251378,-1.605963,-1.180642,-0.820356,0.000000,0.002000,0.000000
262.000000,0.002000,2.820610,-1.454798,0.700338,0.345195,-1.016973,1.165631,-1.108405,0.619828,-0.266324,nan,0.002000,0.000000
263.000000,0.002000,-1.907625,-0.816718,-0.106317,-0.755208,-0.473395,0.911053,2.360918,1.153035,0.102150,0.000000,0.002000,0.000000
264.000000,0.002000,-1.303354,1.618521,-0.817419,-0.725255,1.044124,-0.918154,1.504563,-1.778660,0.928266,nan,0.002000,0.000000
265.000000,0.002000,1.118604,-0.457182,1.449014,0.021291,-0.704229,-1.485641,-1.954374,0.614393,-2.002976,0.000000,0.002000,0.000000
266.000000,0.002000,-1.803504,2.605101,0.627230,-0.562297,1.518013,0.926047,0.752615,-1.104140,-0.225335,nan,0.002000,0.000000
267.000000,0.002000,3.895902,-0.769431,2.306139,0.833087,0.080212,0.039940,-0.640934,0.126805,-0.377174,0.000000,0.002000,0.000000
268.000000,0.002000,-1.158221,-0.350512,1.259970,-0.001092,1.434573,-1.064074,2.059814,0.579293,-2.197254,nan,0.002000,0.000000
269.000000,0.002000,1.000497,0.161858,-0.886605,-0.124932,-0.658066,-1.183196,-2.124865,0.217583,2.094736,0.000000,0.002000,0.000000
270.000000,0.002000,0.772657,1.550732,0.807474,-0.815231,2.832228,-0.612898,-1.256657,-2.224981,-1.384296,nan,0.002000,0.000000
271.000000,0.002000,0.032555,1.469560,0.180631,-1.419495,0.604472,1.355002,-0.491104,-2.500359,-0.753848,0.000000,0.002000,0.000000
272.000000,0.002000,-0.261860,-5.103024,4.282339,-0.236384,0.571216,0.402482,0.019841,0.300517,-0.250769,nan,0.002000,0.000000
273.000000,0.002000,-0.137357,1.940390,-0.848626,1.526623,-0.399029,-0.402364,0.214253,-2.340708,0.944410,0.000000,0.002000,0.000000
274.000000,0.002000,-0.112342,0.555026,-0.072208,-0.390196,-0.963793,-0.613021,-0.168194,-2.117185,0.690398,nan,0.002000,0.000000
275.000000,0.002000,1.409776,-0.845637,-1.022428,0.569145,0.371446,0.464631,-1.986977,1.188457,1.568124,0.000000,0.002000,0.000000
276.000000,0.002000,0.096970,-6.531858,-9.893442,0.072026,-0.484131,-0.573433,-0.001150,0.076651,0.115284,nan,0.002000,0.000000
277.000000,0.002000,0.895892,-1.869136,1.259625,-0.465467,0.225206,-0.064462,-0.763657,1.649126,-1.133511,0.000000,0.002000,0.000000
278.000000,0.002000,0.307317,0.005304,-0.011372,2.367888,-1.204768,-0.542236,-1.889540,-0.760244,0.255050,nan,0.002000,0.000000
279.000000,0.002000,-0.209366,0.799240,0.074618,0.326845,-2.711422,0.858738,-0.039645,-3.195800,-0.620497,0.000000,0.002000,0.000000
280.000000,0.002000,0.805380,0.498263,0.538229,0.099903,-0.548243,-0.569255,-2.093012,-0.972417,-1.313522,nan,0.002000,0.000000
281.000000,0.002000,0.709640,0.790417,-0.404504,-0.561438,1.286116,-2.561513,-2.065031,-1.984491,1.351410,0.000000,0.002000,0.000000
282.000000,0.002000,-0.882946,0.694978,1.913890,-2.605795,-0.650739,-0.425302,0.933577,-0.701747,-2.083734,nan,0.002000,0.000000
283.000000,0.002000,-0.400380,1.305931,0.676467,2.057265,-0.039651,-0.786787,1.169792,-2.634611,-1.343225,0.000000,0.002000,0.000000
284.000000,0.002000,-8.621598,1.625170,6.642516,-0.622284,-0.206642,0.315617,0.123789,-0.023525,-0.095869,nan,0.002000,0.000000
285.000000,0.002000,0.886968,0.804326,1.233185,0.719391,0.365842,0.871449,-1.595401,-1.340657,-2.189514,0.000000,0.002000,0.000000
286.000000,0.002000,-2.246155,-0.697289,-0.181909,1.210947,-1.510551,-0.336935,2.317823,0.789864,0.056281,nan,0.002000,0.000000
287.000000,0.002000,-0.395960,-0.109220,0.786212,0.058949,-1.211153,2.245159,1.456780,0.721749,-2.067178,0.000000,0.002000,0.000000
288.000000,0.002000,-0.179628,0.654939,-0.957966,-0.312016,-0.084490,0.090748,0.431893,-1.897246,2.510284,nan,0.002000,0.000000
289.000000,0.002000,-0.682811,-0.751028,0.053776,-1.595373,-0.517093,-0.205031,1.205547,2.696188,-0.633748,0.000000,0.002000,0.000000
290.000000,0.002000,0.816584,1.009554,-1.253524,0.101410,-0.142770,-0.036236,-1.276673,-1.443951,1.999211,nan,0.002000,0.000000
291.000000,0.002000,1.387042,0.815429,-2.546976,-0.150588,-1.047756,1.832951,-0.666871,-0.369988,1.255810,0.000000,0.002000,0.000000
292.000000,0.002000,-1.448598,-0.436945,-0.239446,-0.371380,1.215771,-1.146221,3.078853,1.070119,0.408766,nan,0.002000,0.000000
293.000000,0.002000,0.892837,-0.873511,0.257535,0.972366,-0.120838,-0.213154,-1.665652,2.166142,-0.870495,0.000000,0.002000,0.000000
294.000000,0.002000,2.641522,0.179748,3.556905,0.488910,-0.633771,-0.132791,-0.480775,-0.000238,-0.636586,nan,0.002000,0.000000
295.000000,0.002000,0.618994,0.105961,0.204601,-0.914379,-0.066387,-2.454928,-1.940750,-0.781096,-0.664976,0.000000,0.002000,0.000000
296.000000,0.002000,0.902354,-0.673390,-0.359933,-0.018648,0.690932,-2.482412,-2.472405,1.306253,1.488446,nan,0.002000,0.000000
297.000000,0.002000,0.226906,0.546925,-1.069558,0.999546,-0.993315,-1.996017,-1.056375,-1.357171,2.025534,0.000000,0.002000,0.000000
298.000000,0.002000,-3.021042,-0.846526,0.399197,0.681960,0.752626,-0.193165,1.255658,0.441146,-0.425819,nan,0.002000,0.000000
299.000000,0.002000,2.709632,1.741746,1.784951,-1.309079,0.133423,-0.840719,-0.814619,-0.541648,-0.527858,0.000000,0.002000,0.000000
300.000000,0.002000,-0.095214,4.031775,2.386157,-0.824088,0.562942,-0.660116,0.012698,-0.635318,-0.371211,nan,0.002000,0.000000
301.000000,0.002000,0.940065,-0.937301,-2.075987,-0.484761,-0.049523,0.362575,-0.775276,0.793298,1.671137,0.000000,0.002000,0.000000
302.000000,0.002000,1.195545,-0.435286,-0.635489,1.289828,0.564702,-2.214533,-2.734605,0.982990,1.643016,nan,0.002000,0.000000
303.000000,0.002000,-4.224465,-1.975175,0.383887,1.148981,-0.079231,0.610777,0.657504,0.228814,0.059676,0.000000,0.002000,0.000000
304.000000,0.002000,-0.178128,1.375265,1.218594,-0.865178,-1.482251,-0.392479,0.280302,-2.037835,-1.953091,nan,0.002000,0.000000
305.000000,0.002000,-3.144880,-2.711634,0.605255,-1.069738,-0.196747,0.303877,0.626616,0.571134,-0.169309,0.000000,0.002000,0.000000
306.000000,0.002000,-0.425264,-0.005717,-0.199419,2.682408,-0.000402,0.670985,1.237843,1.323737,0.744792,nan,0.002000,0.000000
307.000000,0.002000,0.518906,1.358702,-0.196798,0.377654,-0.100268,-2.285883,-1.362932,-3.140754,0.622170,0.000000,0.002000,0.000000
308.000000,0.002000,3.973140,-4.237913,-2.368354,-0.069287,0.775228,0.229329,-0.276065,0.300094,0.166576,nan,0.002000,0.000000
309.000000,0.002000,5.202645,-2.629901,2.299556,-0.338081,0.697332,-0.224305,-0.348403,0.172424,-0.155199,0.000000,0.002000,0.000000
310.000000,0.002000,0.251248,-0.450743,-1.603995,1.045718,-1.094993,0.614516,-0.430630,0.776118,2.835798,nan,0.002000,0.000000
311.000000,0.002000,-1.080721,-3.431490,3.486353,0.880095,0.623086,-0.589523,0.169665,0.475096,-0.440246,0.000000,0.002000,0.000000
312.000000,0.002000,1.935136,-0.356583,-3.340121,1.032323,-0.054781,-0.803749,-0.505958,0.083090,0.793683,nan,0.002000,0.000000
313.000000,0.002000,-3.133836,-0.957079,-2.960388,0.667131,1.073052,0.749388,0.552055,0.167440,0.537374,0.000000,0.002000,0.000000
314.000000,0.002000,0.623203,0.395393,-1.868497,0.662619,-1.001191,-0.273789,-0.808817,-0.555584,2.718475,nan,0.002000,0.000000
315.000000,0.002000,-1.628722,-0.497966,-0.167626,2.251776,1.817690,0.316873,3.509861,1.278808,0.288626,0.000000,0.002000,0.000000
316.000000,0.002000,1.065487,0.425084,1.636130,-0.437085,-0.062227,2.220366,-1.552562,-0.678377,-2.320063,nan,0.002000,0.000000
317.000000,0.002000,-0.191615,-0.741952,1.519839,-0.924011,0.557888,1.201681,0.259291,1.359353,-2.593467,0.000000,0.002000,0.000000
318.000000,0.002000,0.220239,-1.523237,1.080546,-0.189635,-1.364351,-1.104945,-0.917031,2.530395,-1.969752,nan,0.002000,0.000000
319.000000,0.002000,0.662945,0.413255,-0.486939,1.458165,0.488707,2.348078,-2.299953,-1.681134,2.738759,0.000000,0.002000,0.000000
320.000000,0.002000,-1.600945,-7.854553,-6.424781,-0.231755,-0.146116,-0.574634,0.026074,0.137375,0.109035,nan,0.002000,0.000000
321.000000,0.002000,-1.244555,-1.064172,0.813992,0.048755,0.898255,-0.083471,1.723698,1.732267,-1.620641,0.000000,0.002000,0.000000
322.000000,0.002000,0.444013,1.328088,0.091790,1.388889,-1.463523,-0.454364,-1.345765,-3.191621,-0.292562,nan,0.002000,0.000000
323.000000,0.002000,0.378343,-0.589015,0.984939,-0.313690,0.240300,-2.527726,-0.990177,1.265745,-2.774113,0.000000,0.002000,0.000000
324.000000,0.002000,0.933664,0.164974,-0.017091,-1.460806,-0.737410,1.477839,-3.406208,-0.297102,1.129253,nan,0.002000,0.000000
325.000000,0.002000,1.356260,4.587424,-2.184380,0.047000,0.517631,1.272158,-0.164514,-0.515755,0.254236,0.000000,0.002000,0.000000
326.000000,0.002000,1.889974,-1.412313,2.177546,1.136933,0.104170,1.303339,-0.802883,0.607667,-0.896949,nan,0.002000,0.000000
327.000000,0.002000,0.168347,-0.333590,-0.348810,-0.146807,1.432127,-1.198216,-0.673016,1.145771,1.321139,0.000000,0.002000,0.000000
328.000000,0.002000,1.370496,-0.648908,0.830623,-0.589879,-0.627137,1.529580,-2.293362,1.783778,-1.131610,nan,0.002000,0.000000
329.000000,0.002000,-0.976239,-0.023683,0.331363,-1.056534,-1.563205,0.672357,2.261957,0.118231,-1.012984,0.000000,0.002000,0.000000
330.000000,0.002000,0.648399,-1.575458,-0.569859,-0.986293,0.386139,0.674589,-1.173886,2.502841,0.703524,nan,0.002000,0.000000
331.000000,0.002000,0.568189,0.073124,0.481103,-1.206745,-0.310474,0.731010,-1.622779,-1.837603,-1.109000,0.000000,0.002000,0.000000
332.000000,0.002000,-0.580276,-0.821209,1.079147,0.502080,1.030483,-0.416403,0.463395,0.382306,-2.101800,nan,0.002000,0.000000
333.000000,0.002000,2.113516,0.300109,2.070030,0.116951,0.021133,-1.524730,-1.085156,-0.103358,-1.103204,0.000000,0.002000,0.000000
334.000000,0.002000,-0.082865,0.152450,-1.394855,1.617030,-1.548479,1.155924,-0.094793,-0.921612,3.588429,nan,0.002000,0.000000
335.000000,0.002000,-0.576824,0.536353,1.160250,0.409677,-0.581579,-0.184503,1.588130,-1.203009,-2.670864,0.000000,0.002000,0.000000
336.000000,0.002000,0.087929,-0.682006,1.268107,1.004211,1.733903,-0.429211,-0.336108,1.436905,-2.925407,nan,0.002000,0.000000
337.000000,0.002000,-0.546884,-1.882213,0.431292,-0.271254,-0.145670,-1.740540,0.463055,2.587235,-0.504159,0.000000,0.002000,0.000000
338.000000,0.002000,4.970295,3.964491,-1.077512,0.043904,-0.330229,0.803488,-0.322823,-0.254714,0.073481,nan,0.002000,0.000000
339.000000,0.002000,-1.126402,0.597313,-0.536281,-0.265944,-1.805478,1.072894,2.725586,-1.581054,1.265507,0.000000,0.002000,0.000000
340.000000,0.002000,-2.260412,1.465626,0.807501,0.347655,-1.905263,-1.104517,1.387706,-0.941716,-0.505846,nan,0.002000,0.000000
341.000000,0.002000,-0.689072,1.472804,0.741589,0.888302,-0.056535,-1.044917,1.507360,-2.496435,-0.952039,0.000000,0.002000,0.000000
342.000000,0.002000,0.889121,-1.354163,-7.327750,-0.304633,0.478765,0.039111,-0.035115,0.059358,0.304401,nan,0.002000,0.000000
343.000000,0.002000,0.226649,1.731831,-0.849007,1.423285,-0.689880,-1.105736,-0.469880,-2.542481,1.256833,0.000000,0.002000,0.000000
344.000000,0.002000,-1.079014,0.380775,-0.454720,0.267247,1.240278,-0.520585,3.523214,-0.720975,1.041092,nan,0.002000,0.000000
345.000000,0.002000,0.443213,-0.043906,0.365595,3.027915,1.166558,-0.332778,-1.577594,0.166594,-1.266104,0.000000,0.002000,0.000000
346.000000,0.002000,3.229720,-2.615781,3.674044,-0.060073,0.933921,-0.235077,-0.334226,0.241236,-0.377161,nan,0.002000,0.000000
347.000000,0.002000,-0.607204,3.179004,-0.078359,0.142466,-0.383499,1.414622,0.251579,-1.327770,0.024650,0.000000,0.002000,0.000000
348.000000,0.002000,-0.940190,-0.894324,-0.130596,-1.605432,-0.986966,0.213998,2.158823,2.408226,0.275125,nan,0.002000,0.000000
349.000000,0.002000,-1.244137,-1.449823,0.579764,-1.561049,0.166788,-1.277865,1.421300,1.463738,-0.631446,0.000000,0.002000,0.000000
350.000000,0.002000,0.279318,1.113208,-1.698108,1.073444,0.076245,1.490976,-0.373550,-1.303199,2.234164,nan,0.002000,0.000000
351.000000,0.002000,1.525969,1.746972,-1.241217,-0.538055,-0.819620,1.560118,-1.149594,-1.183236,0.893641,0.000000,0.002000,0.000000
352.000000,0.002000,2.597858,2.154503,-3.434275,0.071380,1.164295,0.603239,-0.355972,-0.307636,0.503867,nan,0.002000,0.000000
353.000000,0.002000,-2.824177,-4.223628,-2.643023,0.002606,0.907994,0.236849,0.238868,0.379447,0.236957,0.000000,0.002000,0.000000
354.000000,0.002000,0.345459,1.164372,1.255896,-0.164879,0.202501,-0.831530,-0.619185,-1.941372,-2.267883,nan,0.002000,0.000000
355.000000,0.002000,-1.060356,-0.005798,0.468663,0.247139,-0.079304,0.129713,2.556213,0.343154,-1.518182,0.000000,0.002000,0.000000
356.000000,0.002000,1.014531,0.477184,0.241537,-0.690554,-0.280728,-1.836621,-2.720654,-0.671768,-0.649906,nan,0.002000,0.000000
357.000000,0.002000,-0.152967,-0.336939,-0.642207,-1.280260,-3.735158,-0.606989,0.044329,0.799053,2.090382,0.000000,0.002000,0.000000
358.000000,0.002000,-0.150613,-1.142893,-1.870661,-1.722755,1.094911,-0.437369,0.007680,1.387512,2.108294,nan,0.002000,0.000000
359.000000,0.002000,1.686012,0.167023,1.271938,0.586183,-1.416430,-0.677122,-2.042755,-0.125095,-1.604596,0.000000,0.002000,0.000000
360.000000,0.002000,1.421312,-0.323478,0.260383,2.655162,1.975011,-0.447785,-2.692941,0.868605,-0.633622,nan,0.002000,0.000000
361.000000,0.002000,0.606453,-0.188446,0.925720,0.184398,0.480317,-1.562155,-1.655327,0.387624,-3.072785,0.000000,0.002000,0.000000
362.000000,0.002000,0.740407,-0.680612,0.727870,-1.498977,-1.332411,-1.078825,-1.861578,1.650692,-2.031518,nan,0.002000,0.000000
363.000000,0.002000,0.224611,-0.489727,0.610731,0.506885,1.369492,-2.412362,-1.192339,1.245591,-0.985260,0.000000,0.002000,0.000000
364.000000,0.002000,1.565128,0.929060,0.325740,1.003332,-0.872861,-0.068832,-2.686613,-1.344088,-0.387264,nan,0.002000,0.000000
365.000000,0.002000,4.126532,2.852256,-13.350896,0.266594,0.228847,-1.152191,-0.028388,-0.019265,0.091248,0.000000,0.002000,0.000000
366.000000,0.002000,-0.503881,0.203531,1.002151,0.608924,-1.175087,0.075843,1.398638,-0.552948,-2.564927,nan,0.002000,0.000000
367.000000,0.002000,1.113393,0.022962,1.543088,-0.426314,-0.225239,0.998115,-1.746478,0.018093,-2.074291,0.000000,0.002000,0.000000
368.000000,0.002000,1.155164,-0.075825,-0.947119,-0.117738,-2.873462,1.618594,-2.442325,0.304615,2.052510,nan,0.002000,0.000000
369.000000,0.002000,-1.078922,-0.461256,0.334888,-0.852185,-0.907640,-1.604550,2.601601,1.061080,-0.950521,0.000000,0.002000,0.000000
370.000000,0.002000,-0.440916,-1.482932,0.085206,-0.594853,-1.087927,-1.937969,1.358103,1.742978,-0.276775,nan,0.002000,0.000000
371.000000,0.002000,1.999700,-1.650082,-0.092701,-0.043922,0.385811,0.267762,-1.375249,1.192502,0.088736,0.000000,0.002000,0.000000
372.000000,0.002000,4.120482,-4.581220,-6.824688,0.124589,-0.095018,-0.368078,-0.098013,0.109420,0.157580,nan,0.002000,0.000000
373.000000,0.002000,0.807178,-1.077457,-3.244091,1.312558,-0.454761,-0.508715,-0.276308,0.332744,1.043148,0.000000,0.002000,0.000000
374.000000,0.002000,0.340372,-1.559396,-3.636952,-0.779965,0.443586,-0.301843,-0.194254,0.300089,1.043103,nan,0.002000,0.000000
375.000000,0.002000,2.453316,-3.848940,2.906700,-0.927853,0.423440,0.025518,-0.245827,0.396320,-0.317499,0.000000,0.002000,0.000000
376.000000,0.002000,-0.568745,0.946601,-0.437419,0.147480,-0.986806,-0.169919,1.305312,-2.433476,1.212436,nan,0.002000,0.000000
377.000000,0.002000,-2.292714,-2.212097,5.745907,0.024467,-0.411404,-0.511520,0.138592,0.141265,-0.346510,0.000000,0.002000,0.000000
378.000000,0.002000,-1.112162,3.996654,-1.940032,-0.112815,0.302833,-0.463596,0.121405,-0.730689,0.249015,nan,0.002000,0.000000
379.000000,0.002000,0.037244,0.869251,-0.110858,-0.150227,0.542902,-0.271441,0.199012,-2.310729,0.114462,0.000000,0.002000,0.000000
380.000000,0.002000,-0.217307,0.842995,-1.392778,0.279571,1.381715,0.431333,0.165808,-1.620105,2.857485,nan,0.002000,0.000000
381.000000,0.002000,9.143564,1.910039,-5.990970,0.621061,0.014414,-0.340725,-0.129056,-0.027240,0.083882,0.000000,0.002000,0.000000
382.000000,0.002000,0.782375,1.147287,-0.616255,-1.581644,1.277531,-0.770139,-1.700749,-1.859537,1.338032,nan,0.002000,0.000000
383.000000,0.002000,-0.345398,-0.107864,0.823153,-1.631506,-0.443527,-1.036518,0.620034,0.441298,-2.173576,0.000000,0.002000,0.000000
384.000000,0.002000,-0.353020,-1.853903,-0.254341,0.148920,0.840427,0.960903,0.484632,2.726366,0.587411,nan,0.002000,0.000000
385.000000,0.002000,0.622041,0.841847,-0.986981,-1.030678,-1.201747,0.720873,-1.786471,-1.714706,2.273409,0.000000,0.002000,0.000000
386.000000,0.002000,1.351982,-1.772684,0.145738,-0.389351,0.069238,-0.271623,-1.347106,1.757022,-0.061685,nan,0.002000,0.000000
387.000000,0.002000,-9.010524,-0.238793,5.770066,-0.477965,-0.227109,0.377215,0.138634,0.005882,-0.086901,0.000000,0.002000,0.000000
388.000000,0.002000,-0.099014,-0.327893,0.427063,-1.202222,0.441693,-2.849810,0.612459,0.731560,-1.248775,nan,0.002000,0.000000
389.000000,0.002000,-1.963259,1.539370,-0.460475,0.946129,0.142829,1.746779,1.599821,-1.164976,0.309478,0.000000,0.002000,0.000000
390.000000,0.002000,-1.312197,-0.623413,-1.109113,0.767996,0.994344,0.022956,2.062435,0.779822,1.619813,nan,0.002000,0.000000
391.000000,0.002000,1.007213,-1.443090,0.799477,-0.429121,1.111514,-0.569698,-1.504728,2.094594,-1.032458,0.000000,0.002000,0.000000
392.000000,0.002000,0.113051,-1.485895,0.060402,-1.812543,0.281644,0.438626,-0.466803,3.063363,-0.043927,nan,0.002000,0.000000
393.000000,0.002000,-0.787291,-0.235703,1.115705,1.202956,1.277491,-0.771298,1.646977,0.172344,-2.506106,0.000000,0.002000,0.000000
394.000000,0.002000,0.607123,-1.700408,-0.568148,-1.247783,0.069945,0.266312,-0.755832,2.796374,0.783296,nan,0.002000,0.000000
395.000000,0.002000,-0.155514,1.093420,-1.018520,0.233106,1.967205,-0.929586,0.260464,-2.494940,2.104385,0.000000,0.002000,0.000000
396.000000,0.002000,0.328530,1.013322,0.520049,0.734291,1.123883,-0.226912,-1.456578,-2.309263,-0.494304,nan,0.002000,0.000000
397.000000,0.002000,-0.749517,-0.285016,-0.051936,0.941483,2.198301,1.215051,2.488161,1.108950,-1.540537,0.000000,0.002000,0.000000
398.000000,0.002000,-0.371753,0.029904,-0.076348,4.181144,0.318812,-0.689088,0.830515,0.196842,0.261398,nan,0.002000,0.000000
399.000000,0.002000,-3.134485,1.820167,2.401518,1.339363,-0.137464,-0.699180,0.608652,-0.351862,-0.455719,0.000000,0.002000,0.000000
400.000000,0.002000,-1.103804,-0.908049,-0.228132,-0.689573,3.022046,-1.559219,1.811044,2.959054,1.169966,nan,0.002000,0.000000
401.000000,0.002000,10.171034,1.743117,-9.163260,0.910501,-0.008081,-0.745313,-0.076838,-0.012761,0.068972,0.000000,0.002000,0.000000
402.000000,0.002000,-0.449081,0.832542,0.682267,0.299774,0.671956,-2.456026,1.508885,-2.894259,-1.996207,nan,0.002000,0.000000
403.000000,0.002000,-5.309264,-0.313921,1.715798,0.838861,-0.206476,0.224384,0.538164,0.045239,-0.153397,0.000000,0.002000,0.000000
404.000000,0.002000,-0.208962,-0.149427,-2.616036,-0.608032,-0.337037,1.642983,0.106563,0.076899,1.809908,nan,0.002000,0.000000
405.000000,0.002000,-0.192719,-0.036961,-1.138643,-1.006177,-1.388640,-0.048523,0.330294,0.380171,2.939810,0.000000,0.002000,0.000000
406.000000,0.002000,-0.612012,0.825585,-0.670450,-0.552038,-0.836319,-1.546408,1.399202,-2.518714,1.497970,nan,0.002000,0.000000
407.000000,0.002000,-0.958610,-0.802010,-0.266838,-0.509699,-1.000000,-1.214653,3.322197,2.590120,0.218825,0.000000,0.002000,0.000000
408.000000,0.002000,-2.154845,1.154674,-0.984401,0.544638,0.765409,-0.027916,1.566226,-0.857213,0.795238,nan,0.002000,0.000000
409.000000,0.002000,-0.799299,0.538295,0.324635,2.031658,0.249404,-0.318793,2.182657,-1.951738,-0.969162,0.000000,0.002000,0.000000
410.000000,0.002000,0.999898,2.730986,0.438117,0.471546,1.808151,-0.749074,-0.512821,-1.487737,-0.210165,nan,0.002000,0.000000
411.000000,0.002000,-2.573154,-0.757115,2.197063,0.154654,-0.260825,-1.118340,0.889185,0.274210,-0.773320,0.000000,0.002000,0.000000
412.000000,0.002000,-8.125407,-6.292750,6.451619,-0.447339,-0.648798,0.330971,0.088013,0.069306,-0.069703,nan,0.002000,0.000000
413.000000,0.002000,1.409944,-0.290818,-0.012598,-0.261880,-0.476076,0.699261,-2.948278,0.673765,0.038142,0.000000,0.002000,0.000000
414.000000,0.002000,4.793761,2.055015,3.251610,-0.516109,0.383623,-0.321369,-0.351594,-0.128520,-0.229909,nan,0.002000,0.000000
415.000000,0.002000,-0.855711,-1.461476,0.303203,-1.250114,-0.808806,-1.227285,1.331302,2.623639,-0.412678,0.000000,0.002000,0.000000
416.000000,0.002000,-1.012836,-0.653643,-0.024187,-1.483894,0.342586,-2.219401,2.432229,1.585070,0.316953,nan,0.002000,0.000000
417.000000,0.002000,1.787682,4.595530,7.638501,0.091069,-0.116155,0.147354,-0.041047,-0.116181,-0.194895,0.000000,0.002000,0.000000
418.000000,0.002000,-0.314337,-0.303308,2.206393,0.244729,0.556077,1.631642,0.364865,0.342991,-2.322344,nan,0.002000,0.000000
419.000000,0.002000,5.580678,8.592175,-1.937924,0.410373,0.455930,-0.710726,-0.098851,-0.151389,0.038426,0.000000,0.002000,0.000000
420.000000,0.002000,2.392270,0.121916,1.850889,1.127660,0.310160,1.404167,-1.316355,-0.018006,-0.895179,nan,0.002000,0.000000
421.000000,0.002000,-0.021415,-0.318708,-0.729432,-0.058631,-0.540898,1.688337,-0.565856,0.660760,2.531781,0.000000,0.002000,0.000000
422.000000,0.002000,2.661633,1.669502,-0.701357,1.182765,0.956012,-0.543132,-1.090105,-0.628578,0.308120,nan,0.002000,0.000000
423.000000,0.002000,0.305131,-13.291910,10.206167,-0.081860,-1.387247,1.089153,-0.001629,0.055678,-0.043241,0.000000,0.002000,0.000000
424.000000,0.002000,-0.133542,6.612114,2.633650,0.333671,-0.089850,0.295950,0.007117,-0.325548,-0.134309,nan,0.002000,0.000000
425.000000,0.002000,-1.189433,0.490503,-0.272434,0.383010,-0.020433,2.325376,2.970391,-1.402754,0.850587,0.000000,0.002000,0.000000
426.000000,0.002000,-1.650535,1.453715,-0.544479,0.304365,-0.516084,1.225972,1.734002,-1.554569,0.595268,nan,0.002000,0.000000
427.000000,0.002000,-1.498739,1.489345,-0.024442,0.450711,1.980643,0.425476,2.136796,-1.128964,-0.518540,0.000000,0.002000,0.000000
428.000000,0.002000,0.638260,-0.725677,-1.389375,0.790432,-1.456221,1.622042,-1.053330,1.276233,2.387115,nan,0.002000,0.000000
429.000000,0.002000,0.171878,1.770568,-0.482939,1.616892,0.763416,-0.758934,-0.378669,-2.910456,0.718821,0.000000,0.002000,0.000000
430.000000,0.002000,7.066395,-4.121729,-3.283762,0.125591,-0.096849,0.185828,-0.184480,0.110970,0.087368,nan,0.002000,0.000000
431.000000,0.002000,-0.505907,-1.118983,1.000827,0.820972,-0.532876,-0.685121,1.003694,3.654068,-1.916247,0.000000,0.002000,0.000000
432.000000,0.002000,0.902964,3.465400,-2.656672,0.144998,-0.278492,0.077096,-0.151111,-0.644760,0.468381,nan,0.002000,0.000000
433.000000,0.002000,0.001201,-0.075666,-0.007137,-0.864082,-0.751288,-0.955696,0.292516,0.948666,0.243416,0.000000,0.002000,0.000000
434.000000,0.002000,0.435959,-2.723380,-2.429893,-1.780326,-0.620152,0.228069,-0.132169,0.800324,0.686724,nan,0.002000,0.000000
435.000000,0.002000,0.277657,0.880092,-0.821077,0.394518,-1.694118,-1.778097,-0.541499,-1.890079,1.515578,0.000000,0.002000,0.000000
436.000000,0.002000,-2.185340,-0.685010,-0.235066,-0.276918,-0.961881,1.484793,1.975731,0.671060,0.445053,nan,0.002000,0.000000
437.000000,0.002000,0.427911,-0.320114,0.709903,1.435035,-0.411268,1.565435,-1.123852,1.314785,-1.736724,0.000000,0.002000,0.000000
438.000000,0.002000,0.150230,0.089124,-0.192249,0.977220,1.181891,1.451174,-2.273688,1.227000,1.847322,nan,0.002000,0.000000
439.000000,0.002000,-0.430625,-0.532882,-1.325946,-0.946757,1.016534,-0.600126,0.916224,1.250744,2.755231,0.000000,0.002000,0.000000
440.000000,0.002000,-0.502097,0.207877,0.763317,-2.417457,-0.800735,-1.375028,0.886816,-0.757054,-2.020571,nan,0.002000,0.000000
441.000000,0.002000,0.496692,1.314061,0.533704,-1.141989,-0.455955,-1.688222,-1.127743,-2.846754,-1.067315,0.000000,0.002000,0.000000
442.000000,0.002000,0.035008,-0.642267,-0.445485,0.794391,-0.286040,-2.590196,-0.158448,2.265971,1.210416,nan,0.002000,0.000000
443.000000,0.002000,0.219536,-2.328135,0.722453,0.583213,-0.366420,0.720808,-0.162438,1.932542,-0.545972,0.000000,0.002000,0.000000
444.000000,0.002000,0.480102,0.480938,-0.273397,-1.733409,1.704708,-0.015432,-0.071764,-1.439111,2.331082,nan,0.002000,0.000000
445.000000,0.002000,0.803273,0.052021,-0.200178,-0.084153,-0.606403,2.039789,-2.796211,-0.207078,0.708111,0.000000,0.002000,0.000000
446.000000,0.002000,-0.365040,-1.062127,-2.198348,-0.261401,-0.081043,0.945455,0.316020,0.890766,1.790507,nan,0.002000,0.000000
447.000000,0.002000,-0.816177,1.142886,0.319537,1.342081,-1.500089,0.112455,1.952462,-2.464548,-0.526258,0.000000,0.002000,0.000000
448.000000,0.002000,2.506863,-0.660502,-2.975056,-0.556409,0.486826,-0.560746,-0.629504,0.183467,0.706653,nan,0.002000,0.000000
449.000000,0.002000,0.876760,-0.188549,0.990047,0.947790,-1.705398,0.707672,-2.055482,0.826496,-2.129558,0.000000,0.002000,0.000000
450.000000,0.002000,-0.411527,1.592739,-1.995317,-0.402126,0.377087,0.536973,0.388090,-1.222590,1.605445,nan,0.002000,0.000000
451.000000,0.002000,-0.758544,-7.813680,2.925268,-0.664859,-0.082444,0.893261,0.021374,0.235917,-0.089469,0.000000,0.002000,0.000000
452.000000,0.002000,-9.650090,6.797203,4.138193,-0.531812,0.834748,0.347823,0.098912,-0.070484,-0.041830,nan,0.002000,0.000000
453.000000,0.002000,1.995131,-0.912423,-0.298754,-2.371342,0.966439,-0.926145,-2.078337,0.986088,0.404471,0.000000,0.002000,0.000000
454.000000,0.002000,1.542301,1.065338,-0.994656,-0.449691,-1.084785,-0.512065,-1.912609,-1.144473,1.212491,nan,0.002000,0.000000
455.000000,0.002000,1.272237,4.612132,-0.361898,0.330732,0.110054,0.285412,-0.170250,-0.641804,0.093464,0.000000,0.002000,0.000000
456.000000,0.002000,0.727747,-0.241403,-0.381292,0.068327,1.007270,-1.178925,-2.223373,0.605336,1.737474,nan,0.002000,0.000000
457.000000,0.002000,1.372408,4.739934,-0.225808,0.039250,0.246160,-0.196355,-0.218107,-0.656208,0.019422,0.000000,0.002000,0.000000
458.000000,0.002000,-0.057605,-1.292594,0.627495,0.437194,0.191569,2.170761,0.073737,3.381556,-1.436757,nan,0.002000,0.000000
459.000000,0.002000,0.909838,-0.582015,-0.924644,1.162156,-1.572305,1.859496,-1.894227,1.140597,1.813910,0.000000,0.002000,0.000000
460.000000,0.002000,-0.944941,0.372109,-0.072508,-0.021083,-0.710239,-0.160756,2.338031,-1.152107,-0.158201,nan,0.002000,0.000000
461.000000,0.002000,1.009940,-0.645493,-1.648557,-1.329205,-0.438773,-1.401333,-1.814212,0.508437,2.322099,0.000000,0.002000,0.000000
462.000000,0.002000,0.416190,1.140105,2.132751,0.998486,-0.662635,-0.822088,-0.379930,-0.959362,-1.812423,nan,0.002000,0.000000
463.000000,0.002000,0.996964,0.011373,1.591445,0.591686,-1.337046,-0.301011,-1.383501,0.067930,-2.409281,0.000000,0.002000,0.000000
464.000000,0.002000,-1.311682,0.842890,-0.514154,1.274448,1.364431,-0.838497,1.885492,-2.332175,0.435318,nan,0.002000,0.000000
465.000000,0.002000,-0.136537,-1.242772,-2.924216,0.033779,0.732453,-1.023109,0.005114,0.520495,1.226815,0.000000,0.002000,0.000000
466.000000,0.002000,3.321262,-4.210363,-4.234679,-0.596145,0.331196,-0.264659,-0.187135,0.224513,0.215348,nan,0.002000,0.000000
467.000000,0.002000,-1.416098,-0.267474,-1.021319,1.207446,-0.137078,0.184681,2.426428,0.466515,1.839637,0.000000,0.002000,0.000000
468.000000,0.002000,-9.988124,2.581035,-1.697620,-0.688027,-0.009661,0.176355,0.168670,-0.045669,0.031395,nan,0.002000,0.000000
469.000000,0.002000,0.041679,-0.579897,0.792826,1.903982,-0.880584,0.865903,0.002036,2.606897,-2.412297,0.000000,0.002000,0.000000
470.000000,0.002000,-9.086256,-0.332996,0.288821,-0.388861,0.475715,0.005261,0.225090,0.008527,-0.008083,nan,0.002000,0.000000
471.000000,0.002000,-2.279216,0.929831,3.279258,0.147732,0.580722,-0.199420,0.516274,-0.205935,-0.744166,0.000000,0.002000,0.000000
472.000000,0.002000,-2.943903,2.017576,-2.879586,0.657559,-1.148917,-0.098518,0.461032,-0.276486,0.508745,nan,0.002000,0.000000
473.000000,0.002000,-11.617121,1.947924,9.844632,-1.565724,-0.220844,0.760924,0.063968,-0.010775,-0.054622,0.000000,0.002000,0.000000
474.000000,0.002000,1.243076,0.783037,0.263434,0.571125,-0.626974,2.300147,-2.164779,-1.555178,-0.932754,nan,0.002000,0.000000
475.000000,0.002000,-1.227333,-1.106613,-0.793074,-1.819863,0.054903,-0.443265,1.796398,1.936591,1.304046,0.000000,0.002000,0.000000
476.000000,0.002000,0.513592,0.091096,0.899415,-1.447887,2.804359,-2.006306,-1.363032,-0.081564,-2.669092,nan,0.002000,0.000000
477.000000,0.002000,0.376068,0.786425,0.866006,-1.736097,-0.082456,2.086637,-1.164672,-1.758704,-2.344473,0.000000,0.002000,0.000000
478.000000,0.002000,6.639777,12.260048,-5.099620,0.507924,1.212711,-0.494506,-0.040621,-0.074663,0.031709,nan,0.002000,0.000000
479.000000,0.002000,1.016879,-1.292903,-0.229931,0.929181,0.105958,1.895027,-2.461084,3.245514,0.816786,0.000000,0.002000,0.000000
480.000000,0.002000,-2.220765,-1.317465,0.381306,1.354162,1.975477,0.658180,1.584031,1.016874,-0.256435,nan,0.002000,0.000000
481.000000,0.002000,0.212638,2.528512,-2.646841,-0.892297,-0.012895,-0.478566,-0.070284,-0.717534,0.798021,0.000000,0.002000,0.000000
482.000000,0.002000,-1.390969,-3.657079,0.052704,-0.443907,-0.225365,-0.621494,0.308386,0.901455,-0.022754,nan,0.002000,0.000000
483.000000,0.002000,15.593269,-5.215911,-4.638445,1.654789,-0.567667,-0.427983,-0.062061,0.021087,0.018477,0.000000,0.002000,0.000000
484.000000,0.002000,-0.120308,-0.948341,0.729211,0.878369,1.632666,0.249632,0.909964,3.347465,-1.430603,nan,0.002000,0.000000
485.000000,0.002000,-0.200612,0.268662,-0.273883,-1.371685,-1.422686,0.992888,0.365761,-1.004236,0.551462,0.000000,0.002000,0.000000
486.000000,0.002000,0.386696,1.353762,2.791147,-0.854068,-0.557825,1.544371,-0.193296,-0.622138,-1.289368,nan,0.002000,0.000000
487.000000,0.002000,-0.582390,5.778322,5.601121,-0.281415,-0.365720,0.307312,0.022092,-0.198769,-0.198757,0.000000,0.002000,0.000000
488.000000,0.002000,-0.063882,0.041471,-1.021839,-2.542844,1.298598,-2.382660,-0.060360,0.256783,3.013921,nan,0.002000,0.000000
489.000000,0.002000,-0.192304,1.167685,-0.126566,-0.936766,0.730968,-2.658147,1.260248,-2.470290,-0.967587,0.000000,0.002000,0.000000
490.000000,0.002000,-3.345577,-1.014449,0.686094,0.405831,-0.393834,0.704213,1.118879,0.361859,-0.257558,nan,0.002000,0.000000
491.000000,0.002000,0.952900,0.475131,0.871979,-0.529364,0.871230,0.122894,-2.257341,-0.900872,-2.332238,0.000000,0.002000,0.000000
492.000000,0.002000,-0.337230,0.040518,-0.775761,1.493878,1.291177,1.179784,1.339386,-0.309343,2.825104,nan,0.002000,0.000000
493.000000,0.002000,-0.881996,0.409147,2.353447,1.016782,0.260835,0.367492,0.592985,0.011565,-2.166846,0.000000,0.002000,0.000000
494.000000,0.002000,-1.001836,0.518465,-0.324519,-1.326616,0.313815,0.543791,2.597505,-1.428190,1.139424,nan,0.002000,0.000000
495.000000,0.002000,-0.816294,0.288515,0.599154,-0.993637,0.169057,1.777500,1.617919,-0.866565,-1.956171,0.000000,0.002000,0.000000
496.000000,0.002000,2.830424,1.313075,-0.943935,-1.695300,-0.022173,1.129773,-1.099806,-0.467199,0.404940,nan,0.002000,0.000000
497.000000,0.002000,-1.347650,-13.764759,-5.361878,-0.680475,-1.038006,-0.209566,0.007702,0.083399,0.032326,0.000000,0.002000,0.000000
498.000000,0.002000,-0.862273,1.232783,-0.364456,-0.501899,-1.484110,0.803544,2.816111,-2.377945,0.526378,nan,0.002000,0.000000
499.000000,0.002000,1.001368,1.420959,-1.541833,2.154055,0.543451,-1.198299,-0.843005,-1.299049,1.461221,0.000000,0.002000,0.000000
500.000000,0.002000,0.726949,-0.390028,1.457490,-0.097727,-1.269173,-0.294059,-1.495087,0.772720,-2.727617,nan,0.002000,0.000000
501.000000,0.002000,0.612924,-0.016854,-0.670457,0.842414,0.558730,-1.466314,-1.529817,0.308664,2.277330,0.000000,0.002000,0.000000
502.000000,0.002000,0.505377,-1.458808,1.553368,1.400504,0.221237,0.143467,-0.585364,1.640710,-1.604513,nan,0.002000,0.000000
503.000000,0.002000,-0.134921,0.877132,0.932147,-0.294102,-1.472539,1.387465,0.069302,-2.180997,-2.282114,0.000000,0.002000,0.000000
504.000000,0.002000,-1.500988,-1.026137,1.143239,0.608262,-0.955596,1.416868,1.803976,1.364732,-1.434432,nan,0.002000,0.000000
505.000000,0.002000,1.292964,2.110061,1.238602,-0.078509,-0.000627,0.519533,-0.795470,-1.315676,-0.731579,0.000000,0.002000,0.000000
506.000000,0.002000,-0.930859,-1.665776,0.543384,-0.111328,1.160974,0.062283,1.192663,2.437058,-0.777836,nan,0.002000,0.000000
507.000000,0.002000,0.863457,-0.259629,1.191310,-1.523073,0.000521,2.583023,-1.950498,0.573816,-2.511093,0.000000,0.002000,0.000000
508.000000,0.002000,-2.421243,2.906453,-0.214491,-0.575201,0.975849,-0.820442,0.671558,-0.802088,0.044277,nan,0.002000,0.000000
509.000000,0.002000,1.126785,0.047808,2.000332,-0.908047,-0.897961,-1.725334,-1.130954,0.028394,-2.098075,0.000000,0.002000,0.000000
510.000000,0.002000,-6.062954,2.988634,5.906174,-0.080448,-0.159723,0.270646,0.157346,-0.075673,-0.156905,nan,0.002000,0.000000
511.000000,0.002000,6.314187,-3.112626,4.785502,-0.095448,0.553676,0.826325,-0.182000,0.093488,-0.143271,0.000000,0.002000,0.000000
512.000000,0.002000,1.157053,0.200269,0.508439,0.467692,-0.297994,-2.135583,-2.941389,-0.398191,-1.198998,nan,0.002000,0.000000
513.000000,0.002000,-4.521056,-0.832981,-8.405195,-0.547867,-0.162271,-0.205070,0.099603,0.017170,0.180318,0.000000,0.002000,0.000000
514.000000,0.002000,-0.449150,2.233576,-0.493832,1.045826,-0.265641,-0.639790,0.495752,-2.240294,0.467532,nan,0.002000,0.000000
515.000000,0.002000,-2.755928,8.733641,5.639800,-0.060002,0.377420,0.325921,0.044690,-0.133384,-0.090246,0.000000,0.002000,0.000000
516.000000,0.002000,0.848787,-0.222733,0.807887,-1.264387,0.046273,-0.066754,-2.729124,1.201854,-2.335658,nan,0.002000,0.000000
517.000000,0.002000,-0.237004,0.546564,1.096991,-0.719697,1.118766,-1.754616,0.882855,-1.047997,-3.205603,0.000000,0.002000,0.000000
518.000000,0.002000,-0.124338,0.869211,1.214713,-1.078144,-1.200494,1.092088,0.226165,-1.932648,-2.682875,nan,0.002000,0.000000
519.000000,0.002000,-0.039732,-0.220378,0.054894,1.199950,-2.892717,0.942256,0.328721,0.844388,0.158442,0.000000,0.002000,0.000000
520.000000,0.002000,-0.357217,-0.749467,0.049393,2.161315,-0.391075,1.221223,0.646831,2.243008,-0.421047,nan,0.002000,0.000000
521.000000,0.002000,0.267779,1.153446,0.096727,-2.148022,0.996636,1.838505,0.038000,-3.040515,0.283211,0.000000,0.002000,0.000000
522.000000,0.002000,0.833085,0.345941,0.377461,-0.426416,1.609996,0.958455,-2.733232,-0.961951,-1.513409,nan,0.002000,0.000000
523.000000,0.002000,0.699384,-0.566908,0.106504,0.214003,0.499974,2.405647,-1.834188,2.241419,-0.502797,0.000000,0.002000,0.000000
524.000000,0.002000,2.992048,3.789425,-0.542635,-0.713907,-0.847685,0.086018,-0.432653,-0.557157,0.077427,nan,0.002000,0.000000
525.000000,0.002000,-2.163348,-2.245980,-0.780000,0.828054,0.910836,-0.025108,0.854105,0.938985,0.348826,0.000000,0.002000,0.000000
526.000000,0.002000,-0.745315,-1.437201,0.346187,0.108372,-1.259288,1.130733,0.960702,2.703301,-0.602751,nan,0.002000,0.000000
527.000000,0.002000,-0.417674,-0.508013,-1.407560,-1.135535,-0.402873,-0.263456,0.720837,0.979362,3.105535,0.000000,0.002000,0.000000
528.000000,0.002000,-2.105485,0.818758,0.005593,-1.464010,-0.213216,2.333614,2.184152,-0.965314,0.010244,nan,0.002000,0.000000
529.000000,0.002000,-0.211012,1.361573,-1.048634,-1.069604,0.860700,0.412182,0.318077,-2.203359,1.919482,0.000000,0.002000,0.000000
530.000000,0.002000,1.441248,-11.132082,-4.460486,0.492998,-0.873497,-0.304052,-0.016579,0.121781,0.048062,nan,0.002000,0.000000
531.000000,0.002000,0.082618,0.256584,-4.222905,0.457862,0.016406,-0.092662,0.001934,-0.061464,0.838237,0.000000,0.002000,0.000000
532.000000,0.002000,-2.846626,0.550364,0.555437,0.088241,1.125523,1.279009,1.595367,-0.262074,-0.329297,nan,0.002000,0.000000
533.000000,0.002000,2.055754,-2.298430,1.947177,1.185022,-0.068812,-0.504015,-0.571401,0.616684,-0.529992,0.000000,0.002000,0.000000
534.000000,0.002000,0.362117,0.070322,0.743618,1.346032,-0.497085,-0.178803,-1.091554,-0.230347,-2.386297,nan,0.002000,0.000000
535.000000,0.002000,4.976117,4.532592,6.098844,0.049454,0.062527,0.011848,-0.125550,-0.109216,-0.152856,0.000000,0.002000,0.000000
536.000000,0.002000,0.229101,0.581533,0.052319,2.042211,3.404856,0.726304,-0.928348,-1.939068,-0.332278,nan,0.002000,0.000000
537.000000,0.002000,0.053110,-1.172766,1.328481,-1.045072,-2.094879,-0.042264,-0.231692,2.060993,-2.265698,0.000000,0.002000,0.000000
538.000000,0.002000,-1.676355,3.736519,0.404474,0.743276,-1.035161,-0.247282,0.363168,-0.817525,-0.081035,nan,0.002000,0.000000
539.000000,0.002000,-1.073681,-0.662508,0.315130,1.894937,0.476215,-2.944078,2.788458,2.039543,-0.874177,0.000000,0.002000,0.000000
540.000000,0.002000,-1.462074,0.906591,-0.316798,0.340678,-1.591848,0.009235,2.660611,-1.695909,0.627926,nan,0.002000,0.000000
541.000000,0.002000,-0.081116,-2.522922,-3.629610,0.092933,0.022361,-0.117428,0.073020,0.405524,0.690891,0.000000,0.002000,0.000000
542.000000,0.002000,0.072781,0.095102,1.696376,-2.354593,0.000270,0.867971,-0.298807,-0.232596,-3.083229,nan,0.002000,0.000000
543.000000,0.002000,0.834873,0.388659,1.363015,0.155662,1.005412,-0.028522,-1.970083,-0.583319,-2.254360,0.000000,0.002000,0.000000
544.000000,0.002000,0.363927,-1.097604,0.853614,0.370200,1.085656,-1.229056,-1.445003,2.424929,-1.884911,nan,0.002000,0.000000
545.000000,0.002000,-0.611236,1.514653,0.325036,-1.776338,2.209438,1.414589,0.522610,-2.088627,-0.691931,0.000000,0.002000,0.000000
546.000000,0.002000,-1.294717,0.161690,0.164621,-1.344444,0.467655,-1.124447,3.084484,-0.340714,-0.376592,nan,0.002000,0.000000
547.000000,0.002000,0.444744,1.310945,-1.241498,-0.165964,-0.223478,-0.206174,-0.808088,-1.912320,2.042275,0.000000,0.002000,0.000000
548.000000,0.002000,0.533556,-0.820908,-0.898936,0.131439,-2.477156,-2.418175,-1.034584,2.154309,1.642669,nan,0.002000,0.000000
549.000000,0.002000,0.176185,2.707288,-1.678575,1.658153,-1.208848,0.544760,-0.077602,-1.161632,0.734770,0.000000,0.002000,0.000000
550.000000,0.002000,0.093823,-1.209995,-0.067532,-0.822566,-1.462968,-2.319783,-0.171213,3.319845,0.194694,nan,0.002000,0.000000
551.000000,0.002000,6.235342,3.574682,0.795664,0.013940,-0.213172,-0.571042,-0.279518,-0.168389,-0.030865,0.000000,0.002000,0.000000
552.000000,0.002000,-0.713236,1.244551,1.357352,-1.115748,1.164728,-0.704556,1.057333,-1.706597,-1.939892,nan,0.002000,0.000000
553.000000,0.002000,4.580686,-3.387958,-4.687230,0.107893,-0.096680,0.553074,-0.199012,0.152018,0.200168,0.000000,0.002000,0.000000
554.000000,0.002000,-0.444351,-0.210497,-0.525885,-1.319936,-0.354344,-0.613228,0.955590,0.983645,2.188539,nan,0.002000,0.000000
555.000000,0.002000,0.850434,-1.364833,-0.809777,1.638292,-0.237587,-0.775584,-1.349703,2.279715,1.298519,0.000000,0.002000,0.000000
556.000000,0.002000,-0.071439,-0.869622,1.132197,0.811544,-1.788551,1.151933,0.070734,1.994515,-2.739909,nan,0.002000,0.000000
557.000000,0.002000,-0.762812,-0.054425,1.813819,-1.291738,-0.020895,-0.566559,0.860765,0.196688,-2.715495,0.000000,0.002000,0.000000
558.000000,0.002000,1.469947,-1.353651,1.548009,-1.292443,-0.260745,-2.116115,-1.121798,1.070504,-1.125632,nan,0.002000,0.000000
559.000000,0.002000,-1.039005,-1.320227,1.026416,-2.197230,-0.524265,-1.609574,1.445700,2.015371,-2.005857,0.000000,0.002000,0.000000
560.000000,0.002000,0.521965,3.799665,0.019460,-0.181353,-1.041357,1.415642,-0.106858,-1.009770,-0.005367,nan,0.002000,0.000000
561.000000,0.002000,0.379322,-0.165698,-0.980181,0.010547,2.547160,0.681046,-1.407984,0.506769,2.749125,0.000000,0.002000,0.000000
562.000000,0.002000,1.005257,5.214109,0.135994,1.103354,-0.414572,-0.022651,-0.103346,-0.592109,-0.021268,nan,0.002000,0.000000
563.000000,0.002000,-0.574120,0.381062,0.719151,-3.027522,2.503431,-0.010791,1.843370,-0.911290,-2.170481,0.000000,0.002000,0.000000
564.000000,0.002000,-0.865964,-0.908524,0.793623,-1.393408,2.844104,-1.390686,1.786837,2.032616,-1.446587,nan,0.002000,0.000000
565.000000,0.002000,0.817417,1.267991,0.557977,0.791425,-2.774551,-1.278063,-1.558468,-2.520724,-1.101472,0.000000,0.002000,0.000000
566.000000,0.002000,0.971967,-0.458242,-0.368514,-1.491709,-0.494817,2.048661,-2.799051,1.245581,0.803281,nan,0.002000,0.000000
567.000000,0.002000,6.289854,-1.659881,3.892157,-0.030338,0.152447,-0.395010,-0.250778,0.070000,-0.163936,0.000000,0.002000,0.000000
568.000000,0.002000,-0.158085,0.672561,-0.765089,0.530601,1.543437,-1.252318,0.191272,-1.781962,2.160851,nan,0.002000,0.000000
569.000000,0.002000,1.185411,-1.978046,-1.931512,-0.648346,1.270437,-0.609871,-0.553573,0.971991,0.915260,0.000000,0.002000,0.000000
570.000000,0.002000,-3.018358,2.193148,-2.795306,-1.249445,0.148490,-0.633999,0.495869,-0.353944,0.437895,nan,0.002000,0.000000
571.000000,0.002000,-0.587492,0.253472,1.360147,-0.823432,-1.836966,0.400015,0.674487,-0.308621,-3.480208,0.000000,0.002000,0.000000
572.000000,0.002000,4.049447,-2.383059,-0.592979,-1.229121,0.213663,-0.259626,-0.598960,0.378269,0.081534,nan,0.002000,0.000000
573.000000,0.002000,-0.314118,-0.427282,0.255777,-0.153005,-2.115987,1.139502,1.160960,1.132135,-0.442964,0.000000,0.002000,0.000000
574.000000,0.002000,1.440686,0.460354,0.931266,0.122926,-1.251142,-2.361309,-2.668108,-1.005879,-1.085837,nan,0.002000,0.000000
575.000000,0.002000,-0.604043,8.068788,1.457127,0.345897,0.030196,-0.118550,0.024691,-0.258682,-0.050033,0.000000,0.002000,0.000000
576.000000,0.002000,-1.331268,-0.600206,0.411354,-1.811067,0.879270,-0.375172,2.891531,1.522004,-0.983090,nan,0.002000,0.000000
577.000000,0.002000,-1.325897,0.197499,-0.275582,1.197862,-0.770048,-1.846379,2.888779,-0.381304,0.829409,0.000000,0.002000,0.000000
578.000000,0.002000,-1.287884,-0.517176,5.094819,0.387230,0.693919,0.525279,0.129584,0.061996,-0.552211,nan,0.002000,0.000000
579.000000,0.002000,-0.035198,1.502715,-1.780306,0.176229,0.926826,-2.362357,0.069526,-1.479275,1.714390,0.000000,0.002000,0.000000
580.000000,0.002000,0.283600,-0.608388,-0.329576,2.221243,-1.128517,1.745866,-0.009873,1.694649,0.307019,nan,0.002000,0.000000
581.000000,0.002000,1.040483,0.526463,-0.779456,-0.029834,-2.495256,0.138275,-2.741663,-1.628551,2.026275,0.000000,0.002000,0.000000
582.000000,0.002000,3.941065,3.794425,11.320417,0.149894,0.429188,0.871095,-0.039687,-0.035996,-0.112005,nan,0.002000,0.000000
583.000000,0.002000,2.868401,1.986341,-3.428623,-0.579359,-1.151397,-1.114317,-0.408214,-0.255102,0.480568,0.000000,0.002000,0.000000
584.000000,0.002000,-0.995056,1.510185,-0.295546,-0.509453,0.757898,1.045987,1.496634,-2.545842,0.398402,nan,0.002000,0.000000
585.000000,0.002000,2.191958,2.414040,-2.565926,-0.211816,0.659504,-0.541334,-0.464528,-0.498154,0.575134,0.000000,0.002000,0.000000
586.000000,0.002000,0.908793,-0.190851,-0.404925,-1.001259,-0.415132,1.231016,-2.442659,1.111964,2.034883,nan,0.002000,0.000000
587.000000,0.002000,0.030745,-0.683322,0.617490,-2.375455,-2.392040,1.791081,0.202868,1.909340,-1.619264,0.000000,0.002000,0.000000
588.000000,0.002000,-1.048825,1.066215,-1.626067,0.494877,-1.140852,0.447490,1.111997,-1.117718,1.632719,nan,0.002000,0.000000
589.000000,0.002000,0.608064,-3.802448,-0.980098,0.377401,0.036757,0.937467,-0.155351,0.876983,0.210151,0.000000,0.002000,0.000000
590.000000,0.002000,2.986864,2.970422,2.572161,-0.592047,-1.158373,0.043126,-0.425372,-0.400179,-0.368085,nan,0.002000,0.000000
591.000000,0.002000,0.253725,-0.681273,-0.046827,-2.270317,-0.616130,0.620498,-0.809481,1.273667,-0.092354,0.000000,0.002000,0.000000
592.000000,0.002000,-1.278439,-1.005901,-0.368035,0.095724,-0.223177,0.470422,2.402566,2.028012,0.855098,nan,0.002000,0.000000
593.000000,0.002000,-7.363400,3.931039,6.149652,-0.296587,0.332458,0.213590,0.125767,-0.063410,-0.105485,0.000000,0.002000,0.000000
594.000000,0.002000,-1.050946,-2.537097,3.310157,0.589752,1.437238,-0.137999,0.185248,0.511913,-0.610843,nan,0.002000,0.000000
595.000000,0.002000,0.734426,0.618268,0.414576,-2.043082,1.981218,-0.350726,-1.676360,-1.432151,-1.351016,0.000000,0.002000,0.000000
596.000000,0.002000,-6.830598,5.726687,0.261663,-0.133107,-0.158437,0.140492,0.179641,-0.149664,-0.006061,nan,0.002000,0.000000
597.000000,0.002000,0.154876,3.680005,0.919407,-0.924304,0.918130,-0.373712,-0.020309,-1.001365,-0.258030,0.000000,0.002000,0.000000
598.000000,0.002000,-0.471245,0.752743,-0.561864,-0.127203,-2.099407,-1.484789,1.682553,-2.025731,1.431614,nan,0.002000,0.000000
599.000000,0.002000,2.868158,1.115772,-2.344021,-0.527196,-0.552943,-0.538240,-0.738775,-0.310473,0.567343,0.000000,0.002000,0.000000
600.000000,0.002000,-0.401449,-2.300130,-0.009227,0.449661,-1.135651,0.489429,0.364107,2.144059,0.053607,nan,0.002000,0.000000
601.000000,0.002000,-0.983563,1.389445,1.009805,-0.998979,0.576124,-1.647983,1.523978,-2.046423,-1.221391,0.000000,0.002000,0.000000
602.000000,0.002000,-0.249020,-0.224794,0.652504,-1.706413,1.999859,-1.462586,0.528311,0.935639,-2.015926,nan,0.002000,0.000000
603.000000,0.002000,-3.427148,-2.829119,-3.008266,-0.209641,0.852973,0.662519,0.356881,0.305701,0.324033,0.000000,0.002000,0.000000
604.000000,0.002000,1.234616,1.219488,0.150870,0.037689,-1.065959,-0.009514,-2.150949,-2.123772,-0.036579,nan,0.002000,0.000000
605.000000,0.002000,-0.339727,0.437416,0.550401,2.851707,-0.299971,0.309109,1.135159,-1.306253,-1.534498,0.000000,0.002000,0.000000
606.000000,0.002000,8.267380,0.812062,-3.783401,0.280987,0.503716,-0.368283,-0.202929,-0.018144,0.094142,nan,0.002000,0.000000
607.000000,0.002000,1.662256,1.322518,-0.382536,0.481900,-0.226015,1.583614,-1.824523,-1.447924,0.447919,0.000000,0.002000,0.000000
608.000000,0.002000,-0.457268,1.415908,0.383696,0.349079,0.200528,1.071520,0.990439,-2.941763,-0.656181,nan,0.002000,0.000000
609.000000,0.002000,4.215590,2.670360,2.437959,-0.607224,-0.604288,-0.171760,-0.406358,-0.261003,-0.241888,0.000000,0.002000,0.000000
610.000000,0.002000,-0.797453,-0.030223,-0.246944,1.543588,1.847853,0.767960,2.308736,-0.052927,0.634952,nan,0.002000,0.000000
611.000000,0.002000,-0.027630,-0.790896,0.239565,-0.403102,0.202045,-2.316808,0.031789,2.587143,-0.287066,0.000000,0.002000,0.000000
612.000000,0.002000,-0.988307,0.405728,-0.209799,0.809044,-0.032662,1.303029,2.416656,-1.018512,1.009504,nan,0.002000,0.000000
613.000000,0.002000,-0.330261,0.747427,-1.331776,0.538798,1.001170,-1.063220,2.915489,-1.684904,0.253818,0.000000,0.002000,0.000000
614.000000,0.002000,0.302439,-0.224825,-0.863186,-1.477703,-0.413337,-2.129257,-1.905155,0.717325,1.854315,nan,0.002000,0.000000
615.000000,0.002000,0.817458,1.697756,0.988148,0.833691,-0.141875,1.089455,-0.873621,-2.059609,-1.250477,0.000000,0.002000,0.000000
616.000000,0.002000,-1.257043,-0.086802,0.016358,-0.260811,-0.236012,-2.364639,2.288337,0.293123,0.729061,nan,0.002000,0.000000
617.000000,0.002000,-1.129242,-0.089848,-1.120122,-0.976680,0.662766,-1.286349,1.957313,0.126122,2.212012,0.000000,0.002000,0.000000
618.000000,0.002000,-0.450202,-0.213921,-0.472203,0.886130,-1.507005,0.194910,1.298381,1.226538,0.629650,nan,0.002000,0.000000
619.000000,0.002000,1.456375,1.724048,-6.379992,-0.003589,-0.153013,0.503581,-0.079131,-0.095056,0.352855,0.000000,0.002000,0.000000
620.000000,0.002000,-0.192665,1.523963,0.746948,-0.751772,-0.978274,-1.028016,0.140396,-2.849979,-1.376914,nan,0.002000,0.000000
621.000000,0.002000,0.697601,-0.758076,1.338081,0.163821,2.122344,-0.921025,1.252452,4.746776,-1.934870,0.000000,0.002000,0.000000
622.000000,0.002000,0.888893,0.523721,-1.774581,1.212233,-1.203663,0.899469,-1.024398,-0.416137,2.131786,nan,0.002000,0.000000
623.000000,0.002000,0.011081,0.286685,-0.144310,-1.282525,1.437971,0.083046,-0.580342,-0.922935,0.241481,0.000000,0.002000,0.000000
624.000000,0.002000,-1.311853,0.227721,0.158573,0.217165,-1.848772,0.085949,2.947067,-1.050549,-0.428244,nan,0.002000,0.000000
625.000000,0.002000,1.867378,8.057195,3.479492,-0.057373,0.074773,0.218066,-0.048159,-0.204721,-0.091816,0.000000,0.002000,0.000000
626.000000,0.002000,0.512294,-0.375733,0.890885,1.706477,2.066019,-1.011216,-1.474766,1.191292,-2.760561,nan,0.002000,0.000000
627.000000,0.002000,0.467220,1.484461,-0.844405,1.001480,0.642954,0.770034,-0.755644,-2.504550,1.349491,0.000000,0.002000,0.000000
628.000000,0.002000,-0.185553,0.732874,-1.077302,1.674992,-1.631875,-1.644100,0.395066,-2.243418,2.656483,nan,0.002000,0.000000
629.000000,0.002000,-1.707593,0.701428,-0.384982,-0.905056,0.008552,2.228848,2.598725,-1.166272,0.661981,0.000000,0.002000,0.000000
630.000000,0.002000,0.097770,0.061174,-1.502431,-1.392749,-0.080555,1.735751,-0.459338,0.040041,3.279003,nan,0.002000,0.000000
631.000000,0.002000,-3.338969,-0.516749,-1.068304,-1.349286,-0.823609,-0.473049,1.068036,0.179969,0.382709,0.000000,0.002000,0.000000
632.000000,0.002000,-1.556696,-0.520956,1.129441,0.404556,1.195686,-0.453903,2.560354,0.444976,-2.553487,nan,0.002000,0.000000
633.000000,0.002000,3.838886,4.304762,-6.682102,0.411857,-0.207675,-0.093508,-0.104218,-0.113770,0.178269,0.000000,0.002000,0.000000
634.000000,0.002000,-1.874733,0.191127,-0.078072,-0.969540,-0.809352,1.456543,2.971848,-0.165840,0.104173,nan,0.002000,0.000000
635.000000,0.002000,0.612757,0.451372,1.260632,0.794338,-0.331560,1.749107,-1.228017,-0.841348,-2.474166,0.000000,0.002000,0.000000
636.000000,0.002000,-0.086012,-1.078121,0.467155,0.355088,1.187598,-0.905224,-0.072512,2.950780,-0.863901,nan,0.002000,0.000000
637.000000,0.002000,-1.179992,-1.114085,0.684539,-1.913778,-2.242037,-0.002643,1.421624,1.578306,-0.705004,0.000000,0.002000,0.000000
638.000000,0.002000,2.755514,0.307856,1.529491,-1.980895,-0.081792,-0.759051,-1.189525,-0.145212,-0.631828,nan,0.002000,0.000000
639.000000,0.002000,-0.274752,-0.119302,-0.751252,3.524751,-0.453781,-0.320187,0.663177,1.323063,1.452026,0.000000,0.002000,0.000000
640.000000,0.002000,-1.740437,-0.459206,-0.891514,1.268022,0.122782,0.268189,2.328652,0.788469,1.413445,nan,0.002000,0.000000
641.000000,0.002000,-0.711245,1.549839,1.391047,-0.905422,0.684548,-0.708651,0.984862,-1.583773,-1.364236,0.000000,0.002000,0.000000
642.000000,0.002000,0.020230,-0.140144,0.257979,0.416554,1.368263,2.528205,0.168859,0.647734,-0.479433,nan,0.002000,0.000000
643.000000,0.002000,0.881126,1.080932,0.549529,2.081101,-2.352390,-1.373591,-1.878994,-2.274346,-1.122374,0.000000,0.002000,0.000000
644.000000,0.002000,0.128326,-1.006338,-0.067613,1.999589,1.332861,-2.268971,-0.369964,3.024769,-0.098991,nan,0.002000,0.000000
645.000000,0.002000,0.192347,1.295841,0.122402,0.872605,-0.095908,-1.081801,-0.466196,-3.243546,-0.110889,0.000000,0.002000,0.000000
646.000000,0.002000,-1.105341,1.912977,3.715246,0.625833,-0.561844,-1.253505,0.231176,-0.362752,-0.746718,nan,0.002000,0.000000
647.000000,0.002000,-2.562479,2.930492,-1.626384,0.120645,-0.247228,-0.822102,0.529002,-0.602603,0.355163,0.000000,0.002000,0.000000
648.000000,0.002000,0.807055,-0.052831,-0.077052,0.832523,-3.234326,0.765237,-3.012530,0.254473,-0.043315,nan,0.002000,0.000000
649.000000,0.002000,-0.220116,-1.025187,-0.236457,-0.152977,-0.738839,-0.628593,0.519104,3.086015,0.569466,0.000000,0.002000,0.000000
650.000000,0.002000,-2.145387,-7.530696,0.301990,0.575531,-0.345655,-0.258069,0.076207,0.270899,-0.007613,nan,0.002000,0.000000
651.000000,0.002000,-7.998161,4.853437,5.011821,-0.651066,0.239392,-0.052008,0.125740,-0.074417,-0.077671,0.000000,0.002000,0.000000
652.000000,0.002000,1.177920,1.475419,0.241798,-0.820531,0.224775,1.307212,-2.050986,-2.312351,-0.441281,nan,0.002000,0.000000
653.000000,0.002000,-3.818208,8.609361,3.023635,-0.118366,0.281684,0.367496,0.076070,-0.168761,-0.058279,0.000000,0.002000,0.000000
654.000000,0.002000,0.621030,0.468827,2.208636,1.364405,-0.782021,0.322937,-0.653647,-0.466089,-2.122653,nan,0.002000,0.000000
655.000000,0.002000,-0.774639,-1.948678,-1.244024,1.545646,-1.720235,-0.353989,0.586142,1.626155,0.935152,0.000000,0.002000,0.000000
656.000000,0.002000,-0.638229,0.028993,-0.409331,-0.881865,0.472943,-3.175644,2.044075,-0.213671,1.204264,nan,0.002000,0.000000
657.000000,0.002000,0.837815,-0.399339,1.027528,-1.759455,0.569845,1.059585,-2.124107,0.904468,-2.200637,0.000000,0.002000,0.000000
658.000000,0.002000,0.538974,-0.052953,0.184351,-2.295291,0.057506,0.486162,2.099720,-0.119980,-2.134383,nan,0.002000,0.000000
659.000000,0.002000,-1.095771,-1.355483,-1.251611,0.231587,0.808573,1.986814,1.168584,1.712640,1.420291,0.000000,0.002000,0.000000
660.000000,0.002000,1.349058,0.306117,-0.487447,0.533702,-1.208014,-1.389377,-3.270438,-0.321778,1.545416,nan,0.002000,0.000000
661.000000,0.002000,-2.181875,0.678232,-0.202204,1.204338,0.555244,0.537945,2.219629,-0.751892,0.240793,0.000000,0.002000,0.000000
662.000000,0.002000,1.313885,-0.134205,-0.267186,2.349579,0.497825,2.532005,-3.090223,0.402870,0.437709,nan,0.002000,0.000000
663.000000,0.002000,2.371782,0.328653,-1.173725,-0.287249,-0.078141,-0.685004,-1.526344,-0.172956,0.772506,0.000000,0.002000,0.000000
664.000000,0.002000,1.169645,0.188315,-1.110180,-0.342147,1.306818,0.179895,-2.298859,-0.231061,2.470768,nan,0.002000,0.000000
665.000000,0.002000,-0.622968,1.250376,-0.079553,2.136022,0.238865,0.536360,-1.313961,-3.252352,0.205495,0.000000,0.002000,0.000000
666.000000,0.002000,0.505321,-0.021500,-1.789899,0.206642,-1.349721,-1.451678,-0.801200,0.128415,2.602513,nan,0.002000,0.000000
667.000000,0.002000,0.454509,1.887259,-1.064936,0.520942,0.798395,0.252374,-0.598301,-2.110570,1.210731,0.000000,0.002000,0.000000
668.000000,0.002000,-0.695893,1.729583,1.615957,-0.940488,0.757659,0.347610,0.619315,-1.494478,-1.459877,nan,0.002000,0.000000
669.000000,0.002000,-1.353954,-0.114708,-0.335844,0.738235,1.605465,2.016226,3.159673,0.139731,1.122850,0.000000,0.002000,0.000000
670.000000,0.002000,-0.259060,0.847028,0.289766,1.107309,1.482256,-1.411168,0.670449,-2.248904,-0.772096,nan,0.002000,0.000000
671.000000,0.002000,0.072541,-2.231824,-0.280481,0.590629,-0.514699,0.816626,-0.100041,2.225047,0.381564,0.000000,0.002000,0.000000
672.000000,0.002000,1.133578,0.578627,-0.327122,0.914303,0.131854,0.079253,-2.722266,-1.270869,0.948805,nan,0.002000,0.000000
673.000000,0.002000,-1.480914,0.142172,4.772857,-0.782568,1.459938,-0.385205,0.202189,-0.009456,-0.637439,0.000000,0.002000,0.000000
674.000000,0.002000,2.732531,6.051684,5.688102,0.204655,-0.136080,0.328521,-0.074169,-0.164992,-0.158520,nan,0.002000,0.000000
675.000000,0.002000,-0.623723,0.890518,-0.244386,-1.288905,-3.491052,-0.588035,1.212150,0.665007,1.708194,0.000000,0.002000,0.000000
676.000000,0.002000,-0.683929,-0.270178,0.407994,-2.159699,-0.776332,-0.337620,1.831276,1.051135,-1.234474,nan,0.002000,0.000000
677.000000,0.002000,0.029058,0.347012,-1.098903,1.446353,-0.013998,2.126610,-0.647207,-0.122145,3.199555,0.000000,0.002000,0.000000
678.000000,0.002000,0.410709,-0.889519,0.528268,-0.065803,1.809558,0.824024,-0.877930,2.586394,-1.068278,nan,0.002000,0.000000
679.000000,0.002000,-6.250678,3.195908,3.784932,0.282618,0.208257,-0.060825,0.232530,-0.086948,-0.150988,0.000000,0.002000,0.000000
680.000000,0.002000,-4.945619,-6.994432,1.832574,0.006726,-0.184406,0.227749,0.134808,0.191177,-0.049187,nan,0.002000,0.000000
681.000000,0.002000,-0.660471,-2.333490,1.560849,-0.584909,-0.057819,-0.136181,0.350511,1.314932,-0.849712,0.000000,0.002000,0.000000
682.000000,0.002000,0.081335,-0.001996,0.345116,1.306989,-2.049389,-0.165260,-0.588562,0.304093,-1.081184,nan,0.002000,0.000000
683.000000,0.002000,-1.355898,-2.777688,3.705887,0.043307,0.547053,-0.840374,0.196606,0.434845,-0.537707,0.000000,0.002000,0.000000
684.000000,0.002000,2.216577,-3.535057,0.727722,0.633970,-0.978734,0.111042,-0.444630,0.698163,-0.134536,nan,0.002000,0.000000
685.000000,0.002000,0.868743,1.202961,0.229692,-1.066347,1.596074,0.205595,-1.712727,-2.713990,-0.413917,0.000000,0.002000,0.000000
686.000000,0.002000,0.180538,-0.570346,-0.459712,-0.385543,0.643977,-2.576959,-0.853139,2.238274,1.521385,nan,0.002000,0.000000
687.000000,0.002000,-0.984824,-9.912779,-1.587344,-0.010171,-0.375677,0.312013,0.016277,0.180072,0.028386,0.000000,0.002000,0.000000
688.000000,0.002000,-0.275635,0.528577,-2.308643,0.483508,1.305463,-0.504454,0.245299,-0.389378,2.075338,nan,0.002000,0.000000
689.000000,0.002000,-0.102558,6.966308,3.669470,-0.297721,-0.108427,-0.223152,0.004072,-0.260032,-0.138412,0.000000,0.002000,0.000000
690.000000,0.002000,-0.376247,-3.153961,-8.244043,0.252146,-0.104000,-0.079833,0.011422,0.086969,0.216564,nan,0.002000,0.000000
691.000000,0.002000,-6.097177,-5.024873,1.242124,0.268028,0.029024,0.108632,0.214998,0.179680,-0.034205,0.000000,0.002000,0.000000
692.000000,0.002000,-0.448597,0.799795,-0.135908,0.788085,-0.708256,1.938649,1.192838,-2.278492,0.271821,nan,0.002000,0.000000
693.000000,0.002000,-0.434139,-0.585340,-0.632299,-1.064975,-1.652272,2.004303,1.136655,1.719911,1.973488,0.000000,0.002000,0.000000
694.000000,0.002000,1.323516,0.142594,0.906429,-1.646727,-1.734153,-0.346627,-2.440315,0.095920,-1.348654,nan,0.002000,0.000000
695.000000,0.002000,2.672606,2.681235,-0.638646,-0.674558,0.719685,0.081007,-0.671586,-0.738257,0.145994,0.000000,0.002000,0.000000
696.000000,0.002000,9.054587,0.854545,-3.401863,0.317384,-0.064676,-0.011105,-0.189288,-0.016442,0.069419,nan,0.002000,0.000000
697.000000,0.002000,2.410352,5.864281,0.227225,0.330509,-0.431938,0.358752,-0.166665,-0.399529,-0.016040,0.000000,0.002000,0.000000
698.000000,0.002000,-0.020202,0.609695,-0.511220,-0.319560,-0.092297,1.467352,-0.408636,-1.892562,1.593016,nan,0.002000,0.000000
699.000000,0.002000,-0.389619,-2.065263,0.301903,-0.482443,0.236130,0.038824,0.360403,2.174701,-0.337192,0.000000,0.002000,0.000000
700.000000,0.002000,0.220106,1.082766,1.485851,2.306664,0.343697,-0.460595,-0.417892,-1.695183,-2.389527,nan,0.002000,0.000000
701.000000,0.002000,0.526839,-0.776955,0.099480,-0.366227,-0.954206,-1.550136,-1.695788,2.541253,-0.185689,0.000000,0.002000,0.000000
702.000000,0.002000,-0.472927,0.998699,1.289092,2.842329,-1.658333,-0.028421,0.803406,-1.988831,-2.797638,nan,0.002000,0.000000
703.000000,0.002000,1.986541,-0.883370,0.262243,-0.817621,-0.579854,0.966291,-2.286007,0.966768,-0.342273,0.000000,0.002000,0.000000
704.000000,0.002000,6.264249,0.794395,-2.986859,-0.312752,0.337102,0.434821,-0.320391,-0.037762,0.157477,nan,0.002000,0.000000
705.000000,0.002000,3.411277,-0.462289,15.373082,0.392577,-0.178691,1.570324,-0.017288,0.002705,-0.077716,0.000000,0.002000,0.000000
706.000000,0.002000,-2.697806,0.022769,-2.156743,0.878859,-0.047537,1.742677,0.914482,-0.044751,0.758842,nan,0.002000,0.000000
707.000000,0.002000,0.374600,0.484828,1.763049,-2.211897,-0.124510,-2.067823,-0.697873,-0.674173,-2.749045,0.000000,0.002000,0.000000
708.000000,0.002000,-0.778244,-0.981224,0.692242,-0.138521,-0.736557,2.330406,1.859945,2.329997,-1.577568,nan,0.002000,0.000000
709.000000,0.002000,0.211253,1.197837,0.763548,-1.213687,-0.814589,-1.112443,-0.681983,-2.475931,-1.672540,0.000000,0.002000,0.000000
710.000000,0.002000,-0.239303,1.558902,-0.051563,0.300520,1.500938,1.035682,-0.163948,-3.299198,0.261855,nan,0.002000,0.000000
711.000000,0.002000,-4.938204,0.169199,2.374232,0.726810,-0.370853,0.839992,0.497369,-0.024361,-0.256019,0.000000,0.002000,0.000000
712.000000,0.002000,-0.961515,0.842041,-0.237446,-0.227979,-0.143180,0.284369,2.404233,-2.266458,0.420355,nan,0.002000,0.000000
713.000000,0.002000,-1.591217,-2.440218,1.571909,-0.475921,0.834070,-0.732175,0.545261,1.000965,-0.592391,0.000000,0.002000,0.000000
714.000000,0.002000,0.364082,0.215575,-0.751088,1.191476,2.790001,-0.376671,-1.590521,-0.995581,2.420335,nan,0.002000,0.000000
715.000000,0.002000,-4.006066,-7.275392,9.792966,-0.464605,-0.735944,0.624380,0.037117,0.067703,-0.089834,0.000000,0.002000,0.000000
716.000000,0.002000,-0.439779,-2.334192,-1.313031,-0.419836,1.825353,1.439681,0.224652,1.493582,0.790105,nan,0.002000,0.000000
717.000000,0.002000,2.962174,1.805766,-1.269397,0.745049,0.919674,0.106046,-0.832352,-0.487651,0.391326,0.000000,0.002000,0.000000
718.000000,0.002000,3.555818,1.534251,3.102481,-0.569425,-0.899780,-0.172034,-0.490452,-0.197961,-0.425295,nan,0.002000,0.000000
719.000000,0.002000,1.351276,2.125654,1.365853,-0.485979,1.564696,1.283933,-0.826951,-1.254290,-0.902332,0.000000,0.002000,0.000000
720.000000,0.002000,5.186177,1.326343,-1.870150,-0.882457,-0.404087,-0.139071,-0.484183,-0.123120,0.174789,nan,0.002000,0.000000
721.000000,0.002000,-0.302982,-1.260594,-0.172048,-0.669971,1.532439,-0.748821,0.395422,3.199655,0.402331,0.000000,0.002000,0.000000
722.000000,0.002000,2.109527,-0.571712,0.746441,0.689632,-0.222226,0.643866,-1.998521,0.745964,-0.667232,nan,0.002000,0.000000
723.000000,0.002000,-0.934335,0.239043,-0.086559,-1.458405,-2.057964,-0.619741,2.009129,0.639732,0.420179,0.000000,0.002000,0.000000
724.000000,0.002000,7.803643,-0.518639,-4.438255,0.545951,0.040996,0.240999,-0.203042,0.025736,0.114535,nan,0.002000,0.000000
725.000000,0.002000,-0.204685,0.009135,-0.758506,-0.463051,-2.569574,-0.061245,-3.168916,2.505173,4.501115,0.000000,0.002000,0.000000
726.000000,0.002000,1.190464,2.329577,2.178997,0.075148,0.599743,1.241471,-0.451765,-0.835602,-0.757998,nan,0.002000,0.000000
727.000000,0.002000,-1.011600,-1.295159,3.050226,0.763844,-0.556109,-0.534563,0.331482,0.458958,-1.065408,0.000000,0.002000,0.000000
728.000000,0.002000,-0.036894,1.457244,1.305812,1.328747,1.061873,-0.277069,-0.099506,-2.024226,-1.943737,nan,0.002000,0.000000
729.000000,0.002000,1.082502,-0.760223,0.324978,0.416484,2.381606,-0.389689,-2.645289,1.553571,-0.901159,0.000000,0.002000,0.000000
730.000000,0.002000,1.561800,-0.321630,-0.134380,-0.204129,2.374125,-0.191927,-3.007867,0.851442,0.155448,nan,0.002000,0.000000
731.000000,0.002000,1.594834,-0.001006,-0.420595,1.361330,0.686274,0.341408,-3.082342,-0.217869,0.966786,0.000000,0.002000,0.000000
732.000000,0.002000,1.666267,0.449991,-0.778911,-0.611458,1.749185,-0.213050,-2.487253,-0.485034,1.232009,nan,0.002000,0.000000
733.000000,0.002000,1.515550,5.361454,2.953068,-0.464166,0.065148,-0.747273,-0.108463,-0.369575,-0.210105,0.000000,0.002000,0.000000
734.000000,0.002000,-0.320293,-0.925523,-0.420373,-1.954954,0.777459,-0.651124,0.480300,2.874480,1.148937,nan,0.002000,0.000000
735.000000,0.002000,0.995072,0.278542,1.687847,1.962717,-0.520319,0.208334,-1.272627,-0.103921,-2.764251,0.000000,0.002000,0.000000
736.000000,0.002000,1.373640,-0.420003,-0.498168,0.327180,0.943957,-1.096272,-2.938003,0.886912,1.058437,nan,0.002000,0.000000
737.000000,0.002000,0.399535,0.594324,-1.183320,0.512341,0.261932,-0.609894,-1.319841,-1.307466,2.381661,0.000000,0.002000,0.000000
738.000000,0.002000,0.599211,-0.209727,-0.396331,3.234366,0.043396,-2.167844,-1.603222,0.593153,1.433463,nan,0.002000,0.000000
739.000000,0.002000,-3.519527,-2.177364,-3.432187,-0.320455,-0.557675,0.408635,0.363619,0.234097,0.359159,0.000000,0.002000,0.000000
740.000000,0.002000,-0.197650,0.822184,-0.422760,-0.114131,1.649780,-0.032496,0.628960,-2.552093,1.208170,nan,0.002000,0.000000
741.000000,0.002000,-0.334338,0.196745,-0.991826,2.216956,-0.960716,-0.931649,0.760451,-0.130206,3.030994,0.000000,0.002000,0.000000
742.000000,0.002000,-0.326988,-0.437989,-0.051585,-0.463848,-0.208126,-2.289034,1.088005,1.251779,0.131055,nan,0.002000,0.000000
743.000000,0.002000,1.864739,-1.434963,-0.659819,0.654099,0.247337,-1.130330,-1.442471,1.206840,0.566442,0.000000,0.002000,0.000000
744.000000,0.002000,-0.214050,0.871579,1.180992,-1.156730,1.315730,0.469485,0.410799,-1.781386,-2.353297,nan,0.002000,0.000000
745.000000,0.002000,4.904261,0.756224,-4.970615,-0.691414,0.531079,-0.451123,-0.316017,-0.094578,0.207652,0.000000,0.002000,0.000000
746.000000,0.002000,1.067926,0.553435,0.260150,3.062004,1.702423,0.144203,-2.987168,-1.224686,-0.933357,0.000000,0.002000,0.000000
747.000000,0.002000,-0.320973,-2.517075,-4.129232,-0.428871,1.131215,0.200411,0.061251,0.361568,0.567883,0.000000,0.002000,0.000000
748.000000,0.002000,1.529890,-4.564255,-0.671318,-0.062745,1.239112,0.384917,-0.211147,0.618003,0.084492,0.000000,0.002000,0.000000
749.000000,0.002000,8.270260,2.883820,3.506832,0.151180,-0.000705,0.133712,-0.185622,-0.062562,-0.080419,0.000000,0.002000,0.000000
750.000000,0.002000,-0.391530,0.513904,0.687956,-0.887333,-0.674424,0.427354,0.953675,-1.237733,-2.006077,0.000000,0.002000,0.000000
751.000000,0.002000,0.285457,-1.203006,0.901859,-1.035495,-2.104847,0.058808,-0.758024,2.933583,-2.402647,0.000000,0.002000,0.000000
752.000000,0.002000,-1.546551,-3.102646,-3.092474,0.916675,-0.597215,0.331699,0.329348,0.642795,0.417794,0.000000,0.002000,0.000000
753.000000,0.002000,0.807826,1.383987,-1.380081,-0.441147,-0.897472,0.855473,-1.049951,-1.525547,1.600580,0.000000,0.002000,0.000000
754.000000,0.002000,-1.801555,-1.482611,0.752952,0.910568,0.671343,-0.391229,1.562949,1.263608,-0.689204,0.000000,0.002000,0.000000
755.000000,0.002000,2.000111,-1.037382,1.791760,0.034536,0.819212,1.401148,-0.987431,0.698259,-0.963229,0.000000,0.002000,0.000000
756.000000,0.002000,0.196540,-2.001175,-0.044880,0.068429,2.669426,-1.040413,-0.353421,2.496938,0.114542,0.000000,0.002000,0.000000
757.000000,0.002000,-0.662793,0.067599,0.133877,3.546223,-0.275176,-0.596882,2.034167,0.021715,-0.106095,0.000000,0.002000,0.000000
758.000000,0.002000,0.180892,-0.353230,0.512632,-0.063557,-0.135098,-1.591067,-0.663908,0.987332,-1.189910,0.000000,0.002000,0.000000
759.000000,0.002000,0.247813,-1.612493,-0.502558,1.413562,0.655749,-0.434450,-0.372826,2.862880,0.863932,0.000000,0.002000,0.000000
760.000000,0.002000,0.099939,-1.744263,-0.218571,-1.976396,-0.759078,0.444579,-0.164681,2.991000,0.527197,0.000000,0.002000,0.000000
761.000000,0.002000,0.651471,-0.087063,1.679406,1.000318,-0.060525,-1.556062,-0.944471,0.213243,-2.636384,0.000000,0.002000,0.000000
762.000000,0.002000,1.464544,-1.955910,0.813122,-1.340954,0.302999,-1.130144,-0.827549,1.489659,-0.370244,0.000000,0.002000,0.000000
763.000000,0.002000,0.962534,1.810345,0.616412,0.492466,-1.078225,0.229874,-1.081909,-2.250652,-0.596282,0.000000,0.002000,0.000000
764.000000,0.002000,-1.059439,0.275304,0.542837,-0.982590,0.713638,-0.288988,3.783698,0.863081,-2.450375,0.000000,0.002000,0.000000
765.000000,0.002000,3.885957,1.409461,2.149497,-0.918276,-0.507504,0.743652,-0.644713,-0.212776,-0.348853,0.000000,0.002000,0.000000
766.000000,0.002000,-0.318072,-0.640452,-0.440841,-0.139372,1.605039,-2.227350,0.533784,2.298681,1.029937,0.000000,0.002000,0.000000
767.000000,0.002000,0.545624,-1.226401,-0.990402,2.460384,0.491498,-0.310605,-0.933528,2.283255,1.679010,0.000000,0.002000,0.000000
768.000000,0.002000,0.662270,-0.036825,0.345193,0.333169,2.625115,0.396284,-2.312446,0.536682,-1.656753,0.000000,0.002000,0.000000
769.000000,0.002000,-0.401286,0.214829,0.523435,-1.042623,0.233744,-0.190457,1.056316,-0.628154,-1.636067,0.000000,0.002000,0.000000
770.000000,0.002000,-0.358840,-1.456111,0.910035,1.724353,0.257972,0.099015,0.594503,2.641792,-1.328022,0.000000,0.002000,0.000000
771.000000,0.002000,-0.807695,7.622646,1.145392,0.121549,-0.177416,-0.116828,0.037831,-0.293802,-0.039445,0.000000,0.002000,0.000000
772.000000,0.002000,-0.269563,-0.453706,-4.088076,0.075954,0.841356,-0.384688,0.067740,0.103824,0.851115,0.000000,0.002000,0.000000
773.000000,0.002000,0.397387,1.951070,-2.451873,-0.253924,1.677032,-0.502595,-0.166875,-0.859680,1.111931,0.000000,0.002000,0.000000
774.000000,0.002000,-1.442682,-0.206271,0.358612,-1.318951,0.546960,-0.909499,3.207402,1.016489,-1.155656,0.000000,0.002000,0.000000
775.000000,0.002000,7.798337,-4.951871,2.718727,0.112726,-0.163441,0.250007,-0.164597,0.107069,-0.057626,0.000000,0.002000,0.000000
776.000000,0.002000,4.132460,-7.600192,-3.487234,0.374372,-0.091450,-0.432522,-0.094177,0.171951,0.076242,0.000000,0.002000,0.000000
777.000000,0.002000,-0.737682,-0.658057,1.032904,1.210558,-0.516440,2.314555,1.620075,1.596692,-1.879524,0.000000,0.002000,0.000000
778.000000,0.002000,-0.283873,-0.044801,1.645736,-0.776978,-0.976026,-0.533795,0.657527,-0.362420,-2.415307,0.000000,0.002000,0.000000
779.000000,0.002000,-0.468094,0.629283,0.769027,-2.783053,-0.987381,0.582532,0.974246,-1.180913,-2.148014,0.000000,0.002000,0.000000
780.000000,0.002000,-0.144646,-2.718369,1.143221,0.639268,-1.505625,0.796649,0.064164,1.386551,-0.553920,0.000000,0.002000,0.000000
781.000000,0.002000,-0.880130,0.006387,3.480600,0.704854,0.692052,-0.110862,0.282284,0.016826,-1.119948,0.000000,0.002000,0.000000
782.000000,0.002000,-1.165304,-0.423245,0.013733,0.280849,2.242178,-1.719323,2.973282,1.538147,-0.165050,0.000000,0.002000,0.000000
783.000000,0.002000,1.208011,-2.324249,-6.677026,0.132750,0.251097,0.454680,-0.055306,0.112870,0.314157,0.000000,0.002000,0.000000
784.000000,0.002000,-0.476151,-0.303849,1.050387,1.806752,-0.899039,1.866202,1.153279,0.895581,-2.131204,0.000000,0.002000,0.000000
785.000000,0.002000,2.543414,-3.848117,2.655988,0.109588,0.035038,-0.910851,-0.285941,0.413590,-0.254990,0.000000,0.002000,0.000000
786.000000,0.002000,-0.124172,0.735263,-1.946126,-1.654127,1.300166,-1.768304,0.154428,-0.743539,2.505541,0.000000,0.002000,0.000000
787.000000,0.002000,-0.440448,8.024265,-1.052743,-0.016856,0.169124,-0.461099,0.016410,-0.277872,0.039360,0.000000,0.002000,0.000000
788.000000,0.002000,1.065024,0.473651,0.979416,-0.681996,2.150119,-0.662715,-2.370049,-0.726291,-1.839691,0.000000,0.002000,0.000000
789.000000,0.002000,0.330706,0.853543,-1.398436,-0.346245,-0.343214,0.091386,-0.747467,-1.521222,2.795059,0.000000,0.002000,0.000000
790.000000,0.002000,-0.485992,-1.859447,1.612677,0.132103,0.768002,0.845150,0.348637,1.577799,-1.327888,0.000000,0.002000,0.000000
791.000000,0.002000,-6.147498,4.360965,1.728148,0.305577,0.037390,-0.280433,0.239267,-0.165642,-0.065608,0.000000,0.002000,0.000000
792.000000,0.002000,1.266063,-0.277509,1.045341,0.414466,1.528504,-0.270443,-2.278685,0.501781,-2.023291,0.000000,0.002000,0.000000
793.000000,0.002000,-1.579488,1.151480,-0.646259,0.720157,-0.912814,0.167287,1.920096,-1.469077,0.665772,0.000000,0.002000,0.000000
794.000000,0.002000,0.600826,0.599677,0.211331,-0.314586,2.634247,-1.852320,-1.288237,-2.549225,-1.216921,0.000000,0.002000,0.000000
795.000000,0.002000,-0.605106,-0.294098,3.241493,-0.034801,0.886518,-1.830440,0.281118,0.118062,-1.332592,0.000000,0.002000,0.000000
796.000000,0.002000,-2.092712,2.069316,3.102255,0.268138,0.567748,0.141441,0.423515,-0.436016,-0.630927,0.000000,0.002000,0.000000
797.000000,0.002000,0.140327,0.487650,-1.277955,0.338313,-0.904896,-0.405773,-0.674522,-0.157400,3.354527,0.000000,0.002000,0.000000
798.000000,0.002000,-0.381882,-1.440572,0.577329,-1.856064,0.227547,0.352665,0.791106,2.778215,-0.990274,0.000000,0.002000,0.000000
799.000000,0.002000,1.228552,0.015658,1.654440,1.389633,-1.678292,0.916398,-1.661879,0.073028,-2.064799,0.000000,0.002000,0.000000
800.000000,0.002000,0.886786,-0.517093,-0.144576,-0.851987,-1.863116,0.768801,-2.808342,1.770416,0.651506,0.000000,0.002000,0.000000
801.000000,0.002000,0.111271,0.532331,-1.226853,0.207998,-2.111532,0.316767,-1.179025,-0.793311,2.572348,0.000000,0.002000,0.000000
802.000000,0.002000,0.922453,1.060854,0.171065,0.532467,1.015051,0.110736,-2.159887,-2.319826,-0.399998,0.000000,0.002000,0.000000
803.000000,0.002000,4.055274,0.231538,-0.476754,-0.141587,-0.514523,-0.323447,-0.914709,-0.078477,0.126961,0.000000,0.002000,0.000000
804.000000,0.002000,-0.001638,-0.467470,1.310553,0.925231,-0.260633,-1.854131,-0.253390,0.869064,-2.966926,0.000000,0.002000,0.000000
805.000000,0.002000,-1.062388,1.459196,0.208935,-0.333282,-0.640565,-1.149241,1.706549,-2.107815,-0.319940,0.000000,0.002000,0.000000
806.000000,0.002000,-6.593544,-6.817088,-8.768553,-0.488812,-0.546936,-0.800230,0.060274,0.062165,0.080223,0.000000,0.002000,0.000000
807.000000,0.002000,-1.176734,-0.161436,0.298171,-0.194036,-1.998049,1.826358,2.625636,0.533259,-0.593913,0.000000,0.002000,0.000000
808.000000,0.002000,-0.666690,-0.607593,-0.809051,0.599825,-0.891500,1.274260,1.388273,0.821962,3.313701,0.000000,0.002000,0.000000
809.000000,0.002000,1.316808,0.010764,1.058562,0.730607,-0.979101,-1.036013,-2.354820,0.860271,-1.335915,0.000000,0.002000,0.000000
810.000000,0.002000,-0.062538,0.636954,0.345175,-2.103014,-0.847711,-0.291023,0.210337,-1.628318,-0.944855,0.000000,0.002000,0.000000
811.000000,0.002000,0.384441,-1.462441,-1.767584,0.202432,0.694020,-1.390840,-0.400094,1.507063,1.576307,0.000000,0.002000,0.000000
812.000000,0.002000,-1.712593,-0.126988,0.099368,-1.229251,0.594438,1.400643,3.149269,0.520986,-0.166798,0.000000,0.002000,0.000000
813.000000,0.002000,2.267307,0.789851,-0.962994,0.978313,-0.015200,-0.028232,-1.645230,-0.507875,0.722945,0.000000,0.002000,0.000000
814.000000,0.002000,0.340188,0.763612,0.201260,1.189134,1.386659,2.478437,-1.902351,-2.583402,-1.035412,0.000000,0.002000,0.000000
815.000000,0.002000,-0.292055,1.928052,-0.975206,-0.631286,-0.613706,0.452214,0.465722,-2.224967,1.163709,0.000000,0.002000,0.000000
816.000000,0.002000,0.252550,-1.141441,0.843523,1.323452,1.180370,-1.032037,-0.765900,2.504856,-1.836337,0.000000,0.002000,0.000000
817.000000,0.002000,3.167300,-1.697285,2.632488,0.063356,-0.171981,-0.302437,-0.559620,0.327350,-0.456016,0.000000,0.002000,0.000000
818.000000,0.002000,-0.599000,5.400234,-3.123479,0.785577,-0.444302,-0.088797,0.044811,-0.365265,0.226665,0.000000,0.002000,0.000000
819.000000,0.002000,0.236041,0.927349,-1.624831,1.264861,-0.587156,-0.035045,-0.371967,-1.252364,2.512771,0.000000,0.002000,0.000000
820.000000,0.002000,-0.833202,1.163436,2.699278,-0.180205,0.468509,1.835387,0.422310,-0.564991,-1.288029,0.000000,0.002000,0.000000
821.000000,0.002000,0.204210,-3.967103,-1.649991,0.560546,-0.310900,-0.410134,-0.031440,0.758735,0.319373,0.000000,0.002000,0.000000
822.000000,0.002000,4.826294,-3.743023,2.803436,-0.063259,0.113370,-0.266530,-0.260623,0.234432,-0.144227,0.000000,0.002000,0.000000
823.000000,0.002000,0.502533,2.039309,4.359955,-0.204989,-0.028244,-1.188463,-0.061952,-0.289759,-0.607147,0.000000,0.002000,0.000000
824.000000,0.002000,-0.252367,0.539582,0.126341,-0.477838,2.489902,-1.980662,0.855922,-1.655461,-0.707785,0.000000,0.002000,0.000000
825.000000,0.002000,5.471619,-2.207009,-4.596691,-0.468887,-0.415114,-0.795516,-0.228975,0.090018,0.190982,0.000000,0.002000,0.000000
826.000000,0.002000,-0.009152,1.109324,1.780988,-1.142579,-0.051075,-0.694358,-0.007844,-1.366793,-2.260208,0.000000,0.002000,0.000000
827.000000,0.002000,-1.907431,-0.692497,-0.523263,-0.093149,0.926947,-0.145003,2.372147,0.967152,0.726805,0.000000,0.002000,0.000000
828.000000,0.002000,-1.107007,0.140094,0.920130,0.565559,2.187974,-0.782547,2.425144,-0.315889,-2.390657,0.000000,0.002000,0.000000
829.000000,0.002000,-2.275359,-1.794067,-4.997928,-0.159004,-0.053013,0.905314,0.191958,0.151757,0.431026,0.000000,0.002000,0.000000
830.000000,0.002000,-0.129802,-0.321170,0.244225,0.841905,3.283980,-0.280768,0.496102,0.889701,-0.962154,0.000000,0.002000,0.000000
831.000000,0.002000,0.779078,-1.190376,-0.285900,-0.618936,0.378378,-2.510173,-1.605835,2.952652,0.834337,0.000000,0.002000,0.000000
832.000000,0.002000,1.138042,-1.979918,0.639158,-0.413624,0.099369,-0.177635,-0.983934,1.813657,-0.542670,0.000000,0.002000,0.000000
833.000000,0.002000,-0.305125,-0.047563,-0.728484,-0.666723,1.272998,-2.392786,1.609710,0.447585,2.461313,0.000000,0.002000,0.000000
834.000000,0.002000,-1.067549,1.738587,-0.017537,0.735221,0.852423,-0.612128,1.305313,-1.790353,-0.022498,0.000000,0.002000,0.000000
835.000000,0.002000,2.982934,1.152614,1.126968,-0.843216,-1.475131,-1.042849,-1.132809,-0.349125,-0.411099,0.000000,0.002000,0.000000
836.000000,0.002000,-0.814921,-2.747938,1.115447,0.008613,1.467029,-1.120335,0.022358,1.420021,-0.677804,0.000000,0.002000,0.000000
837.000000,0.002000,0.012588,0.144504,-1.441434,1.142431,-0.033281,-1.860103,-0.519633,-0.420787,3.431562,0.000000,0.002000,0.000000
838.000000,0.002000,-1.516879,0.198450,-0.766436,2.255133,0.607421,-0.389391,2.744121,-0.302330,1.398609,0.000000,0.002000,0.000000
839.000000,0.002000,-1.751954,-0.660806,-0.966620,0.191597,0.452372,0.359605,2.158217,0.906492,1.310109,0.000000,0.002000,0.000000
840.000000,0.002000,-0.222591,1.565843,-2.159470,0.668207,-0.440447,-0.460981,0.177208,-1.036458,1.572923,0.000000,0.002000,0.000000
841.000000,0.002000,-0.751574,0.390473,1.285971,-1.019246,-0.549469,-2.216441,1.722712,-1.011911,-2.469499,0.000000,0.002000,0.000000
842.000000,0.002000,-0.369652,0.177918,-0.329919,1.075160,1.376204,-1.469946,1.443914,-0.699035,1.057896,0.000000,0.002000,0.000000
843.000000,0.002000,-0.882189,0.218056,0.326405,-0.609200,-0.409102,-0.138021,2.444027,-0.746103,-0.787468,0.000000,0.002000,0.000000
844.000000,0.002000,-1.309536,-0.674108,-1.161784,-0.266560,-0.055891,-0.895192,1.990609,1.289253,2.217364,0.000000,0.002000,0.000000
845.000000,0.002000,-0.554305,-3.943746,-0.541624,-0.857596,1.178267,-0.489805,0.117797,0.893116,0.110359,0.000000,0.002000,0.000000
846.000000,0.002000,0.546751,0.782666,0.345087,0.595394,1.994417,-0.820623,-1.769406,-1.974776,-1.100987,0.000000,0.002000,0.000000
847.000000,0.002000,-5.636492,3.477568,-1.351144,0.168210,-0.561058,0.260111,0.313591,-0.197432,0.078977,0.000000,0.002000,0.000000
848.000000,0.002000,0.899500,-1.705114,0.841963,-0.328034,-0.119462,-0.951407,-1.176176,1.986003,-0.990627,0.000000,0.002000,0.000000
849.000000,0.002000,1.178486,5.062879,-4.788825,0.484741,-0.089582,0.186065,-0.063874,-0.250356,0.239754,0.000000,0.002000,0.000000
850.000000,0.002000,-1.378336,-0.242613,-0.207496,-2.317217,-0.548649,-0.550875,3.196840,0.729172,0.452526,0.000000,0.002000,0.000000
851.000000,0.002000,0.269824,0.626278,2.111772,0.844798,0.810724,0.148234,-0.328021,-0.670908,-2.246085,0.000000,0.002000,0.000000
852.000000,0.002000,0.788172,0.740840,0.752641,-1.111856,0.145729,1.097998,-1.674678,-1.605277,-1.804642,0.000000,0.002000,0.000000
853.000000,0.002000,0.871359,0.811869,-0.022686,1.598617,-1.740722,-0.558679,-2.386022,-2.161047,0.424646,0.000000,0.002000,0.000000
854.000000,0.002000,1.300862,0.333757,-0.464717,0.320925,1.008406,1.365007,-2.378967,-0.894205,0.984274,0.000000,0.002000,0.000000
855.000000,0.002000,-1.316123,-0.470847,-0.286715,-1.649137,2.296754,0.780703,2.414937,1.448268,1.448405,0.000000,0.002000,0.000000
856.000000,0.002000,-0.863405,0.775278,0.092558,1.178024,-0.439424,1.579153,1.255211,-2.341120,0.121937,0.000000,0.002000,0.000000
857.000000,0.002000,0.845064,-0.014619,1.106248,-0.206278,-0.476811,-2.285011,-1.859939,-0.059967,-2.479767,0.000000,0.002000,0.000000
858.000000,0.002000,1.405659,0.555969,0.824817,1.264005,0.213008,1.956699,-2.434909,-0.920771,-1.249091,0.000000,0.002000,0.000000
859.000000,0.002000,-1.333173,0.911281,-0.113932,1.157064,-2.731895,1.409148,2.716103,-1.885109,-0.083209,0.000000,0.002000,0.000000
860.000000,0.002000,-0.146544,-0.893614,-0.776239,0.681536,-0.855414,1.289650,0.177080,2.538785,1.900552,0.000000,0.002000,0.000000
861.000000,0.002000,2.074141,-4.069893,2.250792,-1.201715,-0.448384,-0.233788,-0.250771,0.499740,-0.264070,0.000000,0.002000,0.000000
862.000000,0.002000,1.127724,0.202644,0.142355,1.395331,1.532478,-1.117937,-2.924947,-0.746860,-0.164025,0.000000,0.002000,0.000000
863.000000,0.002000,-2.611885,-0.560999,0.998507,1.332872,1.589191,-1.019077,1.499424,0.342378,-0.606006,0.000000,0.002000,0.000000
864.000000,0.002000,-4.035522,-12.247442,1.205400,-0.147686,-1.016048,-0.107692,0.036778,0.110568,-0.012756,0.000000,0.002000,0.000000
865.000000,0.002000,1.169098,-0.147311,-4.343088,0.013650,-0.754444,1.150123,-0.204310,0.034189,0.741267,0.000000,0.002000,0.000000
866.000000,0.002000,-1.378639,-0.958362,1.307779,0.977794,-0.119401,-1.367910,1.726995,1.715470,-1.483880,0.000000,0.002000,0.000000
867.000000,0.002000,0.382776,0.196034,0.222255,-3.350405,-2.402203,-0.182187,-1.430114,-1.080559,-0.635369,0.000000,0.002000,0.000000
868.000000,0.002000,0.133704,-0.366033,-1.283236,-1.178995,2.198634,-1.538591,-0.199638,0.856598,3.314641,0.000000,0.002000,0.000000
869.000000,0.002000,0.614473,-1.192329,1.490316,-0.084806,0.963469,0.604116,-0.886545,1.684609,-1.877242,0.000000,0.002000,0.000000
870.000000,0.002000,0.348538,1.122411,-0.197975,-0.623333,1.815517,2.315214,-0.967373,-2.803262,0.500352,0.000000,0.002000,0.000000
871.000000,0.002000,-0.234638,1.021865,-0.997192,0.275490,-1.554383,-1.336733,0.699348,-2.179937,2.111926,0.000000,0.002000,0.000000
872.000000,0.002000,-2.756045,-5.692413,0.054942,0.314751,0.362102,-0.170959,0.179567,0.377350,-0.002196,0.000000,0.002000,0.000000
873.000000,0.002000,1.143092,4.826077,8.535450,0.053627,0.189839,0.288795,-0.020742,-0.094362,-0.169579,0.000000,0.002000,0.000000
874.000000,0.002000,-3.522997,-4.819491,-7.993028,-0.156445,-0.203132,-0.196451,0.067008,0.089807,0.151436,0.000000,0.002000,0.000000
875.000000,0.002000,-0.442166,3.153441,1.672512,0.042051,1.188066,0.597805,0.149014,-0.975676,-0.498343,0.000000,0.002000,0.000000
876.000000,0.002000,-1.657898,0.206858,-0.310974,1.842649,0.064789,0.873245,3.049612,0.391664,1.167687,0.000000,0.002000,0.000000
877.000000,0.002000,-3.037043,-1.404237,7.197771,0.338444,0.047259,0.052262,0.108395,0.052116,-0.263422,0.000000,0.002000,0.000000
878.000000,0.002000,3.041589,0.115706,1.357513,1.305835,-0.065668,-0.223460,-1.170838,-0.043323,-0.512152,0.000000,0.002000,0.000000
879.000000,0.002000,-0.493914,1.085166,1.030284,0.189724,0.027650,0.117276,0.926100,-2.124987,-1.911762,0.000000,0.002000,0.000000
880.000000,0.002000,-3.743657,0.615603,2.169353,0.994250,-0.114541,-1.130280,0.706604,-0.113337,-0.408993,0.000000,0.002000,0.000000
881.000000,0.002000,0.774607,0.823002,0.265930,1.004090,1.424043,0.082015,-1.864907,-1.932720,-0.426240,0.000000,0.002000,0.000000
882.000000,0.002000,0.531492,0.092678,1.135656,0.609914,3.303144,1.171739,-1.213814,0.114759,-2.691963,0.000000,0.002000,0.000000
883.000000,0.002000,-1.287367,0.583191,-1.096777,-1.879015,1.007005,-0.156076,2.002099,-0.974336,2.050372,0.000000,0.002000,0.000000
884.000000,0.002000,0.682915,0.064303,0.282540,-2.210796,0.383059,-0.555420,-2.971563,-1.259709,-1.355020,0.000000,0.002000,0.000000
885.000000,0.002000,-7.934990,-3.283880,0.105840,-0.028257,-0.194899,-0.326957,0.230881,0.100601,-0.004145,0.000000,0.002000,0.000000
886.000000,0.002000,-1.753808,1.627259,0.119052,1.031085,0.387185,0.433916,1.661784,-1.495041,-0.166683,0.000000,0.002000,0.000000
887.000000,0.002000,-1.939201,-0.867219,0.598753,-0.003900,-0.907295,1.054845,2.120412,1.020151,-0.683206,0.000000,0.002000,0.000000
888.000000,0.002000,-5.312077,-5.838719,2.282901,-0.044937,0.237742,0.154987,0.167628,0.193137,-0.076786,0.000000,0.002000,0.000000
889.000000,0.002000,0.423270,-0.065081,-0.627276,-0.399645,-0.978517,1.278146,-1.425927,0.576974,1.887278,0.000000,0.002000,0.000000
890.000000,0.002000,10.993917,1.415739,1.724537,0.707426,0.227633,0.407473,-0.152948,-0.018159,-0.025509,0.000000,0.002000,0.000000
891.000000,0.002000,-1.919261,0.371277,-2.230288,0.115758,1.033358,0.855511,0.950929,-0.188790,1.190089,0.000000,0.002000,0.000000
892.000000,0.002000,0.800183,1.096882,0.680956,0.323194,0.311746,-1.297299,-1.573832,-2.305064,-1.496582,0.000000,0.002000,0.000000
893.000000,0.002000,4.311924,0.573707,-2.636645,-0.476113,-1.011447,0.401719,-0.525522,-0.056676,0.333488,0.000000,0.002000,0.000000
894.000000,0.002000,-0.379938,1.051289,0.814232,-0.798618,1.231361,-2.006549,1.057209,-1.594853,-2.102674,0.000000,0.002000,0.000000
895.000000,0.002000,1.804212,-0.693040,2.410808,1.641461,0.479992,0.687614,-0.850675,0.360470,-1.083002,0.000000,0.002000,0.000000
896.000000,0.002000,-0.516098,1.577659,0.278207,1.089269,1.010381,0.768986,0.808965,-3.111227,-0.456701,0.000000,0.002000,0.000000
897.000000,0.002000,0.440210,-0.245774,0.118298,-0.912727,-1.074347,0.628767,-1.429488,0.766774,-1.038626,0.000000,0.002000,0.000000
898.000000,0.002000,0.416662,5.645907,5.879825,0.050537,-0.326391,0.038769,-0.016900,-0.188734,-0.200094,0.000000,0.002000,0.000000
899.000000,0.002000,0.580880,1.249955,0.949261,-0.064441,-0.658696,0.880807,-1.011925,-2.152256,-1.819258,0.000000,0.002000,0.000000
900.000000,0.002000,-3.161995,-0.458513,-2.520011,0.186502,-0.372666,0.382764,0.699689,0.101264,0.571896,0.000000,0.002000,0.000000
901.000000,0.002000,1.923040,3.704177,-5.268038,-0.364182,-0.411419,-0.335013,-0.109856,-0.213727,0.303378,0.000000,0.002000,0.000000
902.000000,0.002000,1.111925,-1.041441,0.153263,-0.507683,0.649341,0.137222,-2.662300,2.101334,0.088541,0.000000,0.002000,0.000000
903.000000,0.002000,-1.646129,0.271197,-0.244751,0.390031,-1.022771,0.506582,2.361256,0.440186,0.320369,0.000000,0.002000,0.000000
904.000000,0.002000,1.782193,-0.861355,0.038271,-0.837477,0.438765,-0.462139,-2.405597,1.166131,0.067766,0.000000,0.002000,0.000000
905.000000,0.002000,-0.688266,-1.050016,0.461209,-0.218532,0.327522,2.597694,2.361381,-0.173015,-2.303546,0.000000,0.002000,0.000000
906.000000,0.002000,-1.296506,-2.048405,-0.212754,1.360472,1.581479,-1.486372,0.925699,1.820142,0.233172,0.000000,0.002000,0.000000
907.000000,0.002000,-1.214008,0.254759,-0.514833,0.475352,1.228700,-1.898493,2.755399,-0.495799,1.703079,0.000000,0.002000,0.000000
908.000000,0.002000,1.158755,0.638344,-1.797447,-0.827254,0.959337,0.386911,-1.321323,-0.555863,1.903124,0.000000,0.002000,0.000000
909.000000,0.002000,0.682578,0.983564,-0.531798,-2.152463,0.808473,-0.037628,-1.823445,-2.217251,1.309046,0.000000,0.002000,0.000000
910.000000,0.002000,1.767218,-4.979477,2.626763,-0.741138,0.138859,0.585993,-0.155858,0.412184,-0.198566,0.000000,0.002000,0.000000
911.000000,0.002000,2.580896,-1.019546,-1.611889,-0.815361,0.217839,0.709192,-0.988564,0.448986,0.671296,0.000000,0.002000,0.000000
912.000000,0.002000,5.701701,3.305784,-9.165797,0.320909,0.215518,-0.516013,-0.076718,-0.043761,0.122346,0.000000,0.002000,0.000000
913.000000,0.002000,0.319044,-1.135057,1.763983,1.672603,1.280363,-1.793300,-0.439332,1.445076,-2.051990,0.000000,0.002000,0.000000
914.000000,0.002000,0.413646,-1.743328,0.499864,-1.358330,0.379879,0.926509,-0.620460,2.654489,-0.661553,0.000000,0.002000,0.000000
915.000000,0.002000,-0.761357,-1.372356,-0.668972,-0.921550,-0.123503,0.533895,1.224542,2.599070,1.176567,0.000000,0.002000,0.000000
916.000000,0.002000,-0.167421,0.019761,-0.351664,2.309341,1.352611,-0.784665,0.283949,0.381505,1.051164,0.000000,0.002000,0.000000
917.000000,0.002000,0.025367,-2.613821,-3.569777,-0.540355,-0.263918,1.354046,-0.063204,0.521229,0.603313,0.000000,0.002000,0.000000
918.000000,0.002000,-0.206723,0.281909,-0.637510,2.017882,1.342815,-0.418781,0.656753,-0.241584,2.275537,0.000000,0.002000,0.000000
919.000000,0.002000,-0.838367,-0.520785,0.238056,-0.171680,0.150784,-2.057674,2.286393,0.956811,-0.839037,0.000000,0.002000,0.000000
