# 
#                 columns are tag, mass, x, y, z, vx, vy, vz, ax, ay, az, EK, EU, E
#                 Time=2.000000
# 
1.000000,0.002000,-1.638847,0.712786,0.647454,-1.302060,1.719516,2.125117,3.453794,-1.585472,-1.390913,80.056427,-163.775106,-83.718679
2.000000,0.002000,-1.295541,1.507222,-3.461351,-1.823048,-0.942503,-0.085612,0.405890,-0.469475,1.086144,0.000000,0.000000,0.000000
3.000000,0.002000,-0.495549,0.695118,-0.297420,2.512204,-2.058404,0.708151,6.521908,-9.106688,3.907829,0.000000,0.000000,0.000000
4.000000,0.002000,0.229020,1.072091,0.319387,-0.481727,0.364082,-2.172330,-1.911834,-8.299903,-2.480588,0.000000,0.000000,0.000000
5.000000,0.002000,0.366755,0.140909,-0.309561,0.434598,-0.262707,2.349106,-13.749451,-5.048678,11.006143,0.000000,0.000000,0.000000
6.000000,0.002000,-0.356105,-0.537370,-0.110558,2.224425,-0.282794,2.186924,8.007904,12.499331,2.968393,0.000000,0.000000,0.000000
7.000000,0.002000,-0.065058,-0.220599,1.031318,0.047828,-2.892812,3.207070,0.564281,1.387677,-8.962484,0.000000,0.000000,0.000000
8.000000,0.002000,0.232517,0.266643,0.083238,2.562128,1.555235,4.055377,-12.146679,-11.996473,-8.037079,115923892991663734582847026870797337344030231976010093171449286565843062745925325533140038438107183040167936.000000,4787142885798284855643719328774778173795084465174780641693637665648403877169013833835529490445327801418802613545316354916722037909682831782952926534213756634845881425509470953275392.000000,0.000000
9.000000,0.002000,-0.699954,0.472793,0.044428,-3.927847,2.686889,0.980605,11.532387,-8.526185,-0.911048,0.002000,-1.638847,0.000000
10.000000,0.002000,2.156250,-0.195074,-1.640654,1.268652,0.563651,-0.245410,-1.991865,0.188554,1.601415,0.002000,-1.295541,0.000000
11.000000,0.002000,0.086042,-0.058129,0.393864,1.922566,3.419063,-0.792582,-4.233826,3.768285,-16.213002,0.002000,-0.495549,0.000000
12.000000,0.002000,2.109704,1.675130,0.155017,0.979238,1.289622,0.313629,-1.949217,-1.478223,-0.087993,0.002000,0.229020,0.000000
13.000000,0.002000,0.452540,0.771095,0.315748,-2.262906,-0.282778,2.378969,-5.617415,-9.083960,-3.487909,0.002000,0.366755,0.000000
14.000000,0.002000,-1.726802,0.152617,1.691231,-0.683583,-0.534161,-0.224658,2.063409,-0.150106,-2.193412,0.002000,-0.356105,0.000000
15.000000,0.002000,-0.832946,2.102875,0.085695,1.479710,-1.843959,0.397791,1.163138,-2.964069,-0.114908,0.002000,-0.065058,0.000000
16.000000,0.002000,0.520357,-1.191035,-1.804608,0.105211,-2.053873,-0.645640,-0.650636,1.704355,2.697059,0.002000,0.232517,0.000000
17.000000,0.002000,-0.778215,0.748002,0.026089,1.021237,0.030531,0.445522,7.523831,-6.669529,-0.415524,0.002000,-0.699954,0.000000
18.000000,0.002000,-0.620866,-0.738096,0.040371,-1.310800,-0.562097,1.448924,7.137427,8.110207,-0.574928,0.002000,2.156250,0.000000
19.000000,0.002000,-0.085000,0.171664,0.235276,0.056694,-0.236101,0.688384,6.025593,-8.784433,-13.559857,0.002000,0.086042,0.000000
20.000000,0.002000,0.049605,-0.414154,-0.152090,1.912180,0.631188,1.178458,-2.497714,16.464276,5.963814,0.002000,2.109704,0.000000
21.000000,0.002000,0.410223,-0.107186,0.018171,-1.252756,-1.703765,-2.901058,-16.670026,3.677425,-0.648646,0.002000,0.452540,0.000000
22.000000,0.002000,0.416679,-0.354304,0.123433,-3.750652,2.230773,-1.165496,-12.900592,11.744461,-4.192166,0.002000,-1.726802,0.000000
23.000000,0.002000,0.465150,-1.251830,-0.749706,-2.414298,0.221352,-1.836992,-1.667780,4.509428,2.408303,0.002000,-0.832946,0.000000
24.000000,0.002000,0.350053,-0.162358,0.032628,-0.878210,3.459365,0.476428,-14.954420,8.085078,-1.682140,0.002000,0.520357,0.000000
25.000000,0.002000,0.261760,0.774466,0.346817,-1.837753,0.012331,-1.326014,-3.573009,-10.899749,-4.704243,0.002000,-0.778215,0.000000
26.000000,0.002000,1.047181,-0.704163,-1.449016,-1.005921,-0.796845,-0.350289,-2.251349,1.479900,2.946157,0.002000,-0.620866,0.000000
27.000000,0.002000,-0.246621,-0.592646,0.250933,-0.826863,-0.558224,-1.021615,5.730124,14.041198,-5.218627,0.002000,-0.085000,0.000000
28.000000,0.002000,0.327141,0.874195,-0.076329,-0.869218,-1.276001,1.295820,-4.198466,-11.083449,0.963026,0.002000,0.049605,0.000000
29.000000,0.002000,-2.116611,-2.094622,0.513379,-1.573164,-1.466262,1.026765,1.473992,1.431861,-0.336315,0.002000,0.410223,0.000000
30.000000,0.002000,-0.276591,-0.260537,-0.256597,1.674776,0.641561,4.590418,10.288332,10.309285,10.419340,0.002000,0.416679,0.000000
31.000000,0.002000,-0.627503,-0.139899,0.083354,-2.026482,2.095378,0.338065,14.485915,0.310738,-4.221772,0.002000,0.465150,0.000000
32.000000,0.002000,0.264966,-0.102719,0.044381,-0.000720,2.438077,2.106866,-12.828805,6.101660,-1.463996,0.002000,0.350053,0.000000
33.000000,0.002000,-0.311163,0.717970,-0.709564,-0.336709,0.030745,-1.350914,2.869114,-6.586639,6.389299,0.002000,0.261760,0.000000
34.000000,0.002000,-0.997864,-0.097372,-0.989684,1.541908,1.731436,0.229417,4.590270,0.548678,4.576759,0.002000,1.047181,0.000000
35.000000,0.002000,-0.743071,-1.256703,2.231114,-1.162046,-0.433215,0.953976,0.730889,1.093549,-2.254715,0.002000,-0.246621,0.000000
36.000000,0.002000,-1.011437,-1.460208,2.123008,0.274605,-1.159092,1.037206,0.930421,1.303262,-1.868464,0.002000,0.327141,0.000000
37.000000,0.002000,-2.165420,-2.213757,0.701019,-1.285818,-1.529758,1.437508,1.323752,1.357804,-0.467654,0.002000,-2.116611,0.000000
38.000000,0.002000,-0.168917,-0.345438,0.276932,4.421167,2.136218,0.656377,0.919701,13.460089,-13.001654,0.002000,-0.276591,0.000000
39.000000,0.002000,-0.183584,0.310499,-0.361821,-0.344168,0.575514,2.546798,7.648402,-11.311307,12.666557,0.002000,-0.627503,0.000000
40.000000,0.002000,0.928630,-0.430671,0.568090,-1.914850,1.566101,0.173081,-6.838594,3.678335,-4.063489,0.002000,0.264966,0.000000
41.000000,0.002000,-0.296689,-0.145448,0.927607,-0.965769,0.818676,1.649969,3.081849,1.240188,-9.942875,0.002000,-0.311163,0.000000
42.000000,0.002000,-0.165848,-0.166963,0.491214,-2.871119,3.439726,-3.218607,4.112985,4.701045,-16.508378,0.002000,-0.997864,0.000000
43.000000,0.002000,-1.643291,-0.605787,1.213836,-1.142966,1.533110,1.222109,2.699993,1.089277,-1.964950,0.002000,-0.743071,0.000000
44.000000,0.002000,-0.347023,-0.106455,0.414663,0.799217,-2.338371,1.255822,10.052981,3.355411,-12.291303,0.002000,-1.011437,0.000000
45.000000,0.002000,0.338579,0.004563,0.306553,0.783150,-0.758227,-3.434073,-14.664276,0.275848,-12.178490,0.002000,-2.165420,0.000000
46.000000,0.002000,0.472838,-0.183687,0.304018,1.441957,0.614938,-1.035871,-13.298951,4.596329,-8.747226,0.002000,-0.168917,0.000000
47.000000,0.002000,-1.207571,0.195323,0.781067,1.179286,-0.808438,-1.508582,5.011243,-0.799718,-3.554812,0.002000,-0.183584,0.000000
48.000000,0.002000,0.273151,-0.587915,-0.123852,1.492928,-1.120115,0.602667,-6.246141,15.129442,2.555337,0.002000,0.928630,0.000000
49.000000,0.002000,-2.222957,-0.781768,0.183471,-2.621526,-0.790691,-0.102809,2.969508,1.037279,-0.311664,0.002000,-0.296689,0.000000
50.000000,0.002000,0.599132,-0.044161,0.371984,1.874665,1.255480,2.559173,-12.098750,1.366635,-8.147059,0.002000,-0.165848,0.000000
51.000000,0.002000,-0.601494,0.900694,-0.346537,0.509194,-1.794305,0.753636,4.655420,-7.417480,2.530874,0.002000,-1.643291,0.000000
52.000000,0.002000,0.286238,-0.020183,0.704111,-1.209178,-0.404158,1.755860,-5.832070,0.374213,-12.819124,0.002000,-0.347023,0.000000
53.000000,0.002000,0.270867,-0.798771,-0.572531,0.054952,-1.467011,-0.799903,-2.243077,8.119046,4.946716,0.002000,0.338579,0.000000
54.000000,0.002000,1.089190,0.593381,0.948874,-1.536530,-1.031747,1.053664,-3.806357,-2.023860,-3.353894,0.002000,0.472838,0.000000
55.000000,0.002000,-0.415222,0.050781,0.066789,-2.873789,0.836576,-2.661836,16.549518,-1.220653,-5.891767,0.002000,-1.207571,0.000000
56.000000,0.002000,-0.236350,0.468257,-0.588243,-0.581405,-0.195095,2.205198,2.835474,-8.447638,10.443113,0.002000,0.273151,0.000000
57.000000,0.002000,-0.947892,0.052853,-0.435130,-1.367254,3.402427,2.312997,9.280260,-0.150833,4.692068,0.002000,-2.222957,0.000000
58.000000,0.002000,-0.640279,-1.957565,-0.668760,-0.453890,-1.498375,-1.232639,1.073580,2.981263,1.072345,0.002000,0.599132,0.000000
59.000000,0.002000,0.433196,-0.255380,-0.206105,-0.085759,0.564479,-3.481658,-14.481510,9.926327,11.980507,0.002000,-0.601494,0.000000
60.000000,0.002000,-0.159185,0.091998,-0.155515,1.413960,0.549103,-0.372356,8.236506,-5.919001,10.087176,0.002000,0.286238,0.000000
61.000000,0.002000,-0.601615,0.546380,0.423682,1.672756,1.489660,0.125071,7.318768,-6.810250,-5.663756,0.002000,0.270867,0.000000
62.000000,0.002000,-0.346157,-0.259890,2.816397,-1.416903,0.007010,1.908194,0.318636,0.216362,-2.320307,0.002000,1.089190,0.000000
63.000000,0.002000,-0.278173,0.107304,-0.173923,-2.608274,0.583631,-1.195471,11.971502,-1.858498,8.359362,0.002000,-0.415222,0.000000
64.000000,0.002000,0.444819,0.725475,0.407436,-1.033540,2.039758,0.071954,-5.195912,-8.707420,-4.244388,0.002000,-0.236350,0.000000
65.000000,0.002000,0.460245,-0.664373,0.624756,1.378605,2.541461,-0.175557,-4.770787,6.470544,-6.063595,0.002000,-0.947892,0.000000
66.000000,0.002000,-0.252355,0.162440,0.172939,-4.604415,-0.365717,-2.151622,11.992120,-7.658893,-11.667545,0.002000,-0.640279,0.000000
67.000000,0.002000,-0.464702,-0.391383,0.108601,-2.272855,-4.557862,1.552933,12.159549,11.253725,-3.041079,0.002000,0.433196,0.000000
68.000000,0.002000,-0.772486,1.598584,-0.747559,0.068679,0.737956,1.353789,1.599970,-3.242258,1.378628,0.002000,-0.159185,0.000000
69.000000,0.002000,-0.491743,0.909660,-0.101427,2.898433,1.558142,2.782832,5.309072,-8.872017,0.349918,0.002000,-0.601615,0.000000
70.000000,0.002000,-0.677678,0.278831,0.051625,1.749163,-2.616902,2.158539,15.750243,-5.773099,-1.751903,0.002000,-0.346157,0.000000
71.000000,0.002000,-0.334392,-0.563273,0.144129,-2.293990,-1.271555,-2.491154,8.430616,12.829259,-0.611436,0.002000,-0.278173,0.000000
72.000000,0.002000,-0.084799,-0.362859,0.449097,0.682167,-0.369300,3.978493,1.702541,9.537201,-14.234783,0.002000,0.444819,0.000000
73.000000,0.002000,-0.512600,0.370655,-1.108939,-2.380971,2.306282,-2.279259,2.727041,-2.529422,7.027692,0.002000,0.460245,0.000000
74.000000,0.002000,0.012187,-0.180130,-0.078855,-0.064190,-3.476009,-2.310992,-0.596995,16.744003,9.527147,0.002000,-0.252355,0.000000
75.000000,0.002000,-2.381740,0.175098,0.963547,-1.874778,0.494409,-0.499869,2.563006,-0.077777,-1.038047,0.002000,-0.464702,0.000000
76.000000,0.002000,0.706969,-0.434054,-0.311482,1.291338,-1.139067,-1.174492,-10.299314,5.688724,4.042480,0.002000,-0.772486,0.000000
77.000000,0.002000,-0.539194,-0.304210,0.193017,2.459184,1.421665,0.848709,11.427581,8.840707,-4.934884,0.002000,-0.491743,0.000000
78.000000,0.002000,0.559436,0.675219,0.172464,0.359129,-0.167769,-1.814107,-8.753165,-11.133031,-3.294530,0.002000,-0.677678,0.000000
79.000000,0.002000,-0.530682,-0.728915,-0.471889,1.801057,-0.737785,-1.306774,5.910381,7.485803,5.299582,0.002000,-0.334392,0.000000
80.000000,0.002000,0.963345,1.035499,-0.766063,-0.373369,3.333871,-1.139636,-3.273849,-3.219857,2.507153,0.002000,-0.084799,0.000000
81.000000,0.002000,-0.303447,-0.172579,-0.043002,-0.888463,-0.408916,0.153275,17.541102,11.310044,6.869523,0.002000,-0.512600,0.000000
82.000000,0.002000,0.600182,0.478896,-1.207111,-1.783724,-1.389126,-0.235069,-2.959180,-2.363856,6.019511,0.002000,0.012187,0.000000
83.000000,0.002000,0.656579,0.717593,-0.729632,1.383845,0.023003,2.278355,-4.390492,-4.657040,4.634466,0.002000,-2.381740,0.000000
84.000000,0.002000,2.281604,0.770440,0.210738,0.260887,0.543814,-0.270075,-2.723682,-0.946041,-0.384325,0.002000,0.706969,0.000000
85.000000,0.002000,0.804886,-0.889344,1.070732,-0.047139,-0.703111,2.431986,-2.603831,2.978218,-3.342379,0.002000,-0.539194,0.000000
86.000000,0.002000,-0.341471,0.684546,-0.498020,-0.501738,0.197859,2.650273,4.338637,-8.716744,6.722949,0.002000,0.559436,0.000000
87.000000,0.002000,-0.517275,-0.426824,-0.606521,-0.821892,-2.222433,-1.618498,6.599389,6.154904,8.352522,0.002000,-0.530682,0.000000
88.000000,0.002000,0.288568,0.204209,0.096507,0.492635,-3.902249,0.854268,-16.839361,-7.410812,-5.533869,0.002000,0.963345,0.000000
89.000000,0.002000,0.245675,-2.344247,-0.692103,-0.980926,-0.797051,0.055243,-0.359171,2.692132,0.822307,0.002000,-0.303447,0.000000
90.000000,0.002000,0.037466,0.122415,-0.145521,-1.266610,1.012120,1.102419,-6.769623,-4.907227,12.068978,0.002000,0.600182,0.000000
91.000000,0.002000,-0.051939,1.457681,-0.735935,-1.976615,-0.143497,-3.335714,0.366580,-4.441925,2.199004,0.002000,0.656579,0.000000
92.000000,0.002000,0.444845,-0.729311,-0.538970,-0.374345,0.425075,0.077320,-4.035773,7.930580,5.200480,0.002000,2.281604,0.000000
93.000000,0.002000,1.670829,-1.445453,0.646463,1.530858,-1.047377,-1.210030,-2.167765,1.901811,-0.963315,0.002000,0.804886,0.000000
94.000000,0.002000,-1.235988,0.573915,0.297764,-2.009512,1.893296,2.399763,5.678155,-2.845643,-1.337552,0.002000,-0.341471,0.000000
95.000000,0.002000,-0.049523,-1.307289,-0.281225,-0.389463,2.069583,0.426913,0.172711,6.358888,1.630883,0.002000,-0.517275,0.000000
96.000000,0.002000,0.598414,-0.306020,0.804158,1.431021,0.004206,1.393094,-5.388635,3.103842,-7.503729,0.002000,0.288568,0.000000
97.000000,0.002000,-0.761909,-0.125120,-0.040868,1.772953,-2.070157,1.024396,14.607714,2.865671,0.563958,0.002000,0.245675,0.000000
98.000000,0.002000,0.343394,-1.497084,1.511911,0.343761,-1.632284,2.185040,-0.571437,2.369808,-2.333450,0.002000,0.037466,0.000000
99.000000,0.002000,-0.092275,0.306346,0.145971,-0.079088,0.584239,1.798827,5.627934,-15.721013,-11.564114,0.002000,-0.051939,0.000000
100.000000,0.002000,-0.225949,0.223778,-0.050502,-1.431730,3.377329,-1.809592,12.298692,-14.674088,3.507458,0.002000,0.444845,0.000000
101.000000,0.002000,0.229366,0.817772,-0.904581,1.713409,-0.402744,-1.202522,-1.484368,-5.146116,5.686727,0.002000,1.670829,0.000000
102.000000,0.002000,0.442887,-0.473879,0.227365,1.634406,0.085576,-2.375748,-10.306144,11.307042,-6.381193,0.002000,-1.235988,0.000000
103.000000,0.002000,0.338338,2.214496,-1.597671,-0.314956,1.003121,-0.728750,-0.324632,-1.970479,1.474094,0.002000,-0.049523,0.000000
104.000000,0.002000,0.061645,-0.046868,-0.491013,1.580467,-2.941236,1.823111,-1.735466,1.094866,18.373153,0.002000,0.598414,0.000000
105.000000,0.002000,0.484479,0.883318,-0.729729,-2.804750,-1.142995,-1.976565,-3.102819,-5.447833,4.157507,0.002000,-0.761909,0.000000
106.000000,0.002000,0.137990,0.217011,-0.092990,0.157641,1.422697,1.059078,-8.854063,-9.290346,4.101160,0.002000,0.343394,0.000000
107.000000,0.002000,0.079557,0.259471,-0.301504,-1.659381,-1.863229,-0.342271,-3.280546,-11.052241,15.708426,0.002000,-0.092275,0.000000
108.000000,0.002000,-0.758852,-0.078100,-0.693193,-1.233065,-0.491515,-0.784398,7.011210,0.633793,7.392428,0.002000,-0.225949,0.000000
109.000000,0.002000,-0.168048,-0.339729,0.314551,-2.438580,0.813526,-1.706289,3.811696,11.971766,-12.799883,0.002000,0.229366,0.000000
110.000000,0.002000,0.632671,-0.040237,0.857714,-3.454157,0.836409,-2.368125,-6.741050,-0.061498,-7.303780,0.002000,0.442887,0.000000
111.000000,0.002000,-0.556401,0.140787,-0.009489,-1.608679,-2.088512,1.997659,16.116638,-4.453964,-0.241326,0.002000,0.338338,0.000000
112.000000,0.002000,2.801815,1.205038,0.512701,1.291194,-0.143691,0.540708,-1.869013,-0.799388,-0.339824,0.002000,0.061645,0.000000
113.000000,0.002000,-2.386669,-3.017470,-3.503891,0.431412,-1.283620,-0.683859,0.339006,0.429614,0.498611,0.002000,0.484479,0.000000
114.000000,0.002000,-0.144970,0.823307,0.784402,-1.682085,-1.020653,0.381616,2.255141,-5.832679,-5.735158,0.002000,0.137990,0.000000
115.000000,0.002000,0.555483,0.179551,0.335246,1.926108,-0.010797,0.967527,-12.082467,0.043184,-5.908511,0.002000,0.079557,0.000000
116.000000,0.002000,0.007075,0.027057,-0.047198,-0.392879,1.593998,-0.770813,-3.115674,-0.411639,0.260618,0.002000,-0.758852,0.000000
117.000000,0.002000,-0.482673,0.112733,-0.081938,2.262597,1.428133,-2.110426,17.383655,-4.402798,3.122972,0.002000,-0.168048,0.000000
118.000000,0.002000,-0.044921,0.949897,0.705730,1.002940,-0.248852,0.866163,0.233560,-7.022389,-4.657951,0.002000,0.632671,0.000000
119.000000,0.002000,1.492167,1.529213,0.269159,-0.232424,0.047578,-0.830051,-2.332780,-2.367641,-0.403293,0.002000,-0.556401,0.000000
120.000000,0.002000,-0.137233,-0.195413,0.097494,-1.085356,-1.866713,-2.364406,6.896139,12.865646,-6.254010,0.002000,2.801815,0.000000
121.000000,0.002000,-0.642743,-0.396051,-0.404975,-0.597607,-1.660772,0.493098,10.985592,6.781632,5.821177,0.002000,-2.386669,0.000000
122.000000,0.002000,0.104410,0.124901,0.054757,-0.976140,0.399336,-1.614630,-5.874800,-5.733633,-2.359579,0.002000,-0.144970,0.000000
123.000000,0.002000,-1.109624,1.775121,-1.015804,-0.556332,-0.036919,-0.361114,1.549007,-2.367585,1.457705,0.002000,0.555483,0.000000
124.000000,0.002000,0.217992,-0.174401,-0.243556,-0.116579,0.448469,4.325235,-8.722923,8.429364,12.670974,0.002000,0.007075,0.000000
125.000000,0.002000,-0.043282,0.004512,0.723005,-1.781843,0.442732,2.658486,1.540896,-0.106928,-14.776001,0.002000,-0.482673,0.000000
126.000000,0.002000,-0.283076,-1.201971,0.245643,-0.304778,-3.211648,-1.827914,1.486912,7.301843,-1.575256,0.002000,-0.044921,0.000000
127.000000,0.002000,1.875220,-0.649369,-0.838037,0.723991,0.609061,-1.957654,-3.006838,1.044103,1.231838,0.002000,1.492167,0.000000
128.000000,0.002000,-0.054836,-0.411114,-0.070865,-0.262622,5.772199,1.887963,2.062551,20.188700,3.685475,0.002000,-0.137233,0.000000
129.000000,0.002000,-1.302038,1.090719,0.669949,0.229207,-1.116512,-0.591269,2.884129,-2.553963,-1.539573,0.002000,-0.642743,0.000000
130.000000,0.002000,0.942711,0.512603,0.604576,-2.430013,0.581364,-0.897016,-5.982274,-3.115665,-3.974692,0.002000,0.104410,0.000000
131.000000,0.002000,-0.529253,0.044577,0.657558,0.451629,-1.502584,0.834446,7.336629,-0.921710,-10.169007,0.002000,-1.109624,0.000000
132.000000,0.002000,0.026203,-0.721555,0.450777,2.715004,-0.059052,1.628327,-1.246449,10.498058,-6.258043,0.002000,0.217992,0.000000
133.000000,0.002000,1.740340,-1.200033,-0.235001,2.211747,0.230922,1.378059,-2.797755,1.874535,0.263165,0.002000,-0.043282,0.000000
134.000000,0.002000,-1.488001,0.980560,-0.942271,-1.171047,0.580916,-2.366580,2.776457,-1.918526,1.860323,0.002000,-0.283076,0.000000
135.000000,0.002000,-0.825740,-2.405659,0.647458,-0.259438,-1.627962,-0.422359,0.842892,2.330057,-0.750973,0.002000,1.875220,0.000000
136.000000,0.002000,-0.257072,-0.300643,0.287919,0.976895,2.554528,-0.902026,11.173407,10.261003,-12.791170,0.002000,-0.054836,0.000000
137.000000,0.002000,0.254277,0.590276,0.015797,-0.965435,-1.917304,2.239582,-6.795540,-14.715300,-0.584396,0.002000,-1.302038,0.000000
138.000000,0.002000,-0.185593,-2.002325,-0.309791,0.991682,-0.486265,-0.255403,0.336051,3.572256,0.496704,0.002000,0.942711,0.000000
139.000000,0.002000,1.342209,-0.246690,0.075821,0.761404,-1.165995,-0.163843,-6.571222,1.189383,-0.602949,0.002000,-0.529253,0.000000
140.000000,0.002000,-1.128371,-1.317660,1.131786,-0.227950,0.863900,2.231499,1.977915,2.369709,-1.898841,0.002000,0.026203,0.000000
141.000000,0.002000,-0.001051,-1.557676,0.687049,1.111169,-3.186302,-0.699508,-0.090990,4.376372,-1.974156,0.002000,1.740340,0.000000
142.000000,0.002000,-0.191795,0.408528,-0.050427,1.723949,-3.145213,0.359435,5.150263,-21.075032,2.312687,0.002000,-1.488001,0.000000
143.000000,0.002000,0.034660,3.181924,0.833641,0.341054,2.284048,0.661432,-0.020663,-1.760881,-0.459565,0.002000,-0.825740,0.000000
144.000000,0.002000,0.061243,-0.429055,0.604539,0.558264,-1.998646,0.643244,-2.008963,7.160529,-11.460977,0.002000,-0.257072,0.000000
145.000000,0.002000,-0.407759,-0.232365,0.453209,-1.717826,0.307407,-2.555062,9.648009,6.257428,-17.406123,0.002000,0.254277,0.000000
146.000000,0.002000,0.006235,-0.154782,-0.506447,-0.063583,1.430852,1.353762,-0.222952,5.774128,16.687161,0.002000,-0.185593,0.000000
147.000000,0.002000,-0.341811,0.735031,0.476340,-1.907148,-0.031192,0.698758,2.990110,-7.465442,-6.588979,0.002000,1.342209,0.000000
148.000000,0.002000,1.055423,1.380877,-1.715469,0.046983,1.046743,-1.151170,-1.456409,-1.554247,2.051640,0.002000,-1.128371,0.000000
149.000000,0.002000,0.393812,0.068080,-0.064960,0.790178,1.121354,-1.702544,-16.330417,-3.459204,2.787540,0.002000,-0.001051,0.000000
150.000000,0.002000,0.580520,0.427544,-0.000791,-1.255631,1.298220,-2.275319,-14.320601,-7.379583,2.393220,0.002000,-0.191795,0.000000
151.000000,0.002000,0.065454,-1.526844,-0.889077,-0.821537,0.854932,0.538983,-0.709625,3.645224,2.384538,0.002000,0.034660,0.000000
152.000000,0.002000,0.443099,-0.678029,0.936379,-1.249787,2.334524,0.748874,-5.181010,3.522012,-5.370833,0.002000,0.061243,0.000000
153.000000,0.002000,1.915835,0.119482,0.940188,-0.215903,-1.200200,0.102314,-3.040578,-0.003160,-1.590459,0.002000,-0.407759,0.000000
154.000000,0.002000,-0.522889,-0.010204,-1.081034,-0.118825,0.496847,-0.027672,3.542231,0.299378,7.263683,0.002000,0.006235,0.000000
155.000000,0.002000,0.154854,0.101720,0.019898,1.217293,0.122389,1.359300,-14.229111,-4.670331,2.852569,0.002000,-0.341811,0.000000
156.000000,0.002000,-1.839446,0.190784,-1.801196,-0.280780,-0.437776,-2.664104,2.032374,-0.239469,1.965348,0.002000,1.055423,0.000000
157.000000,0.002000,2.595963,1.374016,1.983364,1.344621,1.144084,0.977130,-1.150895,-0.594188,-0.874827,0.002000,0.393812,0.000000
158.000000,0.002000,-0.136975,0.026222,-0.268322,-3.827816,-0.748248,-0.532497,5.758703,1.216289,16.963320,0.002000,0.580520,0.000000
159.000000,0.002000,0.154312,0.166652,1.123685,2.356692,0.956162,-1.668850,-1.039127,-1.372844,-8.195850,0.002000,0.065454,0.000000
160.000000,0.002000,1.497700,0.005627,1.269212,-0.612030,0.833150,0.209721,-2.953628,0.125439,-2.417730,0.002000,0.443099,0.000000
161.000000,0.002000,0.268669,-0.599847,-0.365489,-0.757604,-3.311067,0.547708,-4.627924,12.867147,7.220439,0.002000,1.915835,0.000000
162.000000,0.002000,-0.139499,-1.264253,1.120539,-1.290741,-3.277354,-0.639556,0.430587,3.480853,-3.243769,0.002000,-0.522889,0.000000
163.000000,0.002000,-0.378569,-1.414819,-0.993085,0.911425,-1.957747,-1.750028,0.889675,3.489398,2.545950,0.002000,0.154854,0.000000
164.000000,0.002000,0.302496,-0.200747,-0.356588,-0.645682,-2.365269,0.594114,-11.232096,5.594052,12.539381,0.002000,-1.839446,0.000000
165.000000,0.002000,-0.720700,-3.001233,-0.438503,-0.200749,-2.359657,0.727124,0.479783,1.983076,0.324748,0.002000,2.595963,0.000000
166.000000,0.002000,0.184583,-1.357058,0.514850,-0.612289,0.553176,-1.569972,-1.138781,5.552933,-2.187602,0.002000,-0.136975,0.000000
167.000000,0.002000,-0.579107,-0.094707,0.178549,0.935568,0.632519,-4.173227,14.201959,-0.159511,-6.731878,0.002000,0.154312,0.000000
168.000000,0.002000,0.096734,0.307409,-0.278967,0.007323,-0.642838,-0.298761,-6.180740,-15.218607,12.552905,0.002000,1.497700,0.000000
169.000000,0.002000,0.203720,-0.109551,0.724289,-1.217019,-0.020396,-3.650771,-4.115138,2.903007,-13.239486,0.002000,0.268669,0.000000
170.000000,0.002000,0.538685,2.026833,-1.917434,-0.071865,1.714283,-1.427103,-0.496359,-1.695265,1.580865,0.002000,-0.139499,0.000000
171.000000,0.002000,-2.024839,-0.134498,-0.337843,-1.953463,0.924217,-1.387638,3.604854,0.261871,0.671815,0.002000,-0.378569,0.000000
172.000000,0.002000,1.758165,-1.156590,1.297867,0.847006,-1.826400,1.676812,-1.965055,1.367912,-1.479482,0.002000,0.302496,0.000000
173.000000,0.002000,-0.235171,-0.254925,-0.061216,4.103304,-1.585120,-0.078592,10.229544,14.563662,4.400017,0.002000,-0.720700,0.000000
174.000000,0.002000,-0.948179,-1.623623,0.441767,0.093090,-2.838508,-0.111595,1.886589,3.247869,-1.008418,0.002000,0.184583,0.000000
175.000000,0.002000,-0.680034,-1.445916,-0.427464,-2.027436,0.286968,1.153443,2.041765,4.354271,1.280925,0.002000,-0.579107,0.000000
176.000000,0.002000,-0.947989,-1.612593,0.947625,-0.603645,0.823573,1.111397,1.622278,2.726686,-1.568458,0.002000,0.096734,0.000000
177.000000,0.002000,1.535260,-0.741703,1.206704,1.347007,-3.260764,-0.539572,-2.597325,1.303313,-1.988962,0.002000,0.203720,0.000000
178.000000,0.002000,0.365536,-0.051138,-0.309902,-0.705455,2.239299,0.766909,-13.560594,1.718241,11.440509,0.002000,0.538685,0.000000
179.000000,0.002000,-0.071905,-0.434990,0.772890,1.314272,1.119757,-0.701744,0.818266,5.839164,-11.634916,0.002000,-2.024839,0.000000
180.000000,0.002000,-0.050437,0.374635,-0.138808,-2.228237,2.200949,-1.895463,2.080217,-15.615992,7.667756,0.002000,1.758165,0.000000
181.000000,0.002000,0.427917,-0.250953,1.186909,-0.528833,-0.892236,-2.053368,-2.841105,1.795868,-6.489643,0.002000,-0.235171,0.000000
182.000000,0.002000,-0.728441,-0.768853,-0.451528,-1.244242,3.078526,2.271908,5.409798,5.994483,3.398080,0.002000,-0.948179,0.000000
183.000000,0.002000,-0.559323,0.976281,-1.654550,-0.126172,-1.043203,-3.334309,0.994083,-1.855465,3.135335,0.002000,-0.680034,0.000000
184.000000,0.002000,0.385640,-0.216284,-0.594517,0.971386,0.193971,2.018593,-5.831076,6.718838,14.318946,0.002000,-0.947989,0.000000
185.000000,0.002000,-0.097535,0.894387,-0.458153,1.438534,-2.658685,0.341151,1.518710,-9.724086,4.677539,0.002000,1.535260,0.000000
186.000000,0.002000,0.126565,0.610377,0.857916,-2.798194,2.031243,-2.796174,-1.247158,-4.954935,-7.804607,0.002000,0.365536,0.000000
187.000000,0.002000,0.997580,-0.296171,-1.035086,2.491517,-1.973068,-1.761339,-4.016390,1.006838,4.256136,0.002000,-0.071905,0.000000
188.000000,0.002000,-0.069389,0.755848,0.011007,0.311707,1.168218,3.307263,1.588737,-14.648728,-0.669626,0.002000,-0.050437,0.000000
189.000000,0.002000,-0.567245,3.575685,0.172856,0.734590,-0.062898,-0.341357,0.230025,-1.496689,-0.069301,0.002000,0.427917,0.000000
190.000000,0.002000,0.217584,0.390730,0.297189,1.299613,-1.411539,0.691916,-8.599711,-14.611067,-10.240182,0.002000,-0.728441,0.000000
191.000000,0.002000,-0.073177,0.099849,0.056610,1.730788,3.441363,-2.814763,5.020300,-1.046612,-5.118325,0.002000,-0.559323,0.000000
192.000000,0.002000,0.204448,0.157679,-0.106274,3.291175,-2.529456,3.273848,-12.929810,-6.092796,8.382177,0.002000,0.385640,0.000000
193.000000,0.002000,-0.131081,0.539242,0.185140,-0.448452,-1.403655,-0.738850,4.934323,-14.670331,-6.571380,0.002000,-0.097535,0.000000
194.000000,0.002000,-2.196603,-0.504613,1.300585,-1.444990,-1.662125,0.884783,2.258549,0.583044,-1.399060,0.002000,0.126565,0.000000
195.000000,0.002000,-0.049566,0.371085,-0.837852,-2.068068,-0.224483,2.625011,0.211533,-3.942779,11.011119,0.002000,0.997580,0.000000
196.000000,0.002000,0.157661,-0.268864,0.034086,-3.566340,-0.508758,1.545631,-4.680744,17.220302,0.830749,0.002000,-0.069389,0.000000
197.000000,0.002000,0.052631,-5.753327,-0.804027,0.240877,-0.581440,-0.641501,-0.006529,0.583369,0.080425,0.002000,-0.567245,0.000000
198.000000,0.002000,-0.230914,-0.141988,-0.011303,2.655266,0.006835,-3.089326,11.792590,11.382855,-1.164098,0.002000,0.217584,0.000000
199.000000,0.002000,-0.151170,-0.205177,0.179233,1.319747,-1.062398,-3.902546,7.464690,13.610642,-10.384801,0.002000,-0.073177,0.000000
200.000000,0.002000,-0.061519,0.315933,-0.126365,-1.790583,-2.222683,-3.033232,-0.742806,-15.330669,6.175967,0.002000,0.204448,0.000000
201.000000,0.002000,1.787361,-0.765056,1.458327,1.150267,-0.538453,1.049316,-2.086661,0.932318,-1.748235,0.002000,-0.131081,0.000000
202.000000,0.002000,1.292482,2.142393,0.550065,0.914972,0.552567,0.046633,-1.400134,-2.209258,-0.662421,0.002000,-2.196603,0.000000
203.000000,0.002000,0.104178,-0.298815,-0.505571,0.726518,2.396145,-3.554558,0.451672,7.582462,11.437192,0.002000,-0.049566,0.000000
204.000000,0.002000,-0.648886,-0.550819,-0.704236,2.705999,-1.237956,0.431484,5.686116,5.570666,4.885056,0.002000,0.157661,0.000000
205.000000,0.002000,0.418183,0.608975,-0.075246,-0.244874,-2.975938,-2.536019,-7.850110,-11.468111,1.423846,0.002000,0.052631,0.000000
206.000000,0.002000,0.429521,-0.095870,0.312118,0.766153,0.768231,-0.518071,-12.875391,2.572527,-11.177460,0.002000,-0.230914,0.000000
207.000000,0.002000,-2.095021,1.646437,-0.973752,-1.388159,0.928069,-0.540132,1.797086,-1.373697,0.842548,0.002000,-0.151170,0.000000
208.000000,0.002000,-0.409235,0.687519,0.565398,0.458820,0.686132,1.489111,4.294191,-6.951352,-6.604361,0.002000,-0.061519,0.000000
209.000000,0.002000,-0.452858,-0.136934,-0.340350,-0.073242,-1.896366,1.424606,13.145782,5.926529,10.871590,0.002000,1.787361,0.000000
210.000000,0.002000,0.906465,-0.240799,0.553866,0.254334,1.111704,-2.689668,-7.839339,1.996608,-4.942467,0.002000,1.292482,0.000000
211.000000,0.002000,0.326565,-0.440730,0.158691,-1.163659,0.064920,0.474912,-8.683159,13.496790,-5.219858,0.002000,0.104178,0.000000
212.000000,0.002000,-0.062673,-0.228190,0.134628,0.939562,0.513494,-1.082499,2.546195,13.457790,-8.875523,0.002000,-0.648886,0.000000
213.000000,0.002000,0.247875,-0.021233,-0.424187,1.786331,-2.063614,2.786386,-8.144003,1.003305,14.474752,0.002000,0.418183,0.000000
214.000000,0.002000,0.744571,-1.707112,-1.696129,1.205505,-0.960394,-0.083041,-0.651669,2.624950,2.169021,0.002000,0.429521,0.000000
215.000000,0.002000,1.134750,-1.039816,0.529105,-0.022116,-0.162878,-1.951772,-3.613572,3.048905,-1.877994,0.002000,-2.095021,0.000000
216.000000,0.002000,0.025003,-0.515501,0.387143,-0.037855,-1.018995,3.391272,-1.756766,12.987903,-9.754944,0.002000,-0.409235,0.000000
217.000000,0.002000,0.521704,0.641762,-1.567809,-0.659160,0.824112,1.043829,-1.373343,-1.653523,4.019624,0.002000,-0.452858,0.000000
218.000000,0.002000,0.787255,-1.394592,-1.245374,-1.629357,-2.095970,-1.656774,-1.375749,2.699102,2.147500,0.002000,0.906465,0.000000
219.000000,0.002000,0.020613,0.094620,0.241377,-1.135977,-1.660628,0.663095,-0.682790,-6.611310,-15.430517,0.002000,0.326565,0.000000
220.000000,0.002000,-0.382167,0.191416,1.685540,-0.664751,-0.223354,-0.970868,0.970549,-0.587746,-4.458638,0.002000,-0.062673,0.000000
221.000000,0.002000,0.499136,-0.646057,-0.579599,0.140034,4.212159,0.711994,-5.341548,6.845934,5.884997,0.002000,0.247875,0.000000
222.000000,0.002000,0.019340,-0.166914,-0.290785,-2.316634,1.176935,-0.153980,-0.438487,8.087566,16.948590,0.002000,0.744571,0.000000
223.000000,0.002000,0.093713,-0.513866,0.519874,1.471116,-4.597442,1.565278,-3.741033,9.555630,-11.241446,0.002000,1.134750,0.000000
224.000000,0.002000,-0.353054,2.234436,-0.156899,0.004907,1.902899,-1.812763,0.498389,-3.116804,0.211227,0.002000,0.025003,0.000000
225.000000,0.002000,-0.433161,-0.230860,0.035986,-1.372929,3.044541,-3.602628,15.907490,10.797394,-2.215273,0.002000,0.521704,0.000000
226.000000,0.002000,-0.614416,-0.040505,-0.362141,0.100451,-0.723272,0.480620,12.480490,0.879969,7.648185,0.002000,0.787255,0.000000
227.000000,0.002000,0.278915,0.686054,0.362331,-1.795214,-1.471547,-0.193829,-4.350368,-10.147008,-5.659222,0.002000,0.020613,0.000000
228.000000,0.002000,-0.275000,0.003978,-1.281606,2.565834,2.346197,-1.217100,1.325345,0.202029,6.934954,0.002000,-0.382167,0.000000
229.000000,0.002000,2.951830,-3.730276,1.776205,1.477400,0.280880,-0.585930,-0.442492,0.561264,-0.271587,0.002000,0.499136,0.000000
230.000000,0.002000,0.063723,-1.505455,-2.200749,-0.654850,-1.957701,-1.648752,-0.099563,1.481453,2.051605,0.002000,0.019340,0.000000
231.000000,0.002000,0.295695,0.189996,-0.106378,-4.262828,0.271021,-3.085496,-13.513485,-8.602780,7.297888,0.002000,0.093713,0.000000
232.000000,0.002000,1.343219,0.952780,-0.799870,-0.891611,-0.456364,0.667587,-3.132527,-2.260784,1.910434,0.002000,-0.353054,0.000000
233.000000,0.002000,0.094689,0.565873,0.319485,-1.009383,-2.228199,-0.002363,-3.375091,-13.992735,-8.393301,0.002000,-0.433161,0.000000
234.000000,0.002000,0.275675,1.632886,-1.673685,0.600275,-0.553573,-1.227404,-0.451483,-2.180668,2.180453,0.002000,-0.614416,0.000000
235.000000,0.002000,-0.605525,-1.100752,0.402337,-0.133438,2.207429,-0.448217,3.303604,5.835775,-2.259221,0.002000,0.278915,0.000000
236.000000,0.002000,-1.055434,1.338297,-1.702744,0.880575,1.681161,-1.235302,1.367412,-1.706730,2.069094,0.002000,-0.275000,0.000000
237.000000,0.002000,-0.311734,-0.645897,-0.059184,-2.964429,-0.000853,2.023719,5.931601,13.038877,-0.189275,0.002000,2.951830,0.000000
238.000000,0.002000,-0.074211,0.664673,0.200382,2.127617,1.266783,0.007947,1.623461,-15.196358,-4.144884,0.002000,0.063723,0.000000
239.000000,0.002000,0.409882,-0.345200,-0.301934,-0.043333,4.393769,0.096799,-11.038949,10.235889,8.160941,0.002000,0.295695,0.000000
240.000000,0.002000,-0.505398,-0.064971,-0.108330,0.635263,1.849362,-1.168427,16.847945,3.007290,3.554032,0.002000,1.343219,0.000000
241.000000,0.002000,0.088910,0.809560,-0.283641,2.191630,0.699357,-0.139624,-1.516591,-12.395062,4.743109,0.002000,0.094689,0.000000
242.000000,0.002000,-0.090020,2.668073,-0.501237,-0.222284,1.090583,-0.631031,0.072213,-2.491137,0.470051,0.002000,0.275675,0.000000
243.000000,0.002000,-0.303048,0.568027,0.232393,1.383419,-2.192687,-1.323881,6.912550,-12.965723,-5.838535,0.002000,-0.605525,0.000000
244.000000,0.002000,-0.437649,-0.163059,-0.055968,1.110538,-2.029671,-2.728144,14.952650,4.719468,-1.306009,0.002000,-1.055434,0.000000
245.000000,0.002000,3.991147,-0.267848,-1.311206,0.786165,0.915930,-2.284143,-1.052293,0.071071,0.345666,0.002000,-0.311734,0.000000
246.000000,0.002000,0.243475,-0.052914,0.109875,5.004060,-2.497980,3.324262,-12.790459,0.261664,-5.644268,0.002000,-0.074211,0.000000
247.000000,0.002000,0.658501,0.702666,0.443979,3.456882,-0.150061,-2.406921,-6.297933,-6.713494,-4.530756,0.002000,0.409882,0.000000
248.000000,0.002000,0.021349,-0.099316,-0.482782,1.300357,-1.528220,3.529015,-0.563323,4.170748,17.988816,0.002000,-0.505398,0.000000
249.000000,0.002000,-0.283574,-0.061640,0.180842,0.810246,-1.144646,-0.322496,13.678593,5.353924,-12.100741,0.002000,0.088910,0.000000
250.000000,0.002000,0.267647,-0.541233,-0.785420,0.199279,0.112801,-2.651056,-2.416468,6.018307,7.981443,0.002000,-0.090020,0.000000
251.000000,0.002000,-1.512003,-0.307532,-1.238949,-1.417814,-2.024251,-1.278741,3.000221,0.622657,2.346860,0.002000,-0.303048,0.000000
252.000000,0.002000,0.123168,0.760427,-0.493055,-1.867125,-1.118134,0.186168,-2.066433,-10.144608,6.869626,0.002000,-0.437649,0.000000
253.000000,0.002000,0.463789,-0.119388,-0.036952,-0.640059,-2.266006,0.164053,-18.540382,2.123087,-0.076409,0.002000,3.991147,0.000000
254.000000,0.002000,-0.959522,-0.798906,0.636709,-1.304364,1.516534,-1.217159,4.417680,3.772399,-2.941951,0.002000,0.243475,0.000000
255.000000,0.002000,-0.552016,0.235038,-0.341713,-1.093720,-2.023899,-2.372297,11.649998,-5.146076,8.479620,0.002000,0.658501,0.000000
256.000000,0.002000,1.178501,-0.806438,-0.350287,-1.685555,0.427314,0.251207,-5.281666,3.585287,0.851351,0.002000,0.021349,0.000000
257.000000,0.002000,-0.136792,-0.489842,-0.443085,-1.700099,1.948713,2.243163,2.769764,11.592193,10.267391,0.002000,-0.283574,0.000000
258.000000,0.002000,0.183457,-0.437868,0.159299,1.323307,-0.081602,0.443969,-4.579622,17.703319,-6.828951,0.002000,0.267647,0.000000
259.000000,0.002000,-0.678350,-0.323595,0.558369,2.054106,-1.446774,-2.194607,8.209368,3.300451,-6.780089,0.002000,-1.512003,0.000000
260.000000,0.002000,0.271096,-1.200674,1.248301,-0.695994,-1.570861,-0.899303,-0.803623,3.274053,-3.266373,0.002000,0.123168,0.000000
261.000000,0.002000,0.111214,0.864908,0.261025,2.175624,-2.683708,-0.396507,-0.848900,-10.899264,-3.417164,0.002000,0.463789,0.000000
262.000000,0.002000,-1.506329,-0.245006,1.122047,-1.565645,1.133931,-0.592068,3.122323,0.734696,-2.256345,0.002000,-0.959522,0.000000
263.000000,0.002000,-0.780244,-0.144737,-0.592079,-1.985361,-0.991443,0.290090,13.699162,-2.397620,4.892022,0.002000,-0.552016,0.000000
264.000000,0.002000,-0.690057,1.076354,-0.446466,0.735577,-1.849640,0.266299,3.416737,-5.508641,2.175729,0.002000,1.178501,0.000000
265.000000,0.002000,0.159940,0.135560,0.691096,0.797077,-2.184090,-1.609868,-3.881059,-2.995590,-14.458993,0.002000,-0.136792,0.000000
266.000000,0.002000,1.425306,-1.500910,0.141765,-0.215729,-0.067854,-0.620243,-1.955394,2.690829,-0.237805,0.002000,0.183457,0.000000
267.000000,0.002000,-1.321146,0.491476,-1.297762,-0.027769,-0.587933,0.984725,3.390007,-0.981594,2.846198,0.002000,-0.678350,0.000000
268.000000,0.002000,-0.133670,-0.609917,0.288546,-1.311208,2.533214,-0.265504,1.791280,14.691588,-4.538294,0.002000,0.271096,0.000000
269.000000,0.002000,0.166819,0.091078,0.062918,2.624842,0.381314,-2.551423,-15.138371,-3.761817,-7.545687,0.002000,0.111214,0.000000
270.000000,0.002000,-1.321559,-0.761796,-1.125075,-0.146211,-2.368359,-0.187316,2.801335,1.715538,2.189979,0.002000,-1.506329,0.000000
271.000000,0.002000,0.224820,0.208892,-0.283892,-0.263303,3.497005,1.009184,-12.189945,-8.157438,10.271891,0.002000,-0.780244,0.000000
272.000000,0.002000,0.390038,-0.782758,-0.733587,0.282920,-3.746380,1.785490,-3.089313,6.432393,5.357155,0.002000,-0.690057,0.000000
273.000000,0.002000,-0.311963,0.398911,-0.166034,4.302132,0.555228,-1.535243,12.140997,-13.439269,7.135575,0.002000,0.159940,0.000000
274.000000,0.002000,0.062949,0.110928,0.115206,0.239862,0.029229,-1.524610,-8.129725,-5.658430,-10.032224,0.002000,1.425306,0.000000
275.000000,0.002000,0.312897,-0.684673,-0.724909,1.206202,-0.150970,0.136325,-2.791368,6.641648,6.539531,0.002000,-1.321146,0.000000
276.000000,0.002000,-0.056237,-1.567676,-2.407399,-0.009181,-1.357248,-1.367421,0.059355,1.327890,1.916165,0.002000,-0.133670,0.000000
277.000000,0.002000,0.060499,-0.386554,0.202941,-2.194349,3.169541,-1.107298,-2.674248,16.381238,-4.542063,0.002000,0.166819,0.000000
278.000000,0.002000,-0.295625,0.096082,0.024920,2.912690,-0.675552,-0.574218,16.808330,-5.384091,-3.610192,0.002000,-1.321559,0.000000
279.000000,0.002000,0.106510,0.808534,-0.213058,-0.035414,-1.809110,1.111608,-2.331243,-13.338691,3.432149,0.002000,0.224820,0.000000
280.000000,0.002000,0.015083,0.145664,0.186448,1.704216,1.378885,0.617750,-0.456347,-5.620352,-13.997326,0.002000,0.390038,0.000000
281.000000,0.002000,0.498833,0.344698,0.022968,1.393817,2.813142,-2.720114,-14.880430,-8.390489,-0.991993,0.002000,-0.311963,0.000000
282.000000,0.002000,-0.970149,-0.867239,-1.582094,1.946388,-0.270931,-1.610892,1.774160,1.552065,2.835313,0.002000,0.062949,0.000000
283.000000,0.002000,-0.559121,0.101161,0.244215,2.492216,1.950379,0.346950,13.474832,-4.937343,-6.201549,0.002000,0.312897,0.000000
284.000000,0.002000,-1.822591,0.855205,1.609234,-2.472074,-0.339376,1.462641,2.035251,-1.012507,-1.682947,0.002000,-0.056237,0.000000
285.000000,0.002000,0.415643,0.310060,0.540065,0.572631,-0.307798,0.624083,-7.574494,-5.891645,-10.091474,0.002000,0.060499,0.000000
286.000000,0.002000,-0.411707,-1.093667,-0.266785,2.648464,-1.474284,-0.084002,2.529086,7.470559,1.683478,0.002000,-0.295625,0.000000
287.000000,0.002000,-0.004725,0.065546,0.067435,-1.356428,-1.856490,3.440652,0.511039,-1.962355,-4.585466,0.002000,0.106510,0.000000
288.000000,0.002000,0.020497,0.156279,-0.233282,-0.832826,1.235760,-1.425118,5.411122,-8.600889,14.106831,0.002000,0.015083,0.000000
289.000000,0.002000,0.072765,-0.169208,0.001648,-2.170373,-1.975753,1.169982,-2.739707,13.706122,1.876439,0.002000,0.498833,0.000000
290.000000,0.002000,0.071966,0.333916,-0.429155,0.851789,2.028375,-2.405347,-2.254592,-10.652919,13.286925,0.002000,-0.970149,0.000000
291.000000,0.002000,0.045129,1.195236,-1.845008,1.115089,0.289676,-1.722854,-0.186506,-1.749157,2.855096,0.002000,-0.559121,0.000000
292.000000,0.002000,-0.375313,-0.526496,0.215114,-1.802859,-0.278930,-1.464259,9.002840,11.437364,-4.005879,0.002000,-1.822591,0.000000
293.000000,0.002000,-0.016803,-0.124715,-0.022133,2.311220,-2.492387,-0.049148,-2.356991,11.375680,-0.843995,0.002000,0.415643,0.000000
294.000000,0.002000,-0.026608,-1.555605,-1.424608,-1.139525,0.729133,-0.580846,-0.024825,2.299783,2.331376,0.002000,-0.411707,0.000000
295.000000,0.002000,0.172291,0.127781,0.357976,0.037219,-0.124033,-2.392370,-7.398590,-4.174538,-17.013177,0.002000,-0.004725,0.000000
296.000000,0.002000,0.306017,-0.435734,0.434086,1.986876,-1.062882,-2.331672,-6.861335,10.228064,-10.609647,0.002000,0.020497,0.000000
297.000000,0.002000,0.018744,0.399197,-0.404332,0.740246,-0.551396,-1.504766,0.476584,-14.460381,13.265968,0.002000,0.072765,0.000000
298.000000,0.002000,1.131115,0.981609,-0.224079,0.113926,-1.003190,0.242221,-4.230279,-3.535758,0.830477,0.002000,0.071966,0.000000
299.000000,0.002000,-1.746270,0.521822,-1.077122,1.634045,-1.782258,1.006537,2.955392,-0.855148,1.866957,0.002000,0.045129,0.000000
300.000000,0.002000,-2.620674,1.355836,-2.423853,0.344164,-1.340831,-0.346071,0.932629,-0.484710,0.858540,0.002000,-0.375313,0.000000
301.000000,0.002000,0.282497,-0.260728,-0.442552,-3.272225,0.445948,3.102110,-8.581182,6.535104,12.722833,0.002000,-0.016803,0.000000
302.000000,0.002000,0.815439,-0.471011,-0.039417,1.585408,-0.258377,-1.680383,-10.212411,6.064498,0.323581,0.002000,-0.026608,0.000000
303.000000,0.002000,-0.964808,0.357495,-0.859440,-3.406433,-1.418626,-0.197476,5.022561,-1.731847,4.677084,0.002000,0.172291,0.000000
304.000000,0.002000,0.401299,0.614473,0.170930,-2.605353,-1.074154,0.709903,-7.824088,-12.047500,-3.445375,0.002000,0.306017,0.000000
305.000000,0.002000,1.009456,2.156570,-0.147497,0.592025,-0.378930,-0.476369,-1.227223,-2.661541,0.195864,0.002000,0.018744,0.000000
306.000000,0.002000,-0.604910,0.098586,-0.153983,0.692931,-0.071623,-0.119267,16.767029,-3.930818,5.567674,0.002000,1.131115,0.000000
307.000000,0.002000,-0.005563,0.530295,0.449166,0.975205,1.959800,-1.758893,-0.126180,-10.974197,-10.523600,0.002000,-1.746270,0.000000
308.000000,0.002000,1.292882,-2.133380,-1.005773,1.726350,-0.730104,-0.610340,-1.253900,2.090327,1.037188,0.002000,-2.620674,0.000000
309.000000,0.002000,2.056377,-1.576936,1.011121,1.304164,-0.058153,0.491758,-1.747747,1.419928,-0.914659,0.002000,0.282497,0.000000
310.000000,0.002000,-0.529137,0.234384,-0.758546,1.137278,-1.635656,-1.032684,5.763462,-2.092192,8.657767,0.002000,0.815439,0.000000
311.000000,0.002000,-1.372830,-1.269113,1.350178,-0.206573,-1.498301,1.673254,2.245751,1.835977,-2.018679,0.002000,-0.964808,0.000000
312.000000,0.002000,-0.542685,0.361081,2.426906,-0.959203,-0.065608,0.551286,0.612698,-0.370413,-2.765864,0.002000,0.401299,0.000000
313.000000,0.002000,-1.235366,-1.755385,-1.347632,-1.420673,-0.007177,-1.425644,1.301700,1.672919,1.636994,0.002000,1.009456,0.000000
314.000000,0.002000,-0.151485,0.702324,-0.585974,1.040124,-0.355553,-1.758462,2.018936,-8.553583,7.358582,0.002000,-0.604910,0.000000
315.000000,0.002000,1.519403,3.238532,0.112782,0.029875,-1.080361,0.041786,-0.664591,-1.401364,-0.035448,0.002000,-0.005563,0.000000
316.000000,0.002000,0.820428,0.282379,0.513833,-2.817194,-0.678197,0.979659,-8.875387,-2.735334,-5.634621,0.002000,1.292882,0.000000
317.000000,0.002000,0.385322,-0.601912,0.358989,0.028505,-1.327904,2.712350,-6.503263,10.564241,-6.381103,0.002000,2.056377,0.000000
318.000000,0.002000,0.202413,-0.057440,0.951172,-0.457028,-1.753315,-0.256781,-1.588586,0.766460,-9.541514,0.002000,-0.529137,0.000000
319.000000,0.002000,0.183217,0.061490,-0.350007,3.439646,1.174246,0.592817,-8.738042,-1.800939,16.785524,0.002000,-1.372830,0.000000
320.000000,0.002000,-0.238596,-2.137623,-1.103157,-0.776231,-1.428120,-2.228548,0.278254,2.645824,1.315804,0.002000,-0.542685,0.000000
321.000000,0.002000,-0.275527,-0.570876,0.145802,-0.524964,0.788319,0.152864,6.078886,13.742846,-2.204382,0.002000,-1.235366,0.000000
322.000000,0.002000,-0.313054,0.520580,0.094746,2.666338,0.371399,-0.434688,9.535218,-13.068540,-4.321827,0.002000,-0.151485,0.000000
323.000000,0.002000,0.021643,-0.195979,-0.132749,-0.250034,0.225165,-4.576096,-2.507287,13.735831,9.649653,0.002000,1.519403,0.000000
324.000000,0.002000,0.476561,0.184771,-0.328946,0.708853,-0.822091,1.572868,-9.513651,-6.353423,10.568732,0.002000,0.820428,0.000000
325.000000,0.002000,-0.784880,-2.541266,-0.141660,0.188974,-0.064412,-2.610254,0.766774,2.444428,0.173061,0.002000,0.385322,0.000000
326.000000,0.002000,-0.904947,1.770547,-0.899331,-0.816570,0.356932,-1.326588,1.478863,-2.733559,1.386411,0.002000,0.202413,0.000000
327.000000,0.002000,0.020349,-0.051042,-0.002685,-0.657871,1.289466,-1.756341,-2.597502,3.384117,-0.830696,0.002000,0.183217,0.000000
328.000000,0.002000,0.601245,-0.102716,0.046077,-0.222236,-0.690255,1.742521,-15.302165,2.459112,-1.321179,0.002000,-0.238596,0.000000
329.000000,0.002000,-0.232875,0.086715,0.001488,-2.148453,-0.840872,1.988807,13.818402,-4.841476,-3.357660,0.002000,-0.275527,0.000000
330.000000,0.002000,0.686464,-0.474322,-0.337277,-1.208289,-0.914824,0.690593,-9.307551,6.719208,4.832586,0.002000,-0.313054,0.000000
331.000000,0.002000,0.355897,-0.014412,-0.163554,1.113700,-0.230609,1.097098,-14.355875,-0.955252,9.041409,0.002000,0.021643,0.000000
332.000000,0.002000,-0.259873,-0.512986,0.274841,-0.026398,-0.610012,1.172201,7.004828,13.080770,-6.951649,0.002000,0.476561,0.000000
333.000000,0.002000,0.242996,0.087885,-1.298851,-2.118551,-0.084169,0.600577,-1.410392,-0.273578,6.842164,0.002000,-0.784880,0.000000
334.000000,0.002000,0.190036,-0.273936,-0.316515,3.033371,-3.087998,0.634706,-6.399354,11.152365,12.514503,0.002000,-0.904947,0.000000
335.000000,0.002000,-0.350966,0.235647,0.381029,-0.743111,0.264640,0.111432,8.942507,-6.331121,-11.865844,0.002000,0.020349,0.000000
336.000000,0.002000,-0.542477,-0.687465,0.208903,1.005043,0.408998,1.952449,6.882118,8.587776,-2.330139,0.002000,0.601245,0.000000
337.000000,0.002000,-0.007516,-0.498399,0.604329,-0.798671,-1.731176,-1.520679,-0.003581,8.705811,-10.788800,0.002000,-0.232875,0.000000
338.000000,0.002000,-0.066377,0.810071,-1.758259,2.309561,1.857902,-1.142700,0.063104,-1.567471,3.665653,0.002000,0.686464,0.000000
339.000000,0.002000,-0.160951,0.494263,-0.295125,-2.665009,-0.818437,0.117625,4.483334,-13.869430,9.693544,0.002000,0.355897,0.000000
340.000000,0.002000,0.894296,0.000965,0.016737,0.474616,3.994667,2.279668,-12.244629,-0.251286,0.559037,0.002000,-0.259873,0.000000
341.000000,0.002000,0.014491,0.134226,-0.028948,2.419556,-0.569684,-3.115835,-6.358623,-7.633091,3.426580,0.002000,0.242996,0.000000
342.000000,0.002000,0.789015,-1.220340,-1.832701,0.081665,-0.020572,-2.641828,-1.006349,1.635919,2.493532,0.002000,0.190036,0.000000
343.000000,0.002000,-0.640323,0.758622,0.207157,1.199919,1.762157,-1.549135,6.706171,-7.598285,-2.019378,0.002000,-0.350966,0.000000
344.000000,0.002000,-0.281896,-0.164596,-0.016787,-2.490492,1.480098,-1.107720,12.332680,14.409157,-7.731222,0.002000,-0.542477,0.000000
345.000000,0.002000,-0.321317,-0.113987,0.124087,4.841286,-0.508023,1.646108,15.816652,7.870407,-6.471938,0.002000,-0.007516,0.000000
346.000000,0.002000,-0.160595,-1.135295,0.197813,2.028274,-2.210041,2.585093,0.739064,7.933705,-1.266498,0.002000,-0.066377,0.000000
347.000000,0.002000,0.049619,0.504532,1.464756,0.400754,-2.337636,0.201755,0.084548,-1.931027,-5.222065,0.002000,-0.160951,0.000000
348.000000,0.002000,-0.165387,-0.243895,-0.169715,-2.492150,-3.186665,-0.055280,7.778994,12.954308,8.599086,0.002000,0.894296,0.000000
349.000000,0.002000,-0.081059,-0.655085,0.599493,-2.279651,0.212607,-1.800841,1.069263,8.749063,-8.238549,0.002000,0.014491,0.000000
350.000000,0.002000,-0.270503,0.173330,-0.674052,3.044708,1.755391,1.567643,4.440248,-2.895265,13.868864,0.002000,0.789015,0.000000
351.000000,0.002000,-0.186971,-0.527094,1.525442,-0.781275,-0.457534,-1.205432,0.653156,1.700037,-4.917788,0.002000,-0.640323,0.000000
352.000000,0.002000,-0.630744,2.043158,2.457005,-0.813687,-1.825484,0.241234,0.366226,-1.140352,-1.404645,0.002000,-0.281896,0.000000
353.000000,0.002000,-0.674843,-2.121304,-0.854425,-1.443392,-1.051812,-0.894077,0.844712,2.709403,1.084759,0.002000,-0.321317,0.000000
354.000000,0.002000,0.208448,0.256767,0.518608,-0.699352,0.347731,-1.624449,-7.871027,-7.133284,-14.090165,0.002000,-0.160595,0.000000
355.000000,0.002000,-0.191534,0.056387,0.042737,0.101366,0.204492,0.224782,10.501819,-6.137412,-10.000999,0.002000,0.049619,0.000000
356.000000,0.002000,0.265902,0.248759,0.366474,1.161767,0.321016,-1.721070,-11.228946,-8.352058,-15.297034,0.002000,-0.165387,0.000000
357.000000,0.002000,0.801695,1.858166,1.226026,0.508079,1.151741,-0.373368,-1.052626,-2.309612,-1.534077,0.002000,-0.081059,0.000000
358.000000,0.002000,0.029262,-0.664652,-0.844687,-3.041151,1.658815,-0.798841,-0.219098,5.838020,7.258304,0.002000,-0.270503,0.000000
359.000000,0.002000,0.141580,0.809006,0.546878,1.811042,-2.450448,0.254651,-1.752956,-8.428162,-5.676809,0.002000,-0.186971,0.000000
360.000000,0.002000,-1.849511,0.885215,-0.334946,-1.940720,-0.825155,0.354403,3.296242,-1.560785,0.590984,0.002000,-0.630744,0.000000
361.000000,0.002000,0.159622,-0.067464,0.155271,0.814109,0.084203,-1.901981,-10.453008,-4.736383,-3.647977,0.002000,-0.674843,0.000000
362.000000,0.002000,0.482504,0.366119,0.357690,0.786533,-2.410591,1.117506,-10.420829,-7.634264,-7.933684,0.002000,0.208448,0.000000
363.000000,0.002000,-0.023720,-0.019329,0.054139,2.380004,1.706372,-4.047370,-1.185095,1.240661,-6.172803,0.002000,-0.191534,0.000000
364.000000,0.002000,0.321104,0.756073,0.275466,2.491892,0.628110,0.642866,-4.935933,-10.863135,-3.982201,0.002000,0.265902,0.000000
365.000000,0.002000,0.817308,0.763842,-3.244173,0.176019,0.437967,-2.104264,-0.412440,-0.365470,1.575545,0.002000,0.801695,0.000000
366.000000,0.002000,-0.179910,0.146233,0.132055,-0.044272,-0.814816,1.756959,11.002503,-8.387393,-10.422313,0.002000,0.029262,0.000000
367.000000,0.002000,0.905852,0.140821,0.286500,1.186004,-0.412695,2.016006,-10.489334,-1.828128,-4.081200,0.002000,0.141580,0.000000
368.000000,0.002000,-1.292834,0.418440,0.874742,-0.978900,2.876312,-0.732966,3.988767,-1.591094,-2.754494,0.002000,-1.849511,0.000000
369.000000,0.002000,-0.267382,-0.119984,0.298710,-2.272537,-1.536603,-0.301262,10.036085,2.995465,-14.396264,0.002000,0.159622,0.000000
370.000000,0.002000,-0.268198,-0.710130,0.521531,-0.223792,-0.957172,-2.063747,2.907187,9.377365,-5.793612,0.002000,0.482504,0.000000
371.000000,0.002000,0.665682,-0.809320,-0.277978,-1.139203,2.218701,1.097644,-5.832766,7.273329,2.387552,0.002000,-0.023720,0.000000
372.000000,0.002000,0.241688,-0.420439,-0.378535,2.586536,-2.369212,-4.427666,-6.265622,11.578012,10.715616,0.002000,0.321104,0.000000
373.000000,0.002000,1.099797,0.116743,1.481348,-0.999452,0.674943,1.483309,-2.485750,-0.165774,-3.391976,0.002000,0.817308,0.000000
374.000000,0.002000,-1.439921,1.154560,0.265281,0.451506,0.386116,1.443073,2.943428,-2.680426,-0.503710,0.002000,-0.179910,0.000000
375.000000,0.002000,1.125297,-0.593100,0.009026,1.277679,-2.776186,1.724289,-6.581462,3.538289,-0.149336,0.002000,0.905852,0.000000
376.000000,0.002000,-0.000981,0.367674,-0.146203,-0.374589,0.053910,-0.754745,-1.374539,-15.370053,9.188450,0.002000,-1.292834,0.000000
377.000000,0.002000,-0.145967,0.518214,0.976260,-1.466251,-1.469841,3.536495,1.256643,-4.033639,-8.028931,0.002000,-0.267382,0.000000
378.000000,0.002000,0.443594,-2.398315,0.621481,0.148719,-0.392063,0.498988,-0.621319,2.564353,-0.750101,0.002000,-0.268198,0.000000
379.000000,0.002000,-0.057360,-0.025023,-0.026450,-0.309033,1.388412,-0.730918,-2.318819,1.122228,1.046369,0.002000,0.665682,0.000000
380.000000,0.002000,-0.181050,-0.151784,-0.539166,-0.796503,1.516996,-2.264385,4.646055,3.586474,16.057511,0.002000,0.241688,0.000000
381.000000,0.002000,1.701463,0.330140,-1.052377,2.577362,-0.161983,-1.260276,-3.116047,-0.614224,1.992162,0.002000,1.099797,0.000000
382.000000,0.002000,0.481499,-0.165374,0.092736,1.004129,3.075045,-1.759525,-14.754169,5.777104,-3.694376,0.002000,-1.439921,0.000000
383.000000,0.002000,0.488756,0.152666,0.189282,-1.115731,-0.725751,1.733480,-15.033785,-5.439091,-7.386131,0.002000,1.125297,0.000000
384.000000,0.002000,-0.047286,-0.842062,-0.500693,0.206637,-0.094613,1.168070,5.305839,9.077790,3.618087,0.002000,-0.000981,0.000000
385.000000,0.002000,0.505254,0.619815,-0.538661,0.136711,-0.498724,-0.499217,-5.770871,-6.795061,6.243387,0.002000,-0.145967,0.000000
386.000000,0.002000,0.630129,-0.501482,0.039829,-1.788047,0.819221,-0.394619,-10.270371,9.005450,-0.793114,0.002000,0.443594,0.000000
387.000000,0.002000,-1.729388,0.026314,1.124194,-2.083350,-1.003105,1.701754,3.034955,-0.088592,-2.035883,0.002000,-0.057360,0.000000
388.000000,0.002000,-0.349729,-0.096594,-0.387295,-1.829819,0.674786,-2.763081,11.393426,4.173529,15.644014,0.002000,-0.181050,0.000000
389.000000,0.002000,-0.192807,1.015562,1.278679,1.742002,-0.973316,0.866699,0.655997,-2.830635,-3.882555,0.002000,1.701463,0.000000
390.000000,0.002000,-0.617697,-0.578356,-0.388421,0.477635,0.605952,-0.963444,7.685695,8.043393,4.517817,0.002000,0.481499,0.000000
391.000000,0.002000,-0.070472,0.205133,-0.146430,-1.826581,4.725751,-0.690685,2.919490,-12.437709,10.103108,0.002000,0.488756,0.000000
392.000000,0.002000,0.697594,-0.384462,-0.149089,-1.222482,-2.419785,0.294387,-12.159386,6.204450,1.118682,0.002000,-0.047286,0.000000
393.000000,0.002000,-0.412608,-0.431968,0.407764,1.315489,1.547026,0.974661,8.369136,8.896425,-8.052455,0.002000,0.505254,0.000000
394.000000,0.002000,0.849259,-0.376483,-0.351455,-1.170468,-1.160907,0.192125,-9.275044,4.342646,3.646729,0.002000,0.630129,0.000000
395.000000,0.002000,-0.075694,0.526834,-0.854925,0.139482,1.628565,-1.359267,0.400269,-5.520603,8.390608,0.002000,-1.729388,0.000000
396.000000,0.002000,-0.091753,-0.021166,0.217870,0.907141,2.833596,0.443910,4.521814,-0.385225,-14.934203,0.002000,-0.349729,0.000000
397.000000,0.002000,-0.258366,-0.622750,-0.377196,-0.642305,1.784840,1.274077,3.710631,11.794504,6.834933,0.002000,-0.192807,0.000000
398.000000,0.002000,-2.059846,-0.128701,0.417657,0.080406,-0.054722,-0.161873,3.582612,0.600691,-0.497902,0.002000,-0.617697,0.000000
399.000000,0.002000,-2.044830,0.540146,1.142173,-0.372643,0.918642,0.620545,2.875311,-0.713776,-1.607663,0.002000,-0.070472,0.000000
400.000000,0.002000,1.753474,-0.363133,1.129253,0.187512,-1.840979,1.022910,-2.743131,0.698408,-1.836158,0.002000,0.697594,0.000000
401.000000,0.002000,2.310005,0.404024,-1.958199,1.994253,-0.286867,-1.201022,-1.566626,-0.093483,1.505853,0.002000,-0.412608,0.000000
402.000000,0.002000,-0.115531,-0.025247,0.689310,-0.986034,2.684191,-1.389019,1.489486,-0.162001,-14.523612,0.002000,0.849259,0.000000
403.000000,0.002000,-1.026135,0.178751,-0.255639,-3.820397,-0.799954,1.465620,9.362997,-1.665486,2.066725,0.002000,-0.075694,0.000000
404.000000,0.002000,-0.969121,-0.370377,1.288427,1.226812,0.627738,-0.257647,2.968114,0.982299,-4.243914,0.002000,-0.091753,0.000000
405.000000,0.002000,0.137302,0.264552,-0.079647,-1.208681,-0.480619,-3.426622,-8.564128,-12.508315,1.304883,0.002000,-0.258366,0.000000
406.000000,0.002000,-0.007802,0.332460,0.139447,-1.523086,1.106809,-2.331295,0.507263,-17.607956,-7.862710,0.002000,-2.059846,0.000000
407.000000,0.002000,-0.096375,0.056340,0.101395,-2.714885,-3.007671,-1.048903,4.695542,-1.129838,-7.627091,0.002000,-2.044830,0.000000
408.000000,0.002000,-0.701752,-0.115837,-0.274541,2.644754,2.846292,0.685573,13.122617,3.002401,5.456430,0.002000,1.753474,0.000000
409.000000,0.002000,-0.495594,-0.030378,0.154992,0.983713,1.367710,0.497321,15.577541,0.801271,-5.573368,0.002000,2.310005,0.000000
410.000000,0.002000,-0.783815,-1.496552,-1.002553,-0.314889,-1.542029,0.503109,1.109437,3.842927,1.962607,0.002000,-0.115531,0.000000
411.000000,0.002000,0.133050,-0.368556,-1.577726,1.242655,1.061134,0.522634,-0.583736,1.127896,4.823490,0.002000,-1.026135,0.000000
412.000000,0.002000,-2.142295,-1.379373,1.665169,-1.085170,-1.870277,0.753640,1.567530,1.311209,-1.399570,0.002000,-0.969121,0.000000
413.000000,0.002000,0.377472,-0.060276,-0.231516,0.950700,-0.482674,0.332246,-15.616958,1.696536,12.809558,0.002000,0.137302,0.000000
414.000000,0.002000,0.176925,-0.745856,-0.122526,4.414434,-0.123234,2.488661,-2.833769,13.407693,2.187175,0.002000,-0.007802,0.000000
415.000000,0.002000,-0.031659,-0.664448,0.488117,-1.059418,-2.492864,0.026257,0.410980,9.814628,-7.961706,0.002000,-0.096375,0.000000
416.000000,0.002000,-0.030327,-0.265867,0.340803,-3.693634,-2.537852,-1.009632,0.080276,9.213049,-14.404315,0.002000,-0.701752,0.000000
417.000000,0.002000,0.474006,1.456641,2.177695,0.323419,0.448529,1.612625,-0.444573,-1.390946,-2.170661,0.002000,-0.495594,0.000000
418.000000,0.002000,-0.275169,-0.777956,0.911077,0.774199,2.132596,-0.776638,1.695621,5.037172,-5.779074,0.002000,-0.783815,0.000000
419.000000,0.002000,0.414636,1.070146,1.517849,1.995117,2.966357,-0.458891,-0.997293,-2.152501,-3.279109,0.002000,0.133050,0.000000
420.000000,0.002000,-1.905233,0.194660,-1.260696,0.010220,-0.201876,-0.609949,2.640962,-0.214177,1.690714,0.002000,-2.142295,0.000000
421.000000,0.002000,-0.003011,0.327604,-0.473345,0.049210,-0.356224,-2.077060,-0.016077,-9.388898,15.391580,0.002000,0.377472,0.000000
422.000000,0.002000,-2.577457,-1.271827,0.443568,-0.954529,-0.690369,0.434788,1.983703,0.977332,-0.367256,0.002000,0.176925,0.000000
423.000000,0.002000,0.077588,-2.598420,1.893058,-0.495248,-2.043479,1.564066,-0.071152,1.506858,-1.094161,0.002000,-0.031659,0.000000
424.000000,0.002000,0.342639,-1.517035,-0.290113,-1.880677,2.750834,-1.091030,-1.152879,4.965114,1.008733,0.002000,-0.030327,0.000000
425.000000,0.002000,-0.030682,-0.018727,-0.998707,-1.781332,0.820138,-0.465154,0.331689,0.445400,10.485389,0.002000,0.474006,0.000000
426.000000,0.002000,-0.503027,0.407093,-0.783742,-0.176124,0.380978,2.439511,4.786176,-4.001190,7.630893,0.002000,-0.275169,0.000000
427.000000,0.002000,-1.484673,-0.230533,-0.407061,0.157474,1.982242,0.447808,5.091248,0.668069,1.685137,0.002000,0.414636,0.000000
428.000000,0.002000,0.323682,-0.289859,-0.546026,1.453521,-2.735650,1.243284,-6.106546,6.227191,11.983511,0.002000,-1.905233,0.000000
429.000000,0.002000,-0.511092,0.752343,-0.000170,1.232667,1.705985,-0.657910,6.551392,-9.861031,0.121097,0.002000,-0.003011,0.000000
430.000000,0.002000,2.004767,-1.173513,-1.127953,1.598109,-1.075705,-0.119704,-2.143734,1.279960,1.207846,0.002000,-2.577457,0.000000
431.000000,0.002000,-0.407811,-0.230340,0.440771,0.763654,-1.444968,-0.185100,9.990983,4.306820,-5.592411,0.002000,0.077588,0.000000
432.000000,0.002000,0.040685,-1.331788,0.825443,-0.642344,1.426467,-0.598876,-0.348119,4.631300,-2.802781,0.002000,0.342639,0.000000
433.000000,0.002000,0.195136,0.218899,0.184232,-0.369025,-0.004144,-1.035617,-10.780452,-8.865106,-9.580322,0.002000,-0.030682,0.000000
434.000000,0.002000,-1.890379,1.708012,2.202432,1.579550,1.252428,0.436474,0.964368,-0.882092,-1.138609,0.002000,-0.503027,0.000000
435.000000,0.002000,-0.093194,0.507517,0.347935,1.041413,1.348850,-2.781426,1.491263,-12.594137,-10.101837,0.002000,-1.484673,0.000000
436.000000,0.002000,-0.717005,0.205212,-0.706513,-0.378050,-1.876305,2.487436,7.378911,-1.967066,6.990629,0.002000,0.323682,0.000000
437.000000,0.002000,0.121236,-0.096433,0.156736,2.123060,-1.471041,2.840784,-5.227379,6.451450,-9.178617,0.002000,-0.511092,0.000000
438.000000,0.002000,-0.265459,-0.220461,-0.400143,0.910552,0.660394,-0.339705,7.768166,6.605605,13.048668,0.002000,2.004767,0.000000
439.000000,0.002000,0.047696,-0.432666,-0.319657,-1.646479,0.246996,-2.555682,-2.479701,13.045390,9.914835,0.002000,-0.407811,0.000000
440.000000,0.002000,0.264396,0.038697,0.223944,-3.858627,-0.871553,1.467934,-12.672649,-1.628568,-10.604680,0.002000,0.040685,0.000000
441.000000,0.002000,0.125308,0.250102,0.158030,-1.979157,0.945573,-3.566115,-4.857961,-10.151841,-10.783168,0.002000,0.195136,0.000000
442.000000,0.002000,-0.078591,-0.332677,-0.061660,1.061544,-1.018250,-3.071761,4.490769,16.815018,3.469514,0.002000,-1.890379,0.000000
443.000000,0.002000,-0.265254,-0.576518,0.017776,2.611025,3.032361,1.497925,6.222499,14.019050,-0.433135,0.002000,-0.093194,0.000000
444.000000,0.002000,0.213936,-0.528439,-0.132871,0.052979,1.462689,-0.721213,-6.546224,15.810870,3.328622,0.002000,-0.717005,0.000000
445.000000,0.002000,0.005878,0.165016,-0.417122,1.622827,-0.209212,0.997409,-0.477397,-5.997125,17.324188,0.002000,0.121236,0.000000
446.000000,0.002000,0.030803,-0.066500,-0.877310,-1.022590,-0.716199,3.400831,-0.878692,1.127138,12.286902,0.002000,-0.265459,0.000000
447.000000,0.002000,-0.353561,0.623564,0.102840,1.589644,-2.195943,0.224616,9.756920,-13.900525,2.057992,0.002000,0.047696,0.000000
448.000000,0.002000,-1.193253,0.857233,-0.282442,-0.742818,0.339299,1.815501,4.527282,-3.329001,1.080909,0.002000,0.264396,0.000000
449.000000,0.002000,0.326484,0.166125,0.288480,1.575667,-1.446595,1.550483,-14.726664,-5.113318,-11.484874,0.002000,0.125308,0.000000
450.000000,0.002000,0.202185,0.422427,-1.244334,-1.148383,0.223274,1.870814,-0.956782,-1.957224,6.478942,0.002000,-0.078591,0.000000
451.000000,0.002000,1.953219,-1.027361,-2.508821,0.452867,-2.648491,0.133490,-1.024256,0.522801,1.312388,0.002000,-0.265254,0.000000
452.000000,0.002000,-2.246245,0.926737,0.836200,-1.551269,2.286633,1.017971,2.413043,-1.065629,-0.892330,0.002000,0.213936,0.000000
453.000000,0.002000,2.302794,-0.700109,1.192636,1.409889,-0.570105,-0.073284,-2.124207,0.663069,-1.185967,0.002000,0.005878,0.000000
454.000000,0.002000,0.471652,0.531265,-0.160556,-0.710640,-2.416878,-1.608683,-10.678974,-10.676545,3.787807,0.002000,0.030803,0.000000
455.000000,0.002000,-0.215998,-1.718829,0.569661,-0.453799,0.754546,-0.778211,0.594224,3.977605,-1.432177,0.002000,-0.353561,0.000000
456.000000,0.002000,0.076679,-0.218460,0.165722,1.167522,0.660922,-1.435219,-3.773947,3.241670,-10.966768,0.002000,-1.193253,0.000000
457.000000,0.002000,-0.881650,-1.947247,-0.265061,0.223316,0.250161,0.458257,1.302728,3.137127,0.378248,0.002000,0.326484,0.000000
458.000000,0.002000,-0.147603,-0.564274,-0.156708,0.013933,-2.556000,2.309551,3.140384,14.640581,4.629320,0.002000,0.202185,0.000000
459.000000,0.002000,0.179381,0.102003,-0.954756,2.553949,-2.203083,-0.033635,-2.274901,-0.732553,10.645597,0.002000,1.953219,0.000000
460.000000,0.002000,-0.174990,0.192482,-0.069043,-1.417737,0.730894,-0.797956,8.731438,-13.389108,7.470530,0.002000,-2.246245,0.000000
461.000000,0.002000,0.923692,-0.212143,-0.225712,-1.937858,-0.416039,-2.138171,-10.745446,2.404579,2.770807,0.002000,2.302794,0.000000
462.000000,0.002000,0.101176,0.214043,0.317604,3.940964,-2.609571,-2.059476,-0.010380,-5.362226,-12.522869,0.002000,0.471652,0.000000
463.000000,0.002000,0.135012,0.645392,0.621869,1.359245,-0.457770,1.422023,-2.083752,-7.427823,-7.925497,0.002000,-0.215998,0.000000
464.000000,0.002000,-0.620445,-0.371644,0.243798,-2.523962,1.250693,-1.619569,9.641225,7.476493,-4.780476,0.002000,0.076679,0.000000
465.000000,0.002000,0.072368,0.358052,-0.466553,0.331946,4.711682,1.944071,-2.724991,-10.975817,15.729789,0.002000,-0.881650,0.000000
466.000000,0.002000,1.452932,-1.524588,-0.526696,0.403344,-1.142875,-2.092439,-2.169041,2.329419,0.881651,0.002000,-0.147603,0.000000
467.000000,0.002000,-0.368628,-0.131963,-0.241499,2.199100,-0.443618,0.525802,13.480940,6.857195,9.776862,0.002000,0.179381,0.000000
468.000000,0.002000,-1.321821,0.482274,-0.549909,-3.600593,0.118428,0.469622,5.306873,-1.774598,2.276645,0.002000,-0.174990,0.000000
469.000000,0.002000,-0.101001,-0.137342,0.173234,2.251598,-1.712346,2.233233,6.627243,8.166759,-12.966637,0.002000,0.923692,0.000000
470.000000,0.002000,-1.113046,-0.660860,0.122629,-3.939726,0.628618,0.118651,6.075442,4.567874,-0.477062,0.002000,0.101176,0.000000
471.000000,0.002000,0.905253,0.595447,-1.250702,-0.500528,-1.409606,0.461643,-3.239477,-1.941438,3.572771,0.002000,0.135012,0.000000
472.000000,0.002000,-0.049477,0.884770,0.866217,-2.480803,2.945401,-0.997374,1.293905,-4.957932,-5.722271,0.002000,-0.620445,0.000000
473.000000,0.002000,-0.356865,2.343538,2.923828,-2.420680,0.459091,2.131554,0.129520,-0.864595,-1.099030,0.002000,0.072368,0.000000
474.000000,0.002000,0.206212,0.412460,-0.565709,2.934095,1.359759,1.772241,-5.370853,-8.597109,13.193901,0.002000,1.452932,0.000000
475.000000,0.002000,-0.193503,-0.817236,-0.507619,-1.489358,0.549590,0.182637,1.730105,9.180455,5.698015,0.002000,-0.368628,0.000000
476.000000,0.002000,0.458786,-2.060128,0.551648,0.682065,-0.323115,1.112023,-0.827460,3.123295,-0.832392,0.002000,-1.321821,0.000000
477.000000,0.002000,0.371357,0.381021,0.253008,-1.082668,0.239099,3.112014,-11.419632,-10.070672,-8.544673,0.002000,-0.101001,0.000000
478.000000,0.002000,1.251499,2.581666,-1.152063,0.533367,2.479031,-1.103418,-0.811819,-1.672486,0.773014,0.002000,-1.113046,0.000000
479.000000,0.002000,0.205440,-0.402493,-0.479680,1.784954,-0.860344,2.382570,-4.409027,10.424023,12.992963,0.002000,0.905253,0.000000
480.000000,0.002000,-0.949830,-2.108241,-0.944807,-1.153840,-0.789071,0.295334,1.068209,2.380722,1.036644,0.002000,-0.049477,0.000000
481.000000,0.002000,-1.512095,-1.217814,0.507822,0.693493,-0.873323,1.000145,2.586494,2.286386,-0.927219,0.002000,-0.356865,0.000000
482.000000,0.002000,0.182490,1.839647,-1.150117,0.622563,0.870273,0.551917,-0.387001,-2.825715,1.808489,0.002000,0.206212,0.000000
483.000000,0.002000,3.139567,-1.085614,-0.992238,2.557359,-0.956089,-0.523592,-1.469851,0.501950,0.467592,0.002000,-0.193503,0.000000
484.000000,0.002000,-0.077344,-0.516603,0.039077,1.233380,1.254796,0.661801,2.783471,16.095864,-1.788925,0.002000,0.458786,0.000000
485.000000,0.002000,0.068901,0.147502,-0.094025,-1.270377,-1.385617,-0.081529,-7.178607,-9.956610,3.389018,0.002000,0.371357,0.000000
486.000000,0.002000,-1.005398,-1.206071,-0.027954,-0.024910,-0.525478,-2.395177,3.598808,4.160871,0.083606,0.002000,1.251499,0.000000
487.000000,0.002000,0.558348,2.241794,0.785145,-0.477238,1.386829,2.033279,-0.681633,-2.712417,-0.972202,0.002000,0.205440,0.000000
488.000000,0.002000,0.142779,0.052007,1.080888,2.349466,-1.360997,2.760414,-0.859656,-0.762144,-9.034941,0.002000,-0.949830,0.000000
489.000000,0.002000,-0.049945,0.536570,0.196729,-1.331242,3.284233,-1.977569,1.837363,-13.907398,-9.427254,0.002000,-1.512095,0.000000
490.000000,0.002000,1.593536,-0.022938,0.868079,0.729488,0.667795,-0.793217,-3.726216,0.108551,-2.016987,0.002000,0.182490,0.000000
491.000000,0.002000,0.442026,-0.054831,0.240586,-0.364310,0.582936,0.870637,-15.160344,1.539892,-8.649076,0.002000,3.139567,0.000000
492.000000,0.002000,-0.279064,-0.175468,-0.357999,1.224659,1.077998,-0.221160,9.593479,7.306475,13.756483,0.002000,-0.077344,0.000000
493.000000,0.002000,-1.095411,0.072594,0.525048,2.225301,0.511182,0.939407,6.918057,-0.323321,-3.549773,0.002000,0.068901,0.000000
494.000000,0.002000,0.243545,-0.064297,-0.193840,-2.477088,1.211202,-1.270945,-11.409992,0.391662,9.680758,0.002000,-1.005398,0.000000
495.000000,0.002000,-0.197311,0.052533,0.032211,-1.847582,0.833495,3.116978,15.830817,-2.501047,0.372863,0.002000,0.558348,0.000000
496.000000,0.002000,2.107163,0.159026,-1.200424,0.908550,0.832890,0.141734,-2.467649,-0.141666,1.463473,0.002000,0.142779,0.000000
497.000000,0.002000,2.602845,-5.229389,-3.094732,-0.492203,-2.044585,-0.694225,-0.180468,0.361599,0.213635,0.002000,-0.049945,0.000000
498.000000,0.002000,0.094107,0.656923,-0.373161,-2.083926,0.438790,0.391442,-2.308291,-12.192055,5.133467,0.002000,1.593536,0.000000
499.000000,0.002000,-0.316752,-1.898942,1.668338,-1.119251,-0.046728,0.490788,0.351211,2.014201,-1.790068,0.002000,0.442026,0.000000
500.000000,0.002000,0.294855,0.442954,0.535588,0.591242,-0.864182,2.082808,-5.186874,-7.890861,-10.272717,0.002000,-0.279064,0.000000
501.000000,0.002000,0.110807,-0.069766,-0.146590,1.484073,0.684767,-0.633641,-6.223458,5.257169,11.003153,0.002000,-1.095411,0.000000
502.000000,0.002000,-0.385855,-0.729817,0.521261,3.007678,0.580018,0.038572,4.463301,8.353345,-5.691739,0.002000,0.243545,0.000000
503.000000,0.002000,0.043086,0.491501,-0.127163,-0.113952,0.739478,3.032578,-2.190440,-16.631271,3.934922,0.002000,-0.197311,0.000000
504.000000,0.002000,-1.115287,-0.020174,-0.120959,1.721434,-1.060083,2.168330,9.299962,0.438296,0.856879,0.002000,2.107163,0.000000
505.000000,0.002000,0.364129,0.482785,0.105898,-2.828063,-3.397890,0.251232,-8.896302,-11.021469,-2.617735,0.002000,2.602845,0.000000
506.000000,0.002000,-0.101917,-0.815552,0.145165,-0.193143,1.719704,0.194994,1.293125,12.744796,-1.713876,0.002000,0.094107,0.000000
507.000000,0.002000,0.394578,-0.047131,0.813168,-3.155632,0.651220,-0.401965,-4.448310,0.991143,-9.844639,0.002000,-0.316752,0.000000
508.000000,0.002000,1.668953,-1.478349,-0.846262,0.384976,-0.639849,0.614312,-2.030205,1.899806,0.755331,0.002000,0.294855,0.000000
509.000000,0.002000,-0.454556,-0.859441,-0.861445,0.553247,2.208074,0.913508,2.428199,4.788635,4.690201,0.002000,0.110807,0.000000
510.000000,0.002000,-1.499730,0.846593,1.373808,-1.626391,0.281182,2.412673,2.119655,-1.233939,-2.170670,0.002000,-0.385855,0.000000
511.000000,0.002000,2.438550,-3.054986,-1.828220,1.715246,-1.053468,1.033288,-0.604924,0.744801,0.479425,0.002000,0.043086,0.000000
512.000000,0.002000,0.122681,0.113305,0.514432,2.958354,-0.011433,-1.480280,-5.568664,-2.653268,-16.298405,0.002000,-1.115287,0.000000
513.000000,0.002000,-0.108465,0.040235,-1.398545,-2.641412,-0.655830,-2.595547,0.135615,-0.083995,6.359383,0.002000,0.364129,0.000000
514.000000,0.002000,-0.630667,0.670619,0.154084,2.885196,-0.048358,-1.400165,7.969468,-8.401198,-1.879269,0.002000,-0.101917,0.000000
515.000000,0.002000,-0.881131,2.230922,1.232919,-0.506791,1.341489,1.086753,0.761139,-2.107168,-1.191939,0.002000,0.394578,0.000000
516.000000,0.002000,0.436461,-0.083568,0.199384,0.369755,0.091312,0.948257,-15.867175,3.515272,-7.275098,0.002000,1.668953,0.000000
517.000000,0.002000,0.248190,-0.482679,0.510801,-0.083427,0.991652,1.790698,-4.973111,8.603662,-10.041958,0.002000,-0.454556,0.000000
518.000000,0.002000,0.178195,0.498241,0.041672,-0.754077,-0.078578,2.013812,-3.945620,-16.190344,-2.316019,0.002000,-1.499730,0.000000
519.000000,0.002000,0.057558,-0.509945,-0.018670,0.696658,-2.769260,-0.329161,-2.939314,17.688485,-0.451789,0.002000,2.438550,0.000000
520.000000,0.002000,-0.608336,0.412375,-0.257042,-0.331734,-1.896713,0.242610,10.887840,-7.609887,5.099299,0.002000,0.122681,0.000000
521.000000,0.002000,0.214848,0.842805,0.087702,-1.990320,1.638877,1.665200,-3.186062,-12.042938,-1.182063,0.002000,-0.108465,0.000000
522.000000,0.002000,0.301733,-0.122952,0.023900,1.209251,2.535836,1.238587,-15.265667,6.511705,-0.208232,0.002000,-0.630667,0.000000
523.000000,0.002000,-0.074866,-0.091598,-0.430219,3.168770,-1.364761,1.874720,4.499244,3.679945,18.789077,0.002000,-0.881131,0.000000
524.000000,0.002000,0.866739,1.009466,-0.047118,2.221301,2.427740,-0.150310,-4.506265,-5.176411,0.237006,0.002000,0.436461,0.000000
525.000000,0.002000,1.776120,1.542022,-0.330950,-0.262256,-0.188078,0.590846,-2.351804,-1.881365,0.347980,0.002000,0.248190,0.000000
526.000000,0.002000,-0.536434,-0.547897,-0.124616,-0.371028,-1.650422,1.441211,9.349746,10.019630,1.618619,0.002000,0.178195,0.000000
527.000000,0.002000,0.176301,0.010413,-0.249701,-1.747269,-0.927274,-3.824460,-14.806474,0.266847,12.552256,0.002000,0.057558,0.000000
528.000000,0.002000,1.426904,-1.082303,2.087564,1.720596,-0.315682,-0.486174,-1.235859,0.929376,-1.908722,0.002000,-0.608336,0.000000
529.000000,0.002000,0.283630,0.192447,-0.446260,-0.706710,1.734717,-1.338236,-8.020642,-6.136264,16.132970,0.002000,0.214848,0.000000
530.000000,0.002000,-0.478126,-1.936577,-0.911968,1.331575,-2.613737,-1.084928,0.659074,2.970957,1.384804,0.002000,0.301733,0.000000
531.000000,0.002000,0.598601,-0.069512,1.758684,-1.047409,0.004717,-0.174328,-1.296853,0.404026,-4.090229,0.002000,-0.074866,0.000000
532.000000,0.002000,-0.421383,1.017174,1.118823,2.487108,0.886900,1.095114,1.551709,-3.790673,-4.200456,0.002000,0.866739,0.000000
533.000000,0.002000,1.291317,0.685903,-1.324510,-1.141339,1.202356,-0.983350,-2.612716,-1.390182,2.495958,0.002000,1.776120,0.000000
534.000000,0.002000,-0.112256,0.095905,0.102674,1.820023,-0.684534,1.577800,8.249962,-6.585243,-8.860870,0.002000,-0.536434,0.000000
535.000000,0.002000,1.349009,1.352088,1.559116,0.991695,1.111142,1.009110,-1.552717,-1.400852,-1.914950,0.002000,0.176301,0.000000
536.000000,0.002000,-1.292111,-2.228476,-0.393077,-0.499935,-0.611622,-0.252037,1.238460,2.284725,0.297860,0.002000,1.426904,0.000000
537.000000,0.002000,0.325180,-0.068150,0.984040,-1.615762,-1.901617,-1.677490,-3.304017,1.707714,-9.650898,0.002000,0.283630,0.000000
538.000000,0.002000,1.134494,-1.510650,-0.420040,-2.031833,1.829576,0.929663,-2.404665,2.833518,0.826012,0.002000,-0.478126,0.000000
539.000000,0.002000,0.004334,0.357492,1.092853,-1.898022,-0.803854,2.995512,-0.074119,-2.554192,-7.858013,0.002000,0.598601,0.000000
540.000000,0.002000,-0.260875,0.632970,-0.060917,-0.632162,-2.614554,-0.094237,6.754353,-15.257034,1.165422,0.002000,-0.421383,0.000000
541.000000,0.002000,0.269308,1.701129,1.517766,-0.321237,-0.140301,0.001430,-0.171284,-2.596836,-2.219398,0.002000,1.291317,0.000000
542.000000,0.002000,0.497043,0.006119,0.956863,-2.422418,0.106668,0.732313,-4.222968,0.121895,-9.183267,0.002000,-0.112256,0.000000
543.000000,0.002000,0.310214,-0.053758,0.644398,1.470100,1.117333,1.578454,-7.318954,1.230888,-13.504650,0.002000,1.349009,0.000000
544.000000,0.002000,0.030979,-0.317836,0.296687,1.725353,1.088585,-1.960351,-1.465722,12.328014,-13.211010,0.002000,-1.292111,0.000000
545.000000,0.002000,0.591138,-1.626803,-0.187541,1.320269,-1.459473,-0.757706,-1.893699,4.304786,0.587305,0.002000,0.325180,0.000000
546.000000,0.002000,0.102973,-0.109309,0.090773,-3.258452,-0.829669,1.463851,-7.747676,5.416588,-6.757418,0.002000,1.134494,0.000000
547.000000,0.002000,0.131450,0.398277,-0.311795,-0.147151,1.753610,-2.091617,-4.044785,-12.130691,9.867029,0.002000,0.004334,0.000000
548.000000,0.002000,-1.005119,1.658518,1.590336,0.203331,0.905660,0.519586,1.194355,-1.934164,-1.818104,0.002000,-0.260875,0.000000
549.000000,0.002000,-2.171744,-0.131885,0.381971,-1.360709,1.820669,-1.002343,3.527131,0.460092,-0.469404,0.002000,0.269308,0.000000
550.000000,0.002000,0.125381,-0.890715,0.091299,-0.232341,-1.908987,-1.687668,-1.695443,11.532194,-1.170317,0.002000,0.497043,0.000000
551.000000,0.002000,0.961711,0.996193,1.187531,2.866987,1.434161,0.012142,-2.488594,-2.178903,-3.036177,0.002000,0.310214,0.000000
552.000000,0.002000,0.205802,0.007714,0.868909,-1.425937,1.518089,1.343577,-2.788344,0.093371,-11.619055,0.002000,0.030979,0.000000
553.000000,0.002000,1.027696,-0.724384,-2.035380,1.701027,-1.261907,-0.666900,-1.335177,0.896728,2.565566,0.002000,0.591138,0.000000
554.000000,0.002000,0.148960,-0.093767,0.028284,-1.966473,-1.272068,-1.175179,-11.167602,4.888525,-5.619999,0.002000,0.102973,0.000000
555.000000,0.002000,0.071595,-0.967054,-0.309284,1.403682,-1.498238,-1.000428,-0.658626,9.846110,3.083324,0.002000,0.131450,0.000000
556.000000,0.002000,-0.216397,-0.112923,0.406949,-0.813238,-2.724545,3.444311,7.467665,3.067649,-15.436967,0.002000,-1.005119,0.000000
557.000000,0.002000,0.210628,0.043602,0.752678,-2.483014,-0.177334,-0.166817,-3.895572,-1.396000,-12.754689,0.002000,-2.171744,0.000000
558.000000,0.002000,0.876057,1.105313,1.934559,1.292628,-0.835202,1.468696,-1.272990,-1.305045,-2.436523,0.002000,0.125381,0.000000
559.000000,0.002000,-1.047839,-0.619099,-0.210018,-0.227762,1.981726,-3.003178,6.917110,4.034162,1.163741,0.002000,0.961711,0.000000
560.000000,0.002000,0.021073,-0.092856,-2.040651,0.194934,2.410957,-1.284591,-0.150077,0.115805,3.623382,0.002000,0.205802,0.000000
561.000000,0.002000,0.027581,-0.391524,-0.223417,1.119802,3.367511,-1.213917,-1.125006,16.019578,9.857052,0.002000,1.027696,0.000000
562.000000,0.002000,-0.023615,-1.978773,-0.008956,-2.915906,0.806988,0.078158,0.213020,3.478845,-0.032427,0.002000,0.148960,0.000000
563.000000,0.002000,1.737773,-1.172082,-1.177405,1.157031,-1.005598,0.305302,-2.166532,1.418633,1.351469,0.002000,0.071595,0.000000
564.000000,0.002000,2.106874,-1.209078,0.288660,-0.055315,-1.361782,1.093652,-2.470102,1.417870,-0.368071,0.002000,-0.216397,0.000000
565.000000,0.002000,1.571983,-1.055770,-0.596440,-2.705061,0.033072,0.086375,-2.842117,1.994459,1.052900,0.002000,0.210628,0.000000
566.000000,0.002000,0.607850,0.447586,-1.107023,-0.027572,-1.328099,1.650310,-3.456772,-2.180694,5.111858,0.002000,0.876057,0.000000
567.000000,0.002000,1.952448,-0.588997,1.602242,1.692016,-0.171482,0.562709,-1.986051,0.730603,-1.686068,0.002000,-1.047839,0.000000
568.000000,0.002000,-0.109506,-0.330495,0.344108,-0.404825,1.455672,-1.885928,2.774856,11.578502,-12.719873,0.002000,0.021073,0.000000
569.000000,0.002000,-0.247734,0.769742,-1.511006,-0.762434,1.540505,1.226244,0.638292,-2.104161,4.183916,0.002000,0.027581,0.000000
570.000000,0.002000,0.504894,-3.947495,2.836217,0.552832,-0.172429,0.438667,-0.088151,0.665471,-0.480016,0.002000,-0.023615,0.000000
571.000000,0.002000,-0.070261,0.591942,0.506975,-1.782700,-0.863209,2.354742,1.140745,-10.014185,-9.372811,0.002000,1.737773,0.000000
572.000000,0.002000,2.013206,-0.558549,0.160331,1.241906,-1.291770,-0.811810,-3.333536,0.950844,-0.268930,0.002000,2.106874,0.000000
573.000000,0.002000,-0.015373,0.149820,-0.067745,-0.529176,-3.497132,1.254123,-5.298307,-8.021106,3.152374,0.002000,1.571983,0.000000
574.000000,0.002000,1.175810,-0.554980,-0.711360,-1.709487,-0.485794,-1.392539,-4.686574,2.196184,2.765687,0.002000,0.607850,0.000000
575.000000,0.002000,-0.222840,1.893144,0.267142,0.804082,2.627635,-0.009727,0.473838,-3.822057,-0.484639,0.002000,1.952448,0.000000
576.000000,0.002000,-0.347452,-0.783953,0.227661,-1.751713,-0.017712,-0.479796,4.424058,10.637393,-2.847611,0.002000,-0.109506,0.000000
577.000000,0.002000,-0.414637,0.167997,0.616467,-1.602126,-0.051788,-1.729422,7.281334,-3.120673,-11.171993,0.002000,-0.247734,0.000000
578.000000,0.002000,2.264268,3.547682,0.039983,-0.162817,-0.398725,-1.028835,-0.614613,-0.947332,-0.009395,0.002000,0.504894,0.000000
579.000000,0.002000,0.010228,-1.923389,1.671333,0.021055,0.003229,0.913883,-0.033322,2.011584,-1.781651,0.002000,-0.070261,0.000000
580.000000,0.002000,0.162336,-0.342511,-0.295502,3.143781,-3.275119,0.745624,-4.548607,11.957305,10.939710,0.002000,2.013206,0.000000
581.000000,0.002000,0.262506,0.349525,-0.253801,2.423603,-3.057913,-1.243691,-11.323268,-12.903141,11.034251,0.002000,-0.015373,0.000000
582.000000,0.002000,0.708737,0.818570,2.272090,-0.067391,1.203111,1.834461,-0.886213,-0.836807,-2.610759,0.002000,1.175810,0.000000
583.000000,0.002000,-0.508451,1.099187,4.207523,1.168772,1.489804,0.037347,0.112524,-0.253477,-0.995264,0.002000,-0.222840,0.000000
584.000000,0.002000,-0.287289,0.365894,-0.584738,-1.824786,2.061202,-0.158535,4.888167,-7.587767,11.883889,0.002000,-0.347452,0.000000
585.000000,0.002000,-2.027592,-0.450680,0.981733,0.348486,-1.018301,0.766505,2.905695,0.846234,-1.424387,0.002000,-0.414637,0.000000
586.000000,0.002000,0.450855,0.091092,-0.336826,1.219491,-0.625048,-0.267961,-15.109837,-3.848322,10.928932,0.002000,2.264268,0.000000
587.000000,0.002000,0.580189,2.057723,-1.440916,0.974168,0.467778,-0.382414,-0.653664,-2.064625,1.618511,0.002000,0.010228,0.000000
588.000000,0.002000,-0.323573,0.779575,-0.422142,0.835467,-3.281992,0.441204,4.333208,-9.596289,6.865784,0.002000,0.162336,0.000000
589.000000,0.002000,0.511317,0.290352,1.328693,-0.937294,1.703514,-0.839369,-2.210655,-1.400046,-5.277659,0.002000,0.262506,0.000000
590.000000,0.002000,1.269064,2.155509,0.264126,1.185897,0.787724,1.460567,-1.519887,-2.190829,-0.267014,0.002000,0.708737,0.000000
591.000000,0.002000,0.344131,-0.065050,-0.193778,-1.665713,-2.429621,0.850832,-13.884995,1.882764,9.512920,0.002000,-0.508451,0.000000
592.000000,0.002000,-0.268732,-0.089891,-0.197642,-2.331383,-3.014250,-0.719213,14.508266,4.835872,9.950161,0.002000,-0.287289,0.000000
593.000000,0.002000,-1.610836,0.913583,1.439627,-1.096819,1.231012,0.987975,2.135544,-1.217116,-1.980679,0.002000,-2.027592,0.000000
594.000000,0.002000,-0.861632,-1.865468,0.049058,-0.498985,-1.594868,1.911432,1.538061,3.293951,-0.148586,0.002000,0.450855,0.000000
595.000000,0.002000,0.199782,0.351090,0.169872,-1.405071,3.748209,0.719025,-9.259012,-14.659702,-7.230902,0.002000,0.580189,0.000000
596.000000,0.002000,-2.225059,2.009679,-0.015066,-1.573848,0.641803,0.424249,1.546102,-1.430464,0.038038,0.002000,-0.323573,0.000000
597.000000,0.002000,-1.697861,-0.588200,-1.020749,0.286622,-1.743376,-0.173521,2.985745,1.117020,1.624495,0.002000,0.511317,0.000000
598.000000,0.002000,-0.117299,0.455480,0.065008,-1.982773,-1.034509,-3.242673,4.924337,-15.581965,-1.043400,0.002000,1.269064,0.000000
599.000000,0.002000,-1.087277,-0.694429,-0.218447,0.048212,0.955614,2.057456,6.026555,3.960590,1.224896,0.002000,0.344131,0.000000
600.000000,0.002000,-0.675649,-1.274632,-0.136179,1.236891,0.753732,0.933784,2.830104,5.473374,0.723762,0.002000,-0.268732,0.000000
601.000000,0.002000,0.129098,0.155281,0.875843,-2.228464,2.512178,-0.604667,-1.395753,-2.263676,-11.168383,0.002000,-1.610836,0.000000
602.000000,0.002000,-0.125648,-0.017217,0.096940,-4.221288,3.167257,-0.462683,9.915435,-2.141122,-18.271069,0.002000,-0.861632,0.000000
603.000000,0.002000,0.116281,-1.411474,-1.062120,-2.113494,-1.227043,-1.351973,-0.202285,3.654130,2.684394,0.002000,0.199782,0.000000
604.000000,0.002000,0.316065,0.567020,0.103404,2.642872,0.728530,0.311322,-7.923402,-13.900667,-2.180345,0.002000,-2.225059,0.000000
605.000000,0.002000,-0.446625,0.079836,0.063651,2.689729,1.597716,2.402808,21.240751,-2.351239,-3.332866,0.002000,-1.697861,0.000000
606.000000,0.002000,0.594078,-0.880035,0.175936,4.192318,0.159419,-1.820705,-5.009049,8.213684,-1.446828,0.002000,-0.117299,0.000000
607.000000,0.002000,0.154554,0.417608,-0.932998,1.897816,0.981144,1.382222,-1.488540,-4.049488,8.630395,0.002000,-1.087277,0.000000
608.000000,0.002000,-0.287722,0.381798,-0.052519,-0.888138,1.061407,1.353924,11.365464,-15.006533,0.389540,0.002000,-0.675649,0.000000
609.000000,0.002000,1.224324,0.768481,0.643752,2.372677,0.563954,1.672929,-4.218512,-2.593484,-2.075684,0.002000,0.129098,0.000000
610.000000,0.002000,-0.274460,-0.344459,-0.197543,0.734872,2.226305,0.513929,8.738112,16.173248,8.702621,0.002000,-0.125648,0.000000
611.000000,0.002000,0.006967,-0.332149,0.401799,-0.075794,-1.115550,-2.115180,-0.298293,9.938384,-15.303335,0.002000,0.116281,0.000000
612.000000,0.002000,-0.340612,0.089030,-0.215340,-1.438512,0.743391,0.763246,16.332824,-2.731421,8.442715,0.002000,0.316065,0.000000
613.000000,0.002000,-0.146520,0.192986,-0.405125,0.550239,1.396096,-2.198260,5.748313,-5.531686,14.866585,0.002000,-0.446625,0.000000
614.000000,0.002000,0.224285,-0.118328,-0.264750,-1.669290,-1.236000,-3.731139,-9.422647,1.046297,13.413210,0.002000,0.594078,0.000000
615.000000,0.002000,0.056081,0.831769,-0.016365,1.122669,2.212925,1.394776,-1.351732,-13.539054,-0.628447,0.002000,0.154554,0.000000
616.000000,0.002000,-0.325090,0.060202,0.523127,-2.750345,-0.347749,-1.140604,7.667793,-4.696882,-13.863260,0.002000,-0.287722,0.000000
617.000000,0.002000,-0.485945,-0.365627,-0.534847,-0.722663,0.404627,-0.835025,8.500430,6.743881,9.814837,0.002000,1.224324,0.000000
618.000000,0.002000,-0.261816,0.299280,-0.099279,-0.276933,-1.310688,-1.648596,10.820185,-10.216633,2.176050,0.002000,-0.274460,0.000000
619.000000,0.002000,0.438140,0.612107,-2.247131,0.598638,0.512641,-1.848679,-0.462104,-0.495012,2.773884,0.002000,0.006967,0.000000
620.000000,0.002000,0.225134,0.438046,0.407374,-2.198672,-0.630396,-1.755095,-4.535724,-10.922431,-12.137891,0.002000,-0.340612,0.000000
621.000000,0.002000,0.352796,0.374126,0.183465,0.928469,3.544962,-1.952554,-10.009964,-10.609566,-5.325757,0.002000,-0.146520,0.000000
622.000000,0.002000,0.058970,0.138838,-0.552335,3.419678,-2.356676,0.502559,-1.781528,-4.959891,16.522424,0.002000,0.224285,0.000000
623.000000,0.002000,0.115375,-0.274248,-0.166986,-1.147335,1.299178,-0.255154,-4.671377,14.641779,7.071042,0.002000,0.056081,0.000000
624.000000,0.002000,-0.448133,0.102001,-0.031510,-1.018234,-1.350472,0.241123,18.585852,-5.681896,-0.934077,0.002000,-0.325090,0.000000
625.000000,0.002000,0.551187,2.112759,0.792297,0.257531,1.862172,1.148573,-0.776587,-2.643324,-1.122842,0.002000,-0.485945,0.000000
626.000000,0.002000,0.341669,-0.195178,0.409134,3.589874,1.562189,0.317234,-8.849180,5.753996,-13.204688,0.002000,-0.261816,0.000000
627.000000,0.002000,0.018021,0.247295,-0.473546,1.337752,0.708673,1.200131,-1.154055,-7.876975,16.267110,0.002000,0.438140,0.000000
628.000000,0.002000,-0.228822,0.623843,-0.676383,1.239012,-1.328402,-1.958148,2.589754,-7.396960,7.744469,0.002000,0.225134,0.000000
629.000000,0.002000,-0.485991,0.098617,-0.921013,-2.151862,0.990221,2.085686,4.078266,-0.548742,9.171083,0.002000,0.352796,0.000000
630.000000,0.002000,-0.227739,0.009627,-0.094840,-3.353239,-0.779609,3.405500,14.813904,-2.781157,7.181583,0.002000,0.058970,0.000000
631.000000,0.002000,2.614086,-0.447261,0.871504,0.717800,0.434105,0.366805,-2.230420,0.362001,-0.709414,0.002000,0.115375,0.000000
632.000000,0.002000,-0.519400,-0.468785,0.308590,-0.196974,2.020667,-0.436064,9.088878,8.910323,-5.047261,0.002000,-0.448133,0.000000
633.000000,0.002000,0.540515,1.622037,-1.783353,1.747072,0.675701,-1.788116,-0.643619,-1.912141,2.082503,0.002000,0.551187,0.000000
634.000000,0.002000,-0.711120,0.300156,-0.490199,-1.542668,-0.532914,0.883811,9.295422,-4.203607,6.722549,0.002000,0.341669,0.000000
635.000000,0.002000,0.179918,0.295048,0.162624,2.204073,1.141902,2.942955,-12.505641,-11.547342,-8.156271,0.002000,0.018021,0.000000
636.000000,0.002000,-0.206711,-0.535994,0.218470,0.296346,-0.313087,-0.607668,4.969471,15.067087,-5.202112,0.002000,-0.228822,0.000000
637.000000,0.002000,1.318696,1.700455,-0.817193,0.443323,0.767691,0.350498,-1.816072,-2.421277,1.267413,0.002000,-0.485991,0.000000
638.000000,0.002000,2.512917,0.309961,0.901420,0.749482,0.200047,0.404178,-2.288727,-0.285403,-0.756050,0.002000,-0.227739,0.000000
639.000000,0.002000,0.685687,-0.316176,-0.928378,-0.042779,0.558508,2.618719,-4.619281,2.070397,6.321926,0.002000,2.614086,0.000000
640.000000,0.002000,-0.852141,0.049117,-0.275398,1.945147,-0.289123,0.027464,11.914106,1.256553,5.891454,0.002000,-0.519400,0.000000
641.000000,0.002000,0.220209,0.333400,0.850795,-1.655362,1.471047,-0.546027,-2.802673,-5.003368,-9.606447,0.002000,0.540515,0.000000
642.000000,0.002000,-0.039100,-0.099579,0.195486,-0.246427,1.047769,3.634036,0.923512,2.863710,-12.080323,0.002000,-0.711120,0.000000
643.000000,0.002000,-2.199571,-0.361063,0.036973,-1.279782,1.537160,1.012213,3.545762,0.928566,0.062680,0.002000,0.179918,0.000000
644.000000,0.002000,0.773445,-1.044307,-0.755196,0.091540,1.910306,-0.332718,-2.929689,4.116239,2.594306,0.002000,-0.206711,0.000000
645.000000,0.002000,-0.240912,0.273075,0.252355,0.123615,2.260804,0.216282,8.961654,-10.944900,-12.108064,0.002000,1.318696,0.000000
646.000000,0.002000,-1.073882,1.119673,2.234291,-0.186893,0.704559,1.281092,0.778602,-0.525471,-1.724953,0.002000,2.512917,0.000000
647.000000,0.002000,1.018310,-1.164546,-1.234443,0.610081,-0.619139,1.188743,-2.126609,2.640584,2.409729,0.002000,0.685687,0.000000
648.000000,0.002000,0.997565,-0.654759,0.000999,-1.690844,-0.720580,0.614280,-6.920459,4.719112,-0.027628,0.002000,-0.852141,0.000000
649.000000,0.002000,0.023826,-0.139152,0.006062,-0.351876,-1.733901,-0.953004,-1.394430,11.156315,0.088743,0.002000,0.220209,0.000000
650.000000,0.002000,-1.382953,0.176766,0.584097,-1.792002,-3.319298,0.530675,5.589329,-1.249161,-2.003062,0.002000,-0.039100,0.000000
651.000000,0.002000,-1.462048,1.019604,1.608642,-2.465141,0.898048,0.473627,1.643656,-1.406726,-1.930375,0.002000,-2.199571,0.000000
652.000000,0.002000,0.509157,0.415996,-0.306721,-1.119463,1.134799,1.909458,-10.182896,-8.453435,6.393067,0.002000,0.773445,0.000000
653.000000,0.002000,-0.923968,1.847482,0.529271,-1.019509,1.893087,1.600978,1.583763,-2.996146,-0.814573,0.002000,-0.240912,0.000000
654.000000,0.002000,-0.671247,0.715830,0.727301,2.370879,-1.314027,-0.063592,4.331586,-4.540081,-4.766879,0.002000,-1.073882,0.000000
655.000000,0.002000,1.905262,-0.508628,0.471583,1.024129,1.823913,1.301925,-3.444831,0.879225,-0.814022,0.002000,1.018310,0.000000
656.000000,0.002000,-0.100139,0.026041,0.198546,-5.039484,0.630792,-2.718621,4.607934,-0.875145,-11.950285,0.002000,0.997565,0.000000
657.000000,0.002000,0.477127,-0.173009,0.127500,-1.042417,-0.010022,2.312189,-14.804774,5.769801,-6.325316,0.002000,0.023826,0.000000
658.000000,0.002000,0.637700,0.007482,-0.190792,-0.284710,-0.078788,0.461935,-13.854608,0.299184,6.168230,0.002000,-1.382953,0.000000
659.000000,0.002000,-0.323459,0.294095,1.604970,0.958810,0.734171,-0.334308,0.944821,-1.043106,-4.663465,0.002000,-1.462048,0.000000
660.000000,0.002000,0.490854,0.294449,0.094690,1.710357,-1.076638,-2.131301,-14.803069,-7.353527,-3.516268,0.002000,0.509157,0.000000
661.000000,0.002000,-0.462015,0.073277,-0.025993,3.328754,2.735402,2.005337,18.848585,-1.318721,-0.424319,0.002000,-0.923968,0.000000
662.000000,0.002000,-2.092980,0.246664,0.591113,-1.433950,-0.485712,-1.214717,3.286818,-0.402875,-0.902521,0.002000,-0.671247,0.000000
663.000000,0.002000,1.003093,0.225199,0.149600,-2.136557,-0.529065,-2.089623,-10.112596,-2.637788,-1.329365,0.002000,1.905262,0.000000
664.000000,0.002000,0.426855,-0.435152,-0.341897,0.620162,1.186841,-1.071264,-9.754721,10.056902,7.646432,0.002000,-0.100139,0.000000
665.000000,0.002000,-0.695208,-0.132419,-0.157017,0.116200,2.611706,0.627668,14.582400,3.640342,3.762234,0.002000,0.477127,0.000000
666.000000,0.002000,0.259345,0.230160,-0.894059,-0.201722,-1.637351,0.463548,-3.543314,-2.517671,9.883621,0.002000,0.637700,0.000000
667.000000,0.002000,0.013280,0.671865,-0.735457,0.989956,0.677862,1.212107,-0.518801,-6.808429,8.427667,0.002000,-0.323459,0.000000
668.000000,0.002000,0.190931,0.704293,1.219107,-1.205160,-0.552017,-1.617936,-0.944226,-3.159776,-5.175721,0.002000,0.490854,0.000000
669.000000,0.002000,-0.250118,-0.314338,-0.479377,-2.265492,2.695841,2.266538,6.875623,9.077979,12.580101,0.002000,-0.462015,0.000000
670.000000,0.002000,-0.207452,-0.354838,0.351018,-0.678626,2.379805,0.521629,7.410843,12.672682,-12.386696,0.002000,-2.092980,0.000000
671.000000,0.002000,-0.522583,-0.811458,-0.664331,1.610134,0.411797,2.046942,3.639197,5.879278,4.945952,0.002000,1.003093,0.000000
672.000000,0.002000,0.035683,0.070958,-0.096754,3.279665,1.274999,-0.603978,-3.243586,-3.341069,4.128016,0.002000,0.426855,0.000000
673.000000,0.002000,2.444133,-3.141418,-1.568763,0.211956,-1.132981,1.585976,-0.625419,0.806618,0.371881,0.002000,-0.695208,0.000000
674.000000,0.002000,0.367257,1.517512,0.862350,1.397575,1.399112,2.465260,-0.962673,-3.803485,-2.106676,0.002000,0.259345,0.000000
675.000000,0.002000,1.350271,1.214359,0.731265,-0.255920,1.568675,-0.153490,-2.418495,-2.845611,-1.060341,0.002000,0.013280,0.000000
676.000000,0.002000,0.172885,0.137040,0.075097,-3.120603,-1.654579,1.113077,-12.550539,-6.868952,-6.590131,0.002000,0.190931,0.000000
677.000000,0.002000,0.223747,0.066393,-0.098697,2.691368,0.323909,3.086157,-7.762349,2.926609,5.521333,0.002000,-0.250118,0.000000
678.000000,0.002000,0.029346,-0.540939,-0.029962,-0.136513,1.330821,2.179948,-1.433054,18.086699,-0.868738,0.002000,-0.207452,0.000000
679.000000,0.002000,-1.860579,0.739357,1.258216,-0.968425,1.119780,1.138174,2.394278,-0.948312,-1.757427,0.002000,-0.522583,0.000000
680.000000,0.002000,-0.939339,-1.057586,0.260818,-1.681040,-2.600586,1.801574,4.039063,4.582341,-1.132021,0.002000,0.035683,0.000000
681.000000,0.002000,-0.091707,-0.543093,0.312944,-1.438214,2.931322,-2.751063,1.656285,14.637731,-8.192811,0.002000,2.444133,0.000000
682.000000,0.002000,-0.223089,0.453578,0.010246,0.901352,-1.050986,0.124105,8.908088,-12.810501,-2.586774,0.002000,0.367257,0.000000
683.000000,0.002000,0.165691,0.762024,-1.183875,0.347761,-2.009675,2.833469,-0.738935,-3.673266,5.083290,0.002000,1.350271,0.000000
684.000000,0.002000,-1.073645,1.641007,-0.401136,0.327117,-0.821736,0.137931,2.103002,-2.929075,0.620902,0.002000,0.172885,0.000000
685.000000,0.002000,0.587629,-0.227398,-0.019887,1.278252,2.682591,0.729750,-14.954297,5.214027,1.045575,0.002000,0.223747,0.000000
686.000000,0.002000,-0.095046,-0.038606,0.410391,0.712699,-1.707646,-2.723024,2.029282,1.005968,-18.234322,0.002000,0.029346,0.000000
687.000000,0.002000,-0.303907,-2.991759,-1.024634,-0.110173,-1.817687,0.434293,0.153958,1.835073,0.630135,0.002000,-1.860579,0.000000
688.000000,0.002000,-0.583009,-0.412798,-0.914661,1.445225,2.377824,0.291060,4.108318,3.237203,6.578963,0.002000,-0.939339,0.000000
689.000000,0.002000,0.367835,2.237796,1.288033,-0.383433,1.924707,0.603650,-0.363735,-2.250732,-1.409170,0.002000,-0.091707,0.000000
690.000000,0.002000,-0.317432,-0.925480,-2.047674,0.495083,-1.223222,-1.464775,0.500062,1.349080,2.860673,0.002000,-0.223089,0.000000
691.000000,0.002000,-2.125815,-1.725622,0.177313,-0.878370,-1.322201,0.403617,1.924861,1.600593,-0.191329,0.002000,0.165691,0.000000
692.000000,0.002000,-0.139992,0.264351,-0.386444,0.490019,0.140550,1.602112,3.218429,-9.755757,14.508224,0.002000,-1.073645,0.000000
693.000000,0.002000,-0.065222,-0.184100,-0.345310,-2.359977,-3.266796,1.230272,2.877112,9.080867,15.572376,0.002000,0.587629,0.000000
694.000000,0.002000,0.247887,-0.159782,0.172407,-1.911052,-4.627772,1.342976,-14.598059,6.446553,-7.246946,0.002000,-0.095046,0.000000
695.000000,0.002000,-1.879850,0.785998,0.268827,-0.640026,-1.291678,0.199043,3.305830,-1.370655,-0.475953,0.002000,-0.303907,0.000000
696.000000,0.002000,2.222450,0.172690,-0.835125,2.025190,-0.191704,-0.327606,-2.822233,-0.321472,1.248497,0.002000,-0.583009,0.000000
697.000000,0.002000,-0.302394,-1.191945,0.127597,-1.668238,3.245007,-1.858668,2.016229,7.291662,-0.609775,0.002000,0.367835,0.000000
698.000000,0.002000,-0.027073,0.068319,-0.380239,-0.624667,0.137463,-0.981969,-0.587422,-2.741935,17.873559,0.002000,-0.317432,0.000000
699.000000,0.002000,0.220620,-1.062533,0.115680,-0.234600,-1.096735,0.004345,-2.086851,8.907901,-0.622454,0.002000,-2.125815,0.000000
700.000000,0.002000,-0.883072,0.248695,0.841398,2.083641,1.262891,1.482444,5.442304,-1.608723,-5.422712,0.002000,-0.139992,0.000000
701.000000,0.002000,0.136486,0.037980,0.181073,0.390525,-2.163933,-1.156420,-9.518601,-0.524077,-11.980121,0.002000,-0.065222,0.000000
702.000000,0.002000,-1.920379,0.378305,-1.528287,-1.440503,1.150866,0.422758,2.386974,-0.478633,1.832337,0.002000,0.247887,0.000000
703.000000,0.002000,0.788779,-0.008435,-0.390292,-1.298414,-1.549011,2.578043,-11.214005,0.028176,5.088164,0.002000,-1.879850,0.000000
704.000000,0.002000,2.237876,-0.113768,-1.369027,1.657323,0.725743,-0.530480,-2.404160,0.308911,0.519041,0.002000,2.222450,0.000000
705.000000,0.002000,0.681650,0.007098,2.901673,0.884032,-0.573128,2.963718,-0.499671,0.049095,-2.104988,0.002000,-0.302394,0.000000
706.000000,0.002000,-1.291261,0.083639,-2.294729,-1.411518,-0.040330,-0.541848,1.318994,-0.078274,2.377992,0.002000,-0.027073,0.000000
707.000000,0.002000,1.930467,0.036491,1.192239,0.273395,0.445813,1.683923,-2.666048,-0.094418,-1.648991,0.002000,0.220620,0.000000
708.000000,0.002000,-0.636849,-0.585701,-0.033031,-1.449561,-1.366559,1.814764,9.099929,8.222149,0.609548,0.002000,-0.883072,0.000000
709.000000,0.002000,0.052450,0.272323,0.240889,-2.574948,-0.425787,-2.226482,4.224032,-8.326139,-10.762352,0.002000,0.136486,0.000000
710.000000,0.002000,-0.181905,0.424442,-0.247956,-0.621559,2.562671,0.559688,6.027165,-14.723080,10.967060,0.002000,-1.920379,0.000000
711.000000,0.002000,0.529960,0.273684,-1.468148,-3.139138,0.904391,-1.259702,-1.766661,-0.733388,4.964622,0.002000,0.788779,0.000000
712.000000,0.002000,-0.299031,0.163291,-0.106623,-1.045099,1.132111,0.014351,14.554157,-9.404456,6.216285,0.002000,2.237876,0.000000
713.000000,0.002000,-0.666835,1.341207,-0.990461,1.445716,0.591414,0.051855,1.441618,-3.243273,2.561919,0.002000,0.681650,0.000000
714.000000,0.002000,0.461708,0.330267,-0.643616,1.020842,1.921881,-0.545933,-6.583645,-4.308879,9.292177,0.002000,-1.291261,0.000000
715.000000,0.002000,-0.705955,-1.371613,2.179878,-1.243281,-1.887733,1.379545,0.631127,1.413303,-2.111636,0.002000,1.930467,0.000000
716.000000,0.002000,0.477904,-1.741675,-1.427536,-0.674892,-0.655052,-0.037340,-0.539991,2.437841,1.764895,0.002000,-0.636849,0.000000
717.000000,0.002000,-1.783320,-0.580462,1.354491,-0.177142,-0.760723,-0.367774,2.442306,0.827869,-1.950918,0.002000,0.052450,0.000000
718.000000,0.002000,-0.350931,0.308576,-0.505743,3.162823,3.999041,1.262650,8.246175,-7.359019,12.266965,0.002000,-0.181905,0.000000
719.000000,0.002000,-2.040244,-0.822303,-0.124904,-0.183384,-1.547816,-0.887986,3.075499,1.274501,0.219661,0.002000,0.529960,0.000000
720.000000,0.002000,2.230923,0.809073,-0.445920,1.180119,0.085995,-1.223731,-2.601698,-0.961013,0.625552,0.002000,-0.299031,0.000000
721.000000,0.002000,0.076165,-0.540413,0.044954,-1.614520,0.301909,-1.361588,-2.478521,17.959663,-2.244117,0.002000,-0.666835,0.000000
722.000000,0.002000,0.933190,-0.197979,-0.001059,1.256088,-0.328913,0.768188,-10.994728,2.901202,0.179663,0.002000,0.461708,0.000000
723.000000,0.002000,-0.087584,0.279089,0.070113,-4.082050,-0.645435,-0.965549,4.009657,-15.470749,-4.328396,0.002000,-0.705955,0.000000
724.000000,0.002000,0.644480,-0.077596,-1.339685,3.568517,0.094247,-1.313844,-2.473807,0.341395,5.240669,0.002000,0.477904,0.000000
725.000000,0.002000,0.112856,0.747882,0.133443,-1.168083,-0.887978,-2.000363,-2.653298,-14.106342,-2.695532,0.002000,-1.783320,0.000000
726.000000,0.002000,-1.324027,-1.822297,-0.859110,-0.008754,-0.163843,-0.818206,1.569391,2.248879,1.173466,0.002000,-0.350931,0.000000
727.000000,0.002000,1.018940,-0.415404,-0.972633,-1.217226,1.651636,-0.495691,-3.138727,-2.069844,2.919844,0.002000,-2.040244,0.000000
728.000000,0.002000,-0.524445,0.069902,0.577915,0.353432,2.456720,2.100394,8.781463,-1.877516,-10.140220,0.002000,2.230923,0.000000
729.000000,0.002000,0.341953,-0.182856,0.116259,1.940018,3.500582,-0.675508,-15.219976,9.459383,-7.069425,0.002000,0.076165,0.000000
730.000000,0.002000,0.611953,-0.150138,-0.065501,1.722329,3.307307,-0.515746,-15.889665,3.408809,3.462223,0.002000,0.933190,0.000000
731.000000,0.002000,0.501114,-0.189987,-0.325497,2.001408,0.655172,-0.564717,-12.921207,3.832894,7.940691,0.002000,-0.087584,0.000000
732.000000,0.002000,0.590570,-0.335552,-0.218065,0.068119,2.872478,-1.062402,-11.801327,6.103215,5.087840,0.002000,0.644480,0.000000
733.000000,0.002000,0.937959,0.356398,1.613495,0.717759,2.616262,1.317687,-2.028250,-0.816791,-3.394074,0.002000,0.112856,0.000000
734.000000,0.002000,0.148498,-0.211365,-0.095199,-2.277530,-1.174890,-1.775441,-4.168526,11.252921,2.568503,0.002000,-1.324027,0.000000
735.000000,0.002000,-0.191367,0.598863,1.266978,1.649734,-1.030921,-0.707783,0.808823,-2.458968,-5.567141,0.002000,1.018940,0.000000
736.000000,0.002000,0.424619,-0.422767,0.171676,2.249482,-0.420212,-0.964831,-10.973138,12.307987,-3.312095,0.002000,-0.524445,0.000000
737.000000,0.002000,0.006033,0.124197,-0.309915,1.350760,1.257724,-2.901040,1.551988,-4.866421,18.017983,0.002000,0.341953,0.000000
738.000000,0.002000,-2.557695,0.692031,1.539569,-1.239216,0.206938,0.995387,1.739015,-0.483741,-1.064296,0.002000,0.611953,0.000000
739.000000,0.002000,0.014030,-1.811666,3.619975,0.639105,0.831696,-0.091298,-0.004312,0.537842,-1.068904,0.002000,0.501114,0.000000
740.000000,0.002000,-0.120624,0.047196,-0.188190,-0.318026,2.961517,-0.581230,1.355805,-3.462536,10.711152,0.002000,0.590570,0.000000
741.000000,0.002000,-0.553591,0.126959,0.339132,0.001429,0.908975,-3.354749,15.536208,-5.129368,-11.839379,0.002000,0.937959,0.000000
742.000000,0.002000,0.070027,0.066335,0.521759,-1.172263,-1.629166,-0.427609,-2.193748,-1.131971,-16.516743,0.002000,0.148498,0.000000
743.000000,0.002000,0.530716,-0.923495,0.562869,0.275979,1.152800,-2.254941,-3.595300,6.180707,-3.623907,0.002000,-0.191367,0.000000
744.000000,0.002000,0.179469,-0.107858,0.282993,-0.283058,2.197387,3.528495,-4.261432,1.138044,-19.942447,0.002000,0.424619,0.000000
745.000000,0.002000,2.648404,-1.477872,0.906597,2.095799,-0.142147,-1.335726,-1.610922,0.911481,-0.562641,0.002000,0.006033,0.000000
746.000000,0.002000,-2.256912,-0.893655,-0.513162,-0.729066,-0.427568,-0.091918,2.707313,1.166032,0.494385,0.002000,-2.557695,0.000000
747.000000,0.002000,0.561269,-0.815034,0.681290,0.719909,-3.288816,-2.141202,-3.956007,5.400327,-4.580053,0.002000,0.014030,0.000000
748.000000,0.002000,0.412124,-2.748879,-0.698034,0.538124,-1.384494,-0.214271,-0.312072,2.214986,0.559748,0.002000,-0.120624,0.000000
749.000000,0.002000,2.313699,0.845300,0.927206,1.701332,0.512699,1.027723,-2.499154,-0.762659,-0.941929,0.002000,-0.553591,0.000000
750.000000,0.002000,0.128730,0.117917,0.095163,-0.831578,1.712710,1.719752,-10.730137,-3.654583,-9.404013,0.002000,0.070027,0.000000
751.000000,0.002000,0.390850,0.056084,0.314656,0.721094,-3.437244,2.802337,-13.482605,-1.871466,-11.606744,0.002000,0.530716,0.000000
752.000000,0.002000,2.484150,-1.980625,0.907310,-0.130623,1.500701,0.778727,-1.314354,1.074101,-0.497001,0.002000,0.179469,0.000000
753.000000,0.002000,0.417499,0.841246,-0.781646,-0.939420,-1.517979,1.494931,-2.536669,-5.363691,4.964987,0.002000,2.648404,0.000000
754.000000,0.002000,0.141538,-0.011923,-0.046780,4.428291,3.422193,-1.774755,-7.865198,-2.037614,4.815386,0.002000,-2.256912,0.000000
755.000000,0.002000,-1.143250,1.625113,1.006661,-1.241002,0.555943,-1.224697,1.677531,-2.329928,-1.487372,0.002000,0.561269,0.000000
756.000000,0.002000,-0.147635,-2.112063,1.239306,0.278180,-1.187404,-0.060026,0.163100,2.494854,-1.434995,0.002000,0.412124,0.000000
757.000000,0.002000,1.254249,-0.067985,0.019234,-1.937425,-0.071635,0.350277,-7.660139,0.321742,-0.101950,0.002000,2.313699,0.000000
758.000000,0.002000,0.058721,-0.049861,0.444843,0.519528,-1.080366,0.117989,-2.869940,-4.830801,-16.885609,0.002000,0.128730,0.000000
759.000000,0.002000,-0.524429,-0.607348,0.023716,1.705717,-1.021676,-1.340515,8.705903,9.563072,-0.375792,0.002000,0.390850,0.000000
760.000000,0.002000,0.853908,-0.320215,-0.444638,-1.307386,-2.712550,0.040766,-8.946670,3.743154,4.457823,0.002000,2.484150,0.000000
761.000000,0.002000,-0.037843,-0.139566,0.721249,2.869095,0.077617,-1.282010,0.079228,2.742655,-13.730037,0.002000,0.417499,0.000000
762.000000,0.002000,-0.854584,-0.050579,-0.744223,0.774377,2.253147,1.295536,6.990026,0.499728,6.166478,0.002000,0.141538,0.000000
763.000000,0.002000,-0.045630,1.004024,-0.066326,1.370257,0.360691,-0.078119,-0.029272,-11.508777,-0.167227,0.002000,-1.143250,0.000000
764.000000,0.002000,-0.177923,-0.032118,0.178628,-2.732076,0.941830,0.751187,10.664148,1.147464,-12.406580,0.002000,-0.147635,0.000000
765.000000,0.002000,-1.438665,-0.598044,0.062819,1.261982,1.066849,-3.103878,5.041158,2.154123,-0.076383,0.002000,1.254249,0.000000
766.000000,0.002000,0.003715,-0.435871,0.683261,-0.710933,-1.711941,-2.059003,-0.408993,6.825957,-11.235859,0.002000,0.058721,0.000000
767.000000,0.002000,0.030545,-0.789061,-0.512069,2.878817,0.958929,-0.027742,-0.868633,8.917576,5.717837,0.002000,-0.524429,0.000000
768.000000,0.002000,-0.271494,-0.629259,-0.274563,2.001136,0.082270,1.726034,6.167553,12.394244,6.417455,0.002000,0.853908,0.000000
769.000000,0.002000,0.171212,-0.080899,0.094359,-1.796232,0.614725,1.429098,-10.754031,4.395169,-4.640636,0.002000,-0.037843,0.000000
770.000000,0.002000,-1.019316,-0.260989,0.150906,0.279462,-1.992592,0.944625,9.325040,2.367518,-1.340834,0.002000,-0.854584,0.000000
771.000000,0.002000,-0.219863,2.148352,0.331495,0.149922,2.246391,0.160280,0.431153,-3.343184,-0.558509,0.002000,-0.045630,0.000000
772.000000,0.002000,0.227273,1.812839,0.781115,-0.015720,-0.210792,1.730566,-0.596724,-3.376861,-1.415043,0.002000,-0.177923,0.000000
773.000000,0.002000,-0.673578,-0.139822,1.832007,0.061749,-1.541406,0.926922,1.424246,0.289398,-3.463241,0.002000,-1.438665,0.000000
774.000000,0.002000,-0.380382,-0.195334,0.143292,-1.601468,0.744968,-0.800741,14.764082,9.054938,-5.897353,0.002000,0.003715,0.000000
775.000000,0.002000,2.235579,-1.378731,0.621786,1.452771,-1.208647,1.010161,-2.075303,1.400033,-0.681227,0.002000,0.030545,0.000000
776.000000,0.002000,0.295352,-1.422783,-0.110754,2.114564,-2.288647,-1.872860,-1.254284,5.654834,0.359782,0.002000,-0.271494,0.000000
777.000000,0.002000,-0.665572,-0.315733,0.250252,0.292149,-1.146389,2.367748,10.673182,5.525328,-4.746539,0.002000,0.171212,0.000000
778.000000,0.002000,0.337414,0.399714,0.639115,-0.579684,-0.563330,2.166913,-4.500553,-5.902084,-9.829802,0.002000,-1.019316,0.000000
779.000000,0.002000,0.319116,0.243404,0.027192,-3.658585,1.836685,2.456339,-17.357983,-13.464615,-4.410579,0.002000,-0.219863,0.000000
780.000000,0.002000,1.079381,2.380503,-0.527853,-0.208221,0.834711,-0.318888,-0.891846,-2.362902,0.519687,0.002000,0.227273,0.000000
781.000000,0.002000,1.227715,1.103080,-0.542108,-0.171633,-0.882664,-1.470777,-3.264696,-2.718398,1.411461,0.002000,-0.673578,0.000000
782.000000,0.002000,-0.528156,-0.018970,-0.281151,-0.816814,2.797770,-2.469659,15.230453,0.810694,9.658632,0.002000,-0.380382,0.000000
783.000000,0.002000,0.143056,-1.147729,-3.056013,0.417203,-0.455905,-1.697035,-0.091179,0.649600,1.729183,0.002000,2.235579,0.000000
784.000000,0.002000,-0.489555,-0.135559,0.336000,0.183245,-1.308017,3.707583,12.455372,4.450751,-10.531073,0.002000,0.295352,0.000000
785.000000,0.002000,-0.378377,0.688824,-1.661987,-0.865262,0.767023,2.829501,0.928821,-1.511704,3.921580,0.002000,-0.665572,0.000000
786.000000,0.002000,-0.565412,-0.251705,1.921679,1.150333,-0.644584,0.871910,0.924231,0.713670,-3.645386,0.002000,0.337414,0.000000
787.000000,0.002000,0.047397,-1.046858,0.237181,-0.602676,3.600271,2.573193,-0.158540,9.205889,-2.287544,0.002000,0.319116,0.000000
788.000000,0.002000,0.249549,-0.535063,0.323123,1.640168,2.625265,1.670296,-6.204532,12.618206,-7.060449,0.002000,1.079381,0.000000
789.000000,0.002000,0.195462,0.487268,-0.444528,-0.304276,0.370777,-0.669187,-5.096681,-11.198993,11.207290,0.002000,1.227715,0.000000
790.000000,0.002000,-0.074693,-0.509120,0.228981,1.086512,3.954890,1.938733,-0.773331,9.848029,-6.876397,0.002000,-0.528156,0.000000
791.000000,0.002000,-2.549121,1.354643,0.807892,-1.301461,1.202697,-0.143810,1.926996,-0.989399,-0.622771,0.002000,0.143056,0.000000
792.000000,0.002000,0.201095,-0.789994,0.332413,2.297834,0.160229,1.136003,-3.303817,10.069754,-3.661705,0.002000,-0.489555,0.000000
793.000000,0.002000,-0.763166,0.709051,-0.281513,-0.134912,-0.202353,-0.504712,6.709905,-6.462013,2.316531,0.002000,-0.378377,0.000000
794.000000,0.002000,0.584868,0.785866,-0.038949,-0.780152,0.961083,-1.107750,-6.802129,-8.845158,0.545554,0.002000,-0.565412,0.000000
795.000000,0.002000,0.082977,-1.103732,2.439078,-0.295794,0.131794,1.559946,-0.055926,1.025169,-2.283684,0.002000,0.047397,0.000000
796.000000,0.002000,1.454774,0.214131,-1.403498,-0.543567,-0.949198,-0.115940,-2.678054,-0.400126,2.526915,0.002000,0.249549,0.000000
797.000000,0.002000,-0.086975,0.312756,-0.148131,-0.166474,0.856124,-2.618325,3.804412,-15.434803,12.539639,0.002000,0.195462,0.000000
798.000000,0.002000,0.396858,-0.587072,0.090287,-1.980113,-1.445272,1.129357,-7.941524,12.863731,-2.327721,0.002000,-0.074693,0.000000
799.000000,0.002000,0.320581,1.878958,1.636930,0.604978,-1.682296,-0.097721,-0.329116,-2.141688,-1.866011,0.002000,-2.549121,0.000000
800.000000,0.002000,0.016497,0.566191,-0.062871,2.078284,-1.644746,-1.336290,-0.961677,-17.500630,0.027707,0.002000,0.201095,0.000000
801.000000,0.002000,-0.136919,0.754285,-0.175960,0.492206,-1.299060,-1.191774,2.813129,-13.775482,3.167834,0.002000,-0.763166,0.000000
802.000000,0.002000,0.152578,0.087041,0.042898,1.447601,2.698433,0.185062,-11.228064,-0.749554,-2.227542,0.002000,0.584868,0.000000
803.000000,0.002000,-1.499003,-0.813878,-0.382871,-0.036847,0.996337,0.871846,3.809440,2.115662,1.018659,0.002000,0.082977,0.000000
804.000000,0.002000,-0.198615,-0.011516,0.661472,1.691827,-1.159040,-0.812998,4.808223,0.564517,-13.570558,0.002000,1.454774,0.000000
805.000000,0.002000,0.068831,0.701931,0.503491,-1.532568,1.451523,0.212294,-1.346037,-8.974010,-7.259239,0.002000,-0.086975,0.000000
806.000000,0.002000,-1.136243,-1.167583,-1.623515,-1.130668,-1.292570,-2.425500,1.602366,1.596238,2.187091,0.002000,0.396858,0.000000
807.000000,0.002000,-0.380896,0.247082,-0.039253,-3.054336,-1.588250,2.236077,15.638404,-11.822829,0.765129,0.002000,0.320581,0.000000
808.000000,0.002000,-0.297953,0.191551,-0.438676,-0.531429,-1.512800,-1.205011,9.840267,-5.148943,14.994418,0.002000,0.016497,0.000000
809.000000,0.002000,0.078878,0.409502,0.628752,1.746787,-0.916552,0.124254,-3.062701,-7.812024,-10.931127,0.002000,-0.136919,0.000000
810.000000,0.002000,0.329218,0.278731,0.072005,-1.074418,1.418758,0.051188,-11.998192,-12.648848,-5.619624,0.002000,0.152578,0.000000
811.000000,0.002000,-0.123577,-1.249678,0.110462,0.198240,1.415976,-2.042898,0.130993,7.445388,-0.487801,0.002000,-1.499003,0.000000
812.000000,0.002000,-1.002280,-0.407293,-0.413937,-1.021126,0.102250,0.880411,7.667858,3.164734,3.259979,0.002000,-0.198615,0.000000
813.000000,0.002000,0.543023,0.434023,-0.423091,-1.987100,-2.227573,2.045245,-10.546496,-7.351055,3.347660,0.002000,0.068831,0.000000
814.000000,0.002000,0.265575,0.460974,0.077478,1.794057,3.177037,2.628137,-8.906366,-15.298170,-2.129745,0.002000,-1.136243,0.000000
815.000000,0.002000,0.142623,0.516527,-0.222438,-2.907982,-2.214555,2.113557,-0.748156,-15.544717,11.434747,0.002000,-0.380896,0.000000
816.000000,0.002000,-0.551079,-0.519816,0.421356,1.753776,-0.448023,0.031885,6.860818,8.052661,-5.614743,0.002000,-0.297953,0.000000
817.000000,0.002000,-0.918186,0.248406,-1.464144,0.322510,0.493641,1.295009,2.352219,-0.666770,3.936378,0.002000,0.078878,0.000000
818.000000,0.002000,-1.772859,1.529169,-0.084608,-0.233324,2.304018,-1.308879,2.247845,-2.080708,0.060830,0.002000,0.329218,0.000000
819.000000,0.002000,-0.418126,0.533986,-0.432442,1.935191,-0.856326,-0.896345,6.706456,-9.604710,7.439818,0.002000,-0.123577,0.000000
820.000000,0.002000,0.955530,-0.994702,-1.930197,-0.154846,-0.282084,-0.815310,-1.285924,1.224628,2.434193,0.002000,-1.002280,0.000000
821.000000,0.002000,0.818741,1.882831,0.277759,-0.802296,0.322256,0.406640,-1.355822,-3.194425,-0.502837,0.002000,0.543023,0.000000
822.000000,0.002000,-0.985119,0.719610,-0.640443,2.037213,-1.762710,2.547118,4.690097,-3.632151,3.101231,0.002000,0.265575,0.000000
823.000000,0.002000,0.299737,0.300301,1.788014,0.149501,1.426462,2.424361,-0.613479,-0.668285,-4.219297,0.002000,0.142623,0.000000
824.000000,0.002000,-0.226116,0.723395,-0.199914,-0.303227,0.463897,-0.453260,4.103298,-12.561043,3.271549,0.002000,-0.551079,0.000000
825.000000,0.002000,0.631690,1.029444,1.946432,3.123357,-0.120250,-0.396531,-1.008824,-1.343181,-2.547732,0.002000,-0.918186,0.000000
826.000000,0.002000,0.274027,0.194296,0.492630,-3.245865,0.464167,-0.439358,-7.218286,-4.756689,-13.474319,0.002000,-1.772859,0.000000
827.000000,0.002000,-0.573500,-0.700630,-0.160079,-0.453858,1.311224,-0.478935,7.135647,8.271260,2.131026,0.002000,-0.418126,0.000000
828.000000,0.002000,-0.329872,0.084608,0.199611,0.027806,3.997660,-0.977629,14.492973,-7.352988,-7.990493,0.002000,0.955530,0.000000
829.000000,0.002000,-0.270440,-0.220952,-1.828538,-1.652628,-1.000730,-1.628986,0.042366,0.531912,4.277888,0.002000,0.818741,0.000000
830.000000,0.002000,0.232447,0.658401,0.159145,1.459039,3.309551,0.007863,-4.676105,-13.070312,-3.245412,0.002000,-0.985119,0.000000
831.000000,0.002000,0.317651,-0.353725,0.400129,1.277902,-3.173238,-2.664185,-8.805095,6.243215,-10.203362,0.002000,0.299737,0.000000
832.000000,0.002000,0.466890,-0.614226,0.261584,-1.725380,1.344371,-0.896349,-7.536901,10.305528,-4.114718,0.002000,-0.226116,0.000000
833.000000,0.002000,-0.037165,-0.164136,0.067844,-0.846388,0.066771,-4.810441,-6.425403,12.625583,-6.491018,0.002000,0.631690,0.000000
834.000000,0.002000,-0.849504,0.451545,0.325902,0.595972,1.201549,-0.582802,7.990757,-4.142209,-3.516553,0.002000,0.274027,0.000000
835.000000,0.002000,0.649433,2.058160,1.351521,1.534033,0.462349,0.574193,-0.757656,-2.201941,-1.431567,0.002000,-0.573500,0.000000
836.000000,0.002000,-0.409506,1.731426,-1.886365,0.763746,-0.865523,1.700958,0.456134,-1.780716,1.984746,0.002000,-0.329872,0.000000
837.000000,0.002000,-0.267997,0.140605,-0.808384,1.136492,0.306494,-3.013480,3.082459,-1.464794,11.387032,0.002000,-0.270440,0.000000
838.000000,0.002000,0.155802,0.244624,-0.594087,3.031528,0.841765,-0.982537,-5.534740,-7.034253,14.190257,0.002000,0.232447,0.000000
839.000000,0.002000,-0.550125,-0.526370,-0.313695,0.588715,1.414355,0.759627,8.013674,8.741559,4.845910,0.002000,0.317651,0.000000
840.000000,0.002000,-0.252265,0.507311,-0.383549,2.582647,-3.272715,0.004089,6.264846,-11.963313,9.351114,0.002000,0.466890,0.000000
841.000000,0.002000,-0.144890,0.154318,0.402146,-4.647792,0.402185,-1.433441,5.118503,-5.463399,-17.619194,0.002000,-0.037165,0.000000
842.000000,0.002000,-0.194505,-0.079132,0.043312,-0.207884,1.083964,-2.057474,12.789191,5.905562,-4.555617,0.002000,-0.849504,0.000000
843.000000,0.002000,0.082060,0.049222,0.036423,-2.272784,0.593156,0.183435,-7.630183,-2.924637,0.083236,0.002000,0.649433,0.000000
844.000000,0.002000,-0.721841,-0.432578,-0.305625,-1.516992,-0.899168,-1.531093,9.887653,6.103094,3.734731,0.002000,-0.409506,0.000000
845.000000,0.002000,0.423734,0.820047,0.396090,2.805600,-2.895301,1.726331,-4.536333,-8.821400,-4.330982,0.002000,-0.267997,0.000000
846.000000,0.002000,0.071220,-0.168950,0.224089,1.770216,2.857950,-0.225723,0.016588,6.324891,-15.007353,0.002000,0.155802,0.000000
847.000000,0.002000,-1.737620,1.560897,-0.506640,-1.908721,0.820885,0.242187,2.310661,-1.923256,0.447685,0.002000,-0.550125,0.000000
848.000000,0.002000,0.329601,-0.435714,0.878027,0.312488,-1.429519,-0.345670,-3.208078,4.005407,-8.416574,0.002000,-0.252265,0.000000
849.000000,0.002000,-0.688667,-0.172205,0.028851,-1.023636,3.556644,-3.787189,16.447698,4.707089,-0.186615,0.002000,-0.144890,0.000000
850.000000,0.002000,-0.532572,-0.174015,-0.102891,-1.767291,-1.762797,-0.735573,16.452230,6.183912,3.032751,0.002000,-0.194505,0.000000
851.000000,0.002000,-0.227224,-0.055904,0.993546,1.387181,1.099785,-1.073823,2.064407,0.265682,-9.694657,0.002000,0.082060,0.000000
852.000000,0.002000,0.422271,0.064227,-0.102869,0.473319,1.889019,2.417867,-19.294036,0.765596,11.387419,0.002000,-0.721841,0.000000
853.000000,0.002000,0.006897,0.415170,0.056447,3.664516,0.225235,-0.884425,-2.945500,-17.280166,-4.435266,0.002000,0.423734,0.000000
854.000000,0.002000,0.168645,-0.113834,-0.455077,2.427488,1.033653,-0.231562,-3.604705,4.953029,16.163191,0.002000,0.071220,0.000000
855.000000,0.002000,-0.445086,-0.812710,-0.460703,-2.942914,0.618296,0.027398,4.028918,8.226765,4.320837,0.002000,-1.737620,0.000000
856.000000,0.002000,-0.207810,0.206106,-0.254190,0.489156,0.722449,2.633401,6.370945,-12.547690,7.945568,0.002000,0.329601,0.000000
857.000000,0.002000,0.092236,0.116855,0.502094,0.873099,-1.260129,-3.330334,-1.404103,-3.389147,-14.173024,0.002000,-0.688667,0.000000
858.000000,0.002000,0.873660,0.377209,0.391374,-1.300859,-0.723589,0.914883,-9.191780,-3.434734,-4.130348,0.002000,-0.532572,0.000000
859.000000,0.002000,-0.048252,1.624402,-1.162324,-1.336345,1.312610,-0.438844,0.902735,-3.774370,2.412496,0.002000,-0.227224,0.000000
860.000000,0.002000,-0.267891,0.147328,-0.394595,0.086114,-2.664406,-1.895399,9.342166,-4.805213,14.399307,0.002000,0.422271,0.000000
861.000000,0.002000,-0.102808,2.056705,-0.816404,2.855209,0.392666,0.697091,-0.008198,-3.255507,0.839409,0.002000,0.006897,0.000000
862.000000,0.002000,0.393957,-0.074071,0.122947,2.157264,1.266989,-1.538299,-17.830850,2.085080,-6.691861,0.002000,0.168645,0.000000
863.000000,0.002000,-1.015659,-1.868158,0.963192,-1.445228,-0.001382,0.341281,1.335369,2.433885,-1.265911,0.002000,-0.445086,0.000000
864.000000,0.002000,-0.919515,-2.829914,0.398407,-0.059439,-2.269654,-0.447158,0.664860,2.021911,-0.300097,0.002000,-0.207810,0.000000
865.000000,0.002000,-0.097567,1.049451,-1.607078,0.705171,-0.438368,-2.543456,0.190348,-2.204426,3.305544,0.002000,0.092236,0.000000
866.000000,0.002000,0.006438,-0.237678,-0.079779,2.956375,-1.027719,-4.360836,0.675033,15.820223,4.926922,0.002000,0.873660,0.000000
867.000000,0.002000,2.235278,1.647875,-0.202813,1.040699,0.567675,0.137967,-1.946057,-1.395052,0.183064,0.002000,-0.048252,0.000000
868.000000,0.002000,0.615085,-0.957763,-0.881143,-1.041567,1.757579,-1.217496,-2.606173,4.333950,3.550337,0.002000,-0.267891,0.000000
869.000000,0.002000,0.194651,-0.852857,0.352120,-0.032565,0.951364,0.902410,-3.820457,9.650752,-3.839173,0.002000,-0.102808,0.000000
870.000000,0.002000,0.319744,0.348089,-0.406619,0.199511,4.066713,-0.002315,-8.705770,-9.002761,11.714652,0.002000,0.393957,0.000000
871.000000,0.002000,-0.067100,0.466839,-0.164917,-0.168671,-0.920793,-2.467084,3.608588,-15.923817,6.771717,0.002000,-1.015659,0.000000
872.000000,0.002000,-0.280082,-0.353369,0.160290,-2.820779,-5.078224,-0.342920,11.661426,13.099620,-5.061380,0.002000,-0.919515,0.000000
873.000000,0.002000,0.336025,1.066362,2.075701,0.440020,1.132411,2.087017,-0.323157,-1.372109,-2.710126,0.002000,-0.097567,0.000000
874.000000,0.002000,-1.073672,-1.368569,-2.270023,-0.977653,-1.105180,-1.358628,0.763137,1.136368,1.873253,0.002000,0.006438,0.000000
875.000000,0.002000,0.549900,-2.485485,-1.593646,0.036277,-0.993342,-0.522051,-0.345234,1.792200,1.106536,0.002000,2.235278,0.000000
876.000000,0.002000,-0.715556,0.057670,-0.340454,2.780234,0.596860,2.375023,12.030396,-0.653602,6.657964,0.002000,0.615085,0.000000
877.000000,0.002000,-1.131796,-0.378010,1.678649,-0.371499,-0.281288,2.526700,1.926923,0.720103,-3.012724,0.002000,0.194651,0.000000
878.000000,0.002000,-1.457212,-0.339239,-1.751192,-1.108911,0.073061,0.109860,1.981301,0.488368,2.415206,0.002000,0.319744,0.000000
879.000000,0.002000,-0.028576,0.137960,-0.013273,-1.827974,2.925081,2.837856,-0.264512,-9.058163,-0.596707,0.002000,-0.067100,0.000000
880.000000,0.002000,-2.041996,0.365261,1.793599,-1.268792,0.272033,0.238632,1.796300,-0.342047,-1.603537,0.002000,-0.280082,0.000000
881.000000,0.002000,0.050359,0.062186,0.083922,1.941585,2.923526,0.222286,-2.703486,-3.032673,-6.775870,0.002000,0.336025,0.000000
882.000000,0.002000,-0.978944,-0.202106,-2.022653,-0.476061,-1.840756,-0.893865,1.375200,0.109029,2.751635,0.002000,-1.073672,0.000000
883.000000,0.002000,-0.620126,0.226716,-0.869172,-0.802313,0.471791,0.956487,5.711228,-1.821649,7.773737,0.002000,0.549900,0.000000
884.000000,0.002000,0.640881,-0.216830,0.190588,-1.246918,0.027336,0.050685,-13.759391,4.806755,-4.808534,0.002000,-0.715556,0.000000
885.000000,0.002000,-2.109035,-0.748178,0.064129,-1.680928,-0.916000,-0.916902,3.090494,1.125943,-0.065034,0.002000,-1.131796,0.000000
886.000000,0.002000,-0.862241,0.197302,-0.088693,2.744141,1.751807,0.975349,12.125891,-2.716338,1.351746,0.002000,-1.457212,0.000000
887.000000,0.002000,-0.912540,0.034094,-0.357793,0.221662,-1.098839,1.147814,10.264381,0.104710,4.175767,0.002000,-0.028576,0.000000
888.000000,0.002000,-1.584317,-2.048431,0.536144,-1.153436,-0.547910,0.569194,1.447898,1.860140,-0.480685,0.002000,-2.041996,0.000000
889.000000,0.002000,0.074103,0.028207,-0.085595,-0.592629,-1.470476,0.634823,-7.556014,-0.911637,3.887402,0.002000,0.050359,0.000000
890.000000,0.002000,1.791974,0.108997,0.021649,2.804212,0.857329,1.608137,-4.329921,-0.211451,-0.115188,0.002000,-0.978944,0.000000
891.000000,0.002000,-0.116828,1.112375,0.670745,1.322769,0.191042,2.191433,0.649757,-5.813002,-3.958657,0.002000,-0.620126,0.000000
892.000000,0.002000,0.049014,0.209865,0.632263,0.990248,1.778146,-0.206670,0.340225,-4.584588,-14.257141,0.002000,0.640881,0.000000
893.000000,0.002000,0.252173,1.723892,-0.269224,2.424787,1.221886,-1.784275,-0.646939,-4.372287,0.691839,0.002000,-2.109035,0.000000
894.000000,0.002000,0.056356,0.280638,0.418425,-1.393996,3.155909,-1.182080,2.180887,-11.183258,-13.704583,0.002000,-0.862241,0.000000
895.000000,0.002000,-0.007177,1.312758,-1.672910,-1.381124,-0.141723,-0.822370,0.663518,-3.098225,2.772615,0.002000,-0.912540,0.000000
896.000000,0.002000,-0.734127,0.368735,0.062162,-0.643872,1.948159,0.717856,12.753447,-5.935485,-1.518960,0.002000,-1.584317,0.000000
