# 
#                 columns are tag, mass, x, y, z, vx, vy, vz, ax, ay, az, EK, EU, E
#                 Time=10.000000
# 
1.000000,0.002000,1.680542,-0.624298,-0.495433,1.588335,-1.693819,-1.816453,-3.973066,2.300453,-0.074427,82.920129,-166.636941,-83.716812
2.000000,0.002000,1.998497,2.440826,-1.838456,-1.333611,0.412344,-1.768135,-0.658008,-1.046968,0.760077,0.000000,0.000000,0.000000
3.000000,0.002000,0.269851,-0.151529,0.015620,-4.909743,2.105263,1.019885,-15.320942,9.679662,-3.093036,0.000000,0.002000,0.000000
4.000000,0.002000,0.027153,0.871940,-0.038344,-0.557940,-0.926737,-3.474536,-1.173794,-13.489173,0.031234,0.000000,0.002000,0.000000
5.000000,0.002000,0.181047,0.408872,-0.208935,1.761923,-1.218977,1.301852,-10.942571,-14.562992,8.616323,0.000000,0.002000,0.000000
6.000000,0.002000,0.236070,0.742886,-0.205621,-0.923698,1.387129,-2.063667,-5.506390,-12.932569,2.022787,0.000000,0.002000,0.000000
7.000000,0.002000,-0.119918,-0.673827,-0.804850,-0.847917,-1.664053,-3.960157,1.551917,7.031278,6.959586,0.000000,0.000000,0.000000
8.000000,0.002000,-0.426617,-0.928896,-0.550527,1.058180,2.102916,0.583201,2.840544,6.560247,3.114271,2261634.870339,15162836114057409318925158867715009758724723307107920364802712979500221137086736074421965016369120992930484453376.000000,0.000000
9.000000,0.002000,-1.611968,0.733732,1.558308,-0.905477,0.165471,1.151074,2.045492,-0.893419,-2.000430,0.002000,0.000000,0.000000
10.000000,0.002000,-0.917374,-0.103920,0.329065,2.658069,-1.218767,-3.246038,10.075288,2.020940,-4.028058,0.002000,676244120912392386681919574491213795566797428417642704259178515151134433659447821783043093022517813515145993774093183487159194344270912207678039939488036599308744178443218232479650392353184099454152605696.000000,0.000000
11.000000,0.002000,0.173148,0.219583,0.381163,1.540783,1.143913,-2.097034,-5.197656,-7.301547,-16.013231,0.002000,2500221303378604510772919964764528121414165229097818093298619928018944.000000,0.000000
12.000000,0.002000,0.891152,-1.435481,-0.623279,1.340916,-1.217894,-0.644371,-2.135512,3.624266,1.495233,0.002000,0.000000,0.000000
13.000000,0.002000,-0.487754,-0.638488,-0.454470,2.021530,0.664352,-2.349036,5.176169,8.647201,4.737137,0.002000,52131310582146920369709475960493243973795249990060430627914323748778105351246203359661565846751195522046637773438731681792.000000,0.000000
14.000000,0.002000,1.899002,0.943060,-0.213233,-0.440424,0.330850,0.823133,-3.210548,-1.459510,0.298099,0.002000,0.000000,0.000000
15.000000,0.002000,2.226167,-0.569007,1.094579,-1.615108,-0.456192,-1.065183,-2.169369,0.640280,-1.104318,0.002000,0.000000,0.000000
16.000000,0.002000,0.003485,-1.032947,-0.273899,-0.804798,-2.982356,1.760460,-0.207257,8.664029,2.062160,0.002000,0.000000,0.000000
17.000000,0.002000,0.320870,-0.609902,-0.278991,-1.680637,1.477824,-0.404175,-5.547377,12.236884,4.768291,0.002000,0.000000,0.000000
18.000000,0.002000,0.362380,-0.551455,-1.042146,-0.218408,-1.554294,-0.976923,-2.309571,3.990240,6.524364,0.002000,0.000000,0.000000
19.000000,0.002000,0.043563,0.027827,0.066198,-1.801654,-0.676054,1.395684,-13.076289,1.381198,-5.034238,0.002000,0.000000,0.000000
20.000000,0.002000,0.173534,-0.470932,0.071821,2.086253,1.115184,0.398931,-4.969699,15.501658,-3.472461,0.002000,0.000000,0.000000
21.000000,0.002000,0.317603,-0.117721,0.234323,0.408731,-1.390502,-2.236998,-18.874802,7.985433,-12.232603,0.002000,9747608336264493489544007987666029375491938944886541902309519928839297466628590099253795994202386619036908536384002527631554025937156201871049356070472320591654618015736595933232589271344041177552737194385364770557927578127407704576206534154018042946980383873762961915904.000000,0.000000
22.000000,0.002000,-0.559152,0.431368,0.087232,3.008622,-2.368032,-0.209403,14.063539,-9.130126,-3.348727,0.002000,12055653207903320229020284766118237764305285531244518734888808016078689619442894825005329652198199244675177425336772171226609449460242346281012753059575459132914324930801817577501298231831034320978099368281973121381279682853199822050081739519477755674624.000000,0.000000
23.000000,0.002000,-1.561113,0.907433,-0.527594,0.285530,1.800516,1.965636,3.788941,-2.018575,1.209998,0.002000,1.680542,0.000000
24.000000,0.002000,-0.187486,-0.139863,-0.046863,0.887148,-4.346269,0.522437,9.614627,11.294267,3.259357,0.002000,1.998497,0.000000
25.000000,0.002000,0.021969,1.121116,0.024483,-1.714189,-0.489808,-0.948344,-0.566285,-10.531647,-0.311762,0.002000,0.269851,0.000000
26.000000,0.002000,1.456579,0.426034,-0.816468,0.098766,-1.206690,-1.401519,-4.305076,-1.129159,2.228840,0.002000,0.027153,0.000000
27.000000,0.002000,0.431556,-0.175906,0.164790,0.806503,-2.879737,-0.743619,-15.696636,7.985737,-5.169533,0.002000,0.181047,0.000000
28.000000,0.002000,0.065219,0.056973,-0.303392,2.343190,3.728201,-2.296312,-3.224813,2.215315,14.908435,0.002000,0.236070,0.000000
29.000000,0.002000,0.998342,0.914240,-5.297220,-0.080992,-0.108230,-0.982146,-0.124111,-0.105799,0.647972,0.002000,-0.119918,0.000000
30.000000,0.002000,0.067711,-0.053548,0.479419,2.381898,2.946130,-2.703274,-3.822123,4.353358,-17.970632,0.002000,-0.426617,0.000000
31.000000,0.002000,0.192583,0.289272,0.045209,3.542354,-2.919335,-1.652622,-13.755014,-12.040760,-2.225898,0.002000,-1.611968,0.000000
32.000000,0.002000,-0.030348,0.416148,0.007147,-0.804399,-1.064602,-1.206905,-4.245091,-19.831639,-5.914674,0.002000,-0.917374,0.000000
33.000000,0.002000,-0.059287,0.274229,-0.023228,-1.026519,3.285257,-3.767556,1.980908,-10.325720,2.270320,0.002000,0.173148,0.000000
34.000000,0.002000,0.992828,0.553192,0.486215,1.801511,-1.127095,2.142394,-7.131909,-2.778396,-3.744307,0.002000,0.891152,0.000000
35.000000,0.002000,0.226611,0.127082,-0.139798,1.804427,-2.580829,5.541735,-12.340294,-2.973359,3.906534,0.002000,-0.487754,0.000000
36.000000,0.002000,2.045757,0.708203,-1.579616,-1.575875,0.314617,0.494167,-1.890103,-0.550603,1.443599,0.002000,1.899002,0.000000
37.000000,0.002000,-0.824154,0.224783,-3.498696,-0.983655,-0.467135,-1.745354,0.328673,-0.041305,1.404593,0.002000,2.226167,0.000000
38.000000,0.002000,1.127747,0.908896,-0.337752,-0.445497,1.101167,-1.398091,-5.250014,-3.536353,1.476443,0.002000,0.003485,0.000000
39.000000,0.002000,0.382111,-0.287926,-0.116081,-0.818901,1.645667,-3.089474,-14.320006,12.898101,2.871421,0.002000,0.320870,0.000000
40.000000,0.002000,-0.127313,0.293874,0.443327,-3.555809,2.701922,1.667239,3.713535,-8.140278,-16.963239,0.002000,0.362380,0.000000
41.000000,0.002000,-0.137909,0.169576,0.473944,-1.952893,1.786147,3.191990,4.862356,-2.850241,-17.183059,0.002000,0.043563,0.000000
42.000000,0.002000,1.159163,-1.636991,1.751760,-0.156428,-0.697870,1.503171,-0.948070,1.433999,-1.407743,0.002000,0.173534,0.000000
43.000000,0.002000,-0.526926,0.725181,0.484607,2.457000,3.491733,-0.825169,5.853491,-7.189340,-6.330606,0.002000,0.317603,0.000000
44.000000,0.002000,0.221337,0.227107,-0.197309,-0.908824,2.958765,0.037242,-12.291787,-9.987608,6.792743,0.002000,-0.559152,0.000000
45.000000,0.002000,0.165339,-0.117090,-0.346463,-4.491390,-0.839052,-0.258528,-5.809242,9.739286,13.435930,0.002000,-1.561113,0.000000
46.000000,0.002000,0.244622,0.036273,-0.127720,-0.837590,0.674311,-3.350143,-11.956791,3.398907,5.605879,0.002000,-0.187486,0.000000
47.000000,0.002000,0.728970,0.340311,0.327192,-3.247302,-0.695514,0.146577,-10.217476,-4.385069,-5.404460,0.002000,0.021969,0.000000
48.000000,0.002000,0.413158,0.516806,0.151755,0.192435,2.384433,-0.058238,-11.005601,-11.157279,-4.512316,0.002000,1.456579,0.000000
49.000000,0.002000,5.694355,0.930282,2.450745,0.217512,-0.012776,0.223701,-0.455549,-0.068602,-0.194653,0.002000,0.431556,0.000000
50.000000,0.002000,0.247523,0.449493,0.512057,-2.578027,-1.200997,-2.893316,-4.666431,-8.603445,-11.860470,0.002000,0.065219,0.000000
51.000000,0.002000,-0.267788,0.698249,-0.273479,-2.319326,2.053045,-1.574400,5.331350,-13.514728,4.757402,0.002000,0.998342,0.000000
52.000000,0.002000,-0.384885,-0.142957,0.500087,-1.605751,-0.389377,-1.608957,9.598086,5.128603,-12.921398,0.002000,0.067711,0.000000
53.000000,0.002000,1.050775,0.207088,-0.168774,1.524003,-0.264287,-0.137348,-9.544387,-1.237748,1.386499,0.002000,0.192583,0.000000
54.000000,0.002000,-0.072697,-0.108578,0.888616,-3.040660,-1.078816,-2.236126,0.505128,2.331490,-11.406528,0.002000,-0.030348,0.000000
55.000000,0.002000,-0.544891,0.035881,0.038377,-3.430362,0.177469,-2.512826,21.804822,0.592481,-2.131262,0.002000,-0.059287,0.000000
56.000000,0.002000,0.040283,0.563046,-0.906274,-0.695232,1.274591,0.310432,-0.513902,-4.635976,9.613283,0.002000,0.992828,0.000000
57.000000,0.002000,0.083839,-0.723080,-0.771594,-3.479656,-0.486506,-2.400052,-0.876957,7.244566,6.604559,0.002000,0.226611,0.000000
58.000000,0.002000,0.521808,1.165963,-1.300315,-0.557107,-1.074638,2.575574,-1.326068,-2.669890,3.918337,0.002000,2.045757,0.000000
59.000000,0.002000,-0.011737,0.066069,0.759476,1.986765,-1.500359,0.085816,0.349153,0.059586,-14.206614,0.002000,-0.824154,0.000000
60.000000,0.002000,-0.066751,0.155924,-0.140542,-1.003743,-1.660062,0.424048,4.490976,-7.149480,3.934016,0.002000,1.127747,0.000000
61.000000,0.002000,-0.660700,0.372261,0.514743,1.918980,1.819074,0.279751,9.221562,-4.261249,-7.421883,0.002000,0.382111,0.000000
62.000000,0.002000,2.553437,-0.674871,2.151076,-1.375744,0.200368,0.045657,-1.078966,0.320907,-1.008892,0.002000,-0.127313,0.000000
63.000000,0.002000,-0.050552,0.200705,-0.277826,-2.589149,1.030033,0.874129,1.578076,-6.856475,11.548893,0.002000,-0.137909,0.000000
64.000000,0.002000,0.427655,-0.483879,0.074045,3.177597,0.825495,1.056410,-8.397919,11.596360,-3.313530,0.002000,1.159163,0.000000
65.000000,0.002000,0.417521,0.314922,0.236114,0.329330,3.600043,-1.915038,-14.541587,-6.978325,-8.339250,0.002000,-0.526926,0.000000
66.000000,0.002000,-0.224637,0.174160,0.147354,1.458254,-2.842981,-4.815752,13.114095,-9.009073,-13.160613,0.002000,0.221337,0.000000
67.000000,0.002000,2.291686,-2.453392,1.282177,0.720999,-0.441864,0.301849,-0.894294,0.974094,-0.497009,0.002000,0.165339,0.000000
68.000000,0.002000,-0.292941,1.206489,-0.077188,1.279406,-1.711861,2.472168,2.408423,-8.894790,0.105394,0.002000,0.244622,0.000000
69.000000,0.002000,-1.275393,0.862170,-0.748515,-0.925304,3.163317,0.392942,4.023616,-2.497020,2.331513,0.002000,0.728970,0.000000
70.000000,0.002000,0.607818,0.077238,-0.443972,-2.969438,2.155042,-0.163077,-12.389038,-0.376163,8.337627,0.002000,0.413158,0.000000
71.000000,0.002000,0.061157,-0.352930,0.503775,-1.832458,-2.829201,-0.333940,-2.204958,10.950416,-12.483202,0.002000,5.694355,0.000000
72.000000,0.002000,0.935630,0.720418,0.502093,-0.060877,0.601505,-0.729688,-5.911891,-4.197332,-3.328966,0.002000,0.247523,0.000000
73.000000,0.002000,1.461232,-2.302015,-3.272818,-0.635327,0.761877,0.273095,-0.371318,0.594147,0.792676,0.002000,-0.267788,0.000000
74.000000,0.002000,-0.163925,0.281699,0.315373,0.652638,-2.947001,-0.844798,7.971134,-10.324314,-14.321470,0.002000,-0.384885,0.000000
75.000000,0.002000,3.158306,-0.569286,-0.367231,0.190643,-0.246572,0.997214,-1.662112,0.316724,0.192665,0.002000,1.050775,0.000000
76.000000,0.002000,-0.898086,-0.703817,0.459800,-0.734166,-0.159696,1.078110,5.342206,4.625671,-2.910600,0.002000,-0.072697,0.000000
77.000000,0.002000,0.166400,0.059822,0.823108,0.718246,0.906676,0.008219,-2.791104,0.366884,-12.868873,0.002000,-0.544891,0.000000
78.000000,0.002000,-0.062990,-0.174203,-0.710047,-1.691839,-1.295060,1.562752,1.144479,4.876193,14.072077,0.002000,0.040283,0.000000
79.000000,0.002000,0.161100,-0.519821,-0.609815,3.115840,1.081291,-0.108681,-1.582709,9.727770,9.672711,0.002000,0.083839,0.000000
80.000000,0.002000,2.082086,2.375099,-1.823795,-1.376896,0.187886,0.602658,-0.960996,-0.814846,0.713901,0.002000,0.521808,0.000000
81.000000,0.002000,0.098943,0.485896,0.087644,2.425745,0.788795,-1.002235,-5.713539,-18.854106,-4.017676,0.002000,-0.011737,0.000000
82.000000,0.002000,-0.226243,-0.085828,1.368823,1.498849,1.095975,0.956946,0.856155,0.986451,-6.554824,0.002000,-0.066751,0.000000
83.000000,0.002000,-0.033283,-0.258653,0.897365,-2.498557,-1.348201,-0.738491,0.219740,3.890594,-9.914059,0.002000,-0.660700,0.000000
84.000000,0.002000,-0.927191,0.516736,-0.780516,1.509592,-1.251258,1.767379,5.820770,-3.044249,4.869603,0.002000,2.553437,0.000000
85.000000,0.002000,-1.270636,0.222480,1.135912,0.610756,0.736685,-2.354837,3.524320,-0.483825,-3.762415,0.002000,-0.050552,0.000000
86.000000,0.002000,0.141324,-0.156650,-0.790274,-0.719280,2.186705,-1.082500,-3.142929,4.001079,12.889912,0.002000,0.427655,0.000000
87.000000,0.002000,1.018769,-0.132048,0.110074,1.053022,0.116711,-0.036189,-10.010963,1.425517,-1.001226,0.002000,0.417521,0.000000
88.000000,0.002000,-0.171641,0.504569,-0.117536,1.858859,-2.096765,-0.596175,4.109636,-16.283452,4.802326,0.002000,-0.224637,0.000000
89.000000,0.002000,-1.878529,-1.503760,0.174149,-0.202655,1.180343,0.267840,2.107796,1.797543,-0.174833,0.002000,2.291686,0.000000
90.000000,0.002000,0.065252,-0.008696,-0.094884,0.897663,0.299956,0.795065,-5.072452,5.240661,6.149281,0.002000,-0.292941,0.000000
91.000000,0.002000,0.611217,0.394883,1.021112,0.268726,4.299560,-1.476545,-4.100560,-2.404367,-7.122094,0.002000,-1.275393,0.000000
92.000000,0.002000,0.663824,0.309495,-0.155605,1.569153,0.495690,-0.060947,-14.568445,-4.548806,2.467191,0.002000,0.607818,0.000000
93.000000,0.002000,-1.637898,1.000659,2.185648,0.962247,-0.859631,0.686849,1.171243,-0.730313,-1.602924,0.002000,0.061157,0.000000
94.000000,0.002000,1.898270,-0.442702,-0.439085,1.854146,-1.103013,-1.766847,-3.542982,1.157062,0.885285,0.002000,0.935630,0.000000
95.000000,0.002000,0.081717,-0.130736,-0.088105,-3.711693,3.419085,1.981550,-2.312407,15.902927,8.083951,0.002000,1.461232,0.000000
96.000000,0.002000,-0.849587,0.024134,-0.567170,0.966214,-0.330492,1.378042,9.176588,0.539458,6.059079,0.002000,-0.163925,0.000000
97.000000,0.002000,-0.404624,0.306411,-0.019335,1.757482,-3.353287,0.401604,18.532706,-8.391219,0.753501,0.002000,3.158306,0.000000
98.000000,0.002000,0.434997,0.324434,-1.386799,-0.638066,-1.057884,3.563168,-2.013145,-1.092304,5.918582,0.002000,-0.898086,0.000000
99.000000,0.002000,0.183754,0.215262,-0.094107,0.408367,0.996736,2.020950,-10.891240,-8.969646,5.752193,0.002000,0.166400,0.000000
100.000000,0.002000,-0.116363,0.013657,0.324535,-3.170286,2.202044,1.357557,10.963731,2.779126,-20.898048,0.002000,-0.062990,0.000000
101.000000,0.002000,0.582982,0.281595,-0.742323,0.254592,-2.153776,1.751695,-7.307451,-2.186217,8.591836,0.002000,0.161100,0.000000
102.000000,0.002000,0.387444,0.026183,-0.520843,-1.447277,2.688013,-1.175966,-11.180799,0.090953,12.200212,0.002000,2.082086,0.000000
103.000000,0.002000,0.792423,-0.135340,-0.016074,4.554106,0.012807,-1.272064,-12.857207,2.699266,0.029300,0.002000,0.098943,0.000000
104.000000,0.002000,0.198170,-0.374963,-0.713849,0.832920,-1.607673,1.368779,-3.517170,8.087658,11.007279,0.002000,-0.226243,0.000000
105.000000,0.002000,-0.494942,-0.851581,0.673132,2.673390,1.094257,2.159832,2.996033,6.159299,-4.792369,0.002000,-0.033283,0.000000
106.000000,0.002000,-0.229288,-0.328820,-0.098265,-0.180476,0.592864,-1.498558,8.967426,17.559550,4.336895,0.002000,-0.927191,0.000000
107.000000,0.002000,0.054015,0.584842,-0.066097,0.014175,2.370188,-1.059307,-4.327209,-17.465915,-0.464934,0.002000,-1.270636,0.000000
108.000000,0.002000,-0.380454,-0.133249,1.321156,0.165592,0.180230,-0.035352,1.647235,1.082876,-6.530463,0.002000,0.141324,0.000000
109.000000,0.002000,-0.641118,-0.108509,0.104382,-1.224584,2.501661,-1.506506,14.764634,5.357940,-4.012962,0.002000,1.018769,0.000000
110.000000,0.002000,-0.569798,0.412845,-0.021692,-4.241496,1.757948,-2.818168,15.026654,-9.472796,0.305002,0.002000,-0.171641,0.000000
111.000000,0.002000,-0.086333,0.415062,-0.282226,-3.405296,1.558334,1.449880,-1.403851,-13.494455,11.233046,0.002000,-1.878529,0.000000
112.000000,0.002000,-1.577594,-1.923149,0.357666,0.111923,1.471108,-0.717708,1.488164,1.985645,-0.342350,0.002000,0.065252,0.000000
113.000000,0.002000,-0.683207,1.499102,0.622430,-3.671430,1.172700,-1.197389,1.984919,-4.309604,-1.866137,0.002000,0.611217,0.000000
114.000000,0.002000,0.056651,0.578711,0.404734,-2.870164,-0.740564,0.512459,-1.951050,-14.426956,-9.766324,0.002000,0.663824,0.000000
115.000000,0.002000,0.097043,0.401996,0.739871,0.675498,0.534444,2.195260,-2.948799,-3.771596,-11.525947,0.002000,-1.637898,0.000000
116.000000,0.002000,-0.131236,0.042656,-0.049636,-1.556260,-0.963917,1.328070,5.275131,1.283597,0.246596,0.002000,1.898270,0.000000
117.000000,0.002000,0.133398,0.190591,0.036064,2.371341,-1.527024,-0.186728,-13.355993,-8.132864,-5.008597,0.002000,0.081717,0.000000
118.000000,0.002000,0.089601,0.546332,0.571768,1.321076,-0.555309,-0.792111,-3.652461,-8.764374,-12.233402,0.002000,-0.849587,0.000000
119.000000,0.002000,0.247432,0.541002,-0.502275,-0.300675,0.521567,-4.497511,-5.153913,-9.838266,10.047792,0.002000,-0.404624,0.000000
120.000000,0.002000,0.247549,0.639217,-0.249279,-0.006680,0.878739,1.219051,-7.018785,-13.563271,4.819044,0.002000,0.434997,0.000000
121.000000,0.002000,-0.439306,-0.224319,-0.461203,0.260166,-1.400080,1.169568,10.170701,7.881210,11.007991,0.002000,0.183754,0.000000
122.000000,0.002000,-0.041039,-0.045461,0.183306,2.147789,1.674398,-0.731343,8.220006,9.472355,-11.777022,0.002000,-0.116363,0.000000
123.000000,0.002000,0.353935,-0.528733,0.434116,-0.723684,3.989670,-1.307443,-5.467236,9.516356,-7.469573,0.002000,0.582982,0.000000
124.000000,0.002000,0.729131,-0.322852,0.410638,0.242234,0.750048,0.897383,-9.712404,5.313344,-5.159938,0.002000,0.387444,0.000000
125.000000,0.002000,0.354859,-0.112806,-0.593405,2.766872,-1.352960,-2.112605,-9.042444,4.146398,14.116669,0.002000,0.792423,0.000000
126.000000,0.002000,-0.003455,-0.422994,-0.722020,0.651003,0.824455,-4.423839,-0.858287,7.590303,10.711657,0.002000,0.198170,0.000000
127.000000,0.002000,-0.439988,0.933057,-0.984996,-2.898141,1.520498,0.396341,2.298794,-4.585905,5.193059,0.002000,-0.494942,0.000000
128.000000,0.002000,0.689994,1.518576,-0.789008,1.489299,2.362090,-1.819835,-1.854826,-3.778551,2.062979,0.002000,-0.229288,0.000000
129.000000,0.002000,0.910463,-0.323839,-0.504904,-1.927024,2.376177,1.755168,-8.221042,3.494048,3.769712,0.002000,0.054015,0.000000
130.000000,0.002000,-0.289499,1.648415,-0.013960,-1.346284,1.622216,-0.743815,1.009228,-5.607158,0.017455,0.002000,-0.380454,0.000000
131.000000,0.002000,0.183668,-0.011514,-0.096076,-1.676593,2.378458,0.161129,-14.784286,6.190202,5.655404,0.002000,-0.641118,0.000000
132.000000,0.002000,0.379632,-0.355267,0.572154,1.658546,2.194585,-1.099273,-6.528046,6.991710,-9.813198,0.002000,-0.569798,0.000000
133.000000,0.002000,-1.753476,-0.453446,-1.591713,0.210780,-1.499684,-1.471977,2.032969,0.603000,1.880140,0.002000,-0.086333,0.000000
134.000000,0.002000,1.047924,-0.369628,1.994013,-1.288381,1.065934,-0.425965,-1.387270,0.561221,-2.568137,0.002000,-1.577594,0.000000
135.000000,0.002000,-0.199268,-0.552548,0.409060,-0.809925,-4.713597,-0.388692,3.354613,11.797273,-6.884180,0.002000,-0.683207,0.000000
136.000000,0.002000,-0.273951,0.426613,0.231665,1.138440,-0.042776,-2.894183,9.082988,-13.676888,-9.852156,0.002000,0.056651,0.000000
137.000000,0.002000,0.094582,0.372120,0.089730,-2.244012,-1.563381,3.630955,-4.862445,-16.756134,-5.678754,0.002000,0.097043,0.000000
138.000000,0.002000,-0.612057,-0.158486,0.125494,4.132793,-1.706928,-1.231153,14.929355,7.786975,-4.599152,0.002000,-0.131236,0.000000
139.000000,0.002000,-1.003312,1.096154,0.464069,0.274563,0.748075,0.259016,4.025979,-4.188524,-2.109646,0.002000,0.133398,0.000000
140.000000,0.002000,-0.968535,-1.278737,0.598543,0.311401,1.871106,2.153675,2.649008,3.961593,-1.666070,0.002000,0.089601,0.000000
141.000000,0.002000,-0.211735,-2.722501,2.253970,0.537742,0.031427,-1.279778,0.078236,1.089327,-0.899620,0.002000,0.247432,0.000000
142.000000,0.002000,0.364064,-0.267970,-0.121739,1.230814,-2.753181,-0.102180,-12.503316,10.997624,3.436857,0.002000,0.247549,0.000000
143.000000,0.002000,-1.665132,-2.882861,-0.987338,-1.281600,-1.803593,-0.618008,0.691299,1.272774,0.441330,0.002000,-0.439306,0.000000
144.000000,0.002000,0.388095,-0.193261,-0.062900,0.821325,-1.215917,-2.032820,-13.482115,9.898723,1.998515,0.002000,-0.041039,0.000000
145.000000,0.002000,0.205627,0.471606,-0.522019,2.418003,0.358654,1.540141,-4.760771,-9.737382,12.794914,0.002000,0.353935,0.000000
146.000000,0.002000,-0.200691,0.187531,-0.785856,-0.128705,1.026454,-0.263165,2.550938,-1.761025,13.220629,0.002000,0.729131,0.000000
147.000000,0.002000,0.073925,0.365974,0.281775,-1.898076,1.984228,2.648326,-5.829434,-12.190082,-13.575597,0.002000,0.354859,0.000000
148.000000,0.002000,2.201186,0.503058,-0.606964,1.341825,0.774672,-0.979406,-2.854023,-0.537646,0.740680,0.002000,-0.003455,0.000000
149.000000,0.002000,0.546973,-0.149977,-0.046721,0.241208,0.407120,-1.885781,-15.299540,7.055027,0.568772,0.002000,-0.439988,0.000000
150.000000,0.002000,-0.066746,0.467841,-0.522831,-3.362737,-0.589565,-0.889524,0.603668,-10.885787,14.597157,0.002000,0.689994,0.000000
151.000000,0.002000,1.101280,0.230312,0.038720,-1.538103,-1.493620,-0.899103,-9.300184,-1.498841,-0.308818,0.002000,0.910463,0.000000
152.000000,0.002000,0.185481,-0.667147,-1.392924,0.879419,-1.281832,1.348836,-0.703013,2.610728,4.907519,0.002000,-0.289499,0.000000
153.000000,0.002000,0.903797,1.737297,0.030929,1.084559,-0.737254,0.652300,-1.940905,-3.874839,-0.153027,0.002000,0.183668,0.000000
154.000000,0.002000,0.021451,-0.107968,-0.108542,-1.105286,-1.794948,-5.013598,-1.888874,14.139464,7.193284,0.002000,0.379632,0.000000
155.000000,0.002000,-0.107921,-0.248783,-0.066874,-0.583501,-0.470438,0.720049,5.704501,18.177483,3.763386,0.002000,-1.753476,0.000000
156.000000,0.002000,-3.646456,0.864917,-1.827614,0.547600,-0.349652,-0.933981,0.990628,-0.202740,0.492721,0.002000,1.047924,0.000000
157.000000,0.002000,-1.836098,-5.276599,-0.379389,-0.181378,-1.143009,0.170439,0.198568,0.587282,0.043367,0.002000,-0.199268,0.000000
158.000000,0.002000,0.100936,-0.034325,-0.567396,-1.250752,1.515454,1.037776,-4.332630,2.618411,16.565053,0.002000,-0.273951,0.000000
159.000000,0.002000,0.139450,0.182831,0.657766,4.077347,1.325843,-0.966945,-3.198158,-2.980717,-15.917591,0.002000,0.094582,0.000000
160.000000,0.002000,0.356814,0.537996,0.911193,-0.068180,2.209661,2.495461,-2.846845,-4.448570,-7.806714,0.002000,-0.612057,0.000000
161.000000,0.002000,-0.166283,-0.417518,0.495912,-2.309585,1.132113,2.363549,0.665249,9.883348,-11.455321,0.002000,-1.003312,0.000000
162.000000,0.002000,-0.656204,-2.771493,3.348488,-0.634411,-1.443554,0.070609,0.135991,0.632717,-0.740502,0.002000,-0.968535,0.000000
163.000000,0.002000,-0.358789,-0.304907,-0.177660,2.990384,-3.527996,-3.025252,10.585651,14.142714,5.731494,0.002000,-0.211735,0.000000
164.000000,0.002000,-0.024895,0.581073,0.200407,0.888316,1.406330,-1.348134,0.798214,-16.641668,-7.394851,0.002000,0.364064,0.000000
165.000000,0.002000,-1.268461,0.383319,-3.864248,-0.754483,-0.696121,-1.789477,0.362211,-0.095106,1.111021,0.002000,-1.665132,0.000000
166.000000,0.002000,0.447441,0.044251,0.926489,1.151991,-1.999026,2.052234,-4.068422,0.891534,-9.355836,0.002000,0.388095,0.000000
167.000000,0.002000,0.708045,0.514828,0.315853,-0.351845,-0.385125,1.728176,-10.710014,-6.468680,-6.583503,0.002000,0.205627,0.000000
168.000000,0.002000,0.108641,0.380911,0.489349,1.094778,1.095966,-1.279172,-1.172323,-10.509059,-20.959300,0.002000,-0.200691,0.000000
169.000000,0.002000,-0.027825,0.207390,-0.005553,4.661052,2.136022,3.362581,2.269808,-8.602987,-1.838616,0.002000,0.073925,0.000000
170.000000,0.002000,3.728867,-4.142650,1.702446,0.150779,0.133440,-0.189381,-0.359681,0.408313,-0.167997,0.002000,2.201186,0.000000
171.000000,0.002000,2.909996,-0.058929,1.004053,-0.354498,-0.673017,0.534760,-1.800305,0.099267,-0.596849,0.002000,0.546973,0.000000
172.000000,0.002000,4.778352,2.644039,-1.170350,0.312233,-0.322961,0.348410,-0.551287,-0.294805,0.134233,0.002000,-0.066746,0.000000
173.000000,0.002000,0.751040,-0.472355,-0.290751,-0.836319,2.790053,0.691533,-8.193678,7.148137,0.092687,0.002000,1.101280,0.000000
174.000000,0.002000,1.580017,2.460782,-0.611695,0.264542,1.729037,0.134972,-0.806357,-1.511541,0.058403,0.002000,0.185481,0.000000
175.000000,0.002000,0.211186,-0.723446,-0.505533,-3.605028,-1.638891,0.843946,-2.686758,9.663450,5.393150,0.002000,0.903797,0.000000
176.000000,0.002000,-0.660457,-1.104487,0.783090,-0.419091,1.904873,0.830650,2.215782,4.403902,-2.933165,0.002000,0.021451,0.000000
177.000000,0.002000,-1.817833,-3.705289,-4.411684,-0.493031,1.211916,0.229374,0.158474,0.336370,0.387561,0.002000,-0.107921,0.000000
178.000000,0.002000,0.227537,0.202797,-0.137471,2.077734,1.186062,-0.156479,-12.606258,-7.582285,7.431955,0.002000,-3.646456,0.000000
179.000000,0.002000,0.008099,0.245746,-0.884941,-1.288795,-1.534186,-0.068209,-0.362701,-2.724595,12.423230,0.002000,-1.836098,0.000000
180.000000,0.002000,0.513201,-0.270654,0.034156,0.114233,1.211255,-0.501505,-14.027763,8.801685,-2.215275,0.002000,0.100936,0.000000
181.000000,0.002000,0.048855,1.264952,0.890606,0.549682,-0.099012,1.627695,-0.203647,-4.841787,-3.777748,0.002000,0.139450,0.000000
182.000000,0.002000,-3.016052,-0.505842,0.154133,-0.368068,0.923723,0.761807,1.881325,0.345273,-0.134985,0.002000,0.356814,0.000000
183.000000,0.002000,-0.601442,1.848276,0.152767,-1.161294,2.152981,-2.648291,1.255121,-4.190974,-0.369312,0.002000,-0.166283,0.000000
184.000000,0.002000,-0.278749,-0.028252,0.841630,-1.598035,0.199689,-0.137874,4.012597,3.574270,-11.736300,0.002000,-0.656204,0.000000
185.000000,0.002000,0.930692,-0.575211,-0.365722,-0.435163,-1.078823,1.041835,-6.890793,4.668738,2.923598,0.002000,-0.358789,0.000000
186.000000,0.002000,-1.303912,-0.054486,-2.555733,1.209418,-1.309176,0.904119,0.949069,0.163783,1.902072,0.002000,-0.024895,0.000000
187.000000,0.002000,-0.279458,5.921959,-2.142681,0.275196,-0.037084,-0.210157,0.022702,-0.480434,0.172699,0.002000,-1.268461,0.000000
188.000000,0.002000,-0.010106,-0.460900,-0.682042,-0.697285,3.382872,-1.477095,-0.515957,9.172513,9.257741,0.002000,0.447441,0.000000
189.000000,0.002000,0.087924,-2.798081,-0.183973,-1.023853,1.049238,0.631045,-0.041697,2.165696,0.110116,0.002000,0.708045,0.000000
190.000000,0.002000,-0.113809,0.376798,-0.032353,1.699290,2.028996,2.429988,7.851478,-16.215619,6.904390,0.002000,0.108641,0.000000
191.000000,0.002000,0.042496,0.001061,-0.194066,0.832252,-2.860651,3.120352,-7.160626,7.737231,8.691116,0.002000,-0.027825,0.000000
192.000000,0.002000,1.616297,0.331978,0.349750,-0.041950,-0.728186,1.118479,-4.799820,-0.707688,-1.142825,0.002000,3.728867,0.000000
193.000000,0.002000,0.066678,-0.143972,0.353324,-0.430591,3.011309,-1.545699,-1.797775,10.808546,-17.985902,0.002000,2.909996,0.000000
194.000000,0.002000,-2.028008,0.933064,1.052460,1.348859,-2.078036,-0.750462,2.270393,-1.053261,-1.327718,0.002000,4.778352,0.000000
195.000000,0.002000,0.163528,0.590717,-1.342019,-1.693443,0.291168,1.014909,-0.687443,-2.272172,6.066832,0.002000,0.751040,0.000000
196.000000,0.002000,-0.613435,0.292116,0.175991,-0.710839,2.316314,-1.590082,14.900532,-5.955542,-5.643592,0.002000,1.580017,0.000000
197.000000,0.002000,-2.247572,-0.544398,5.176693,-0.500405,-0.727339,1.068484,0.241436,0.068704,-0.560908,0.002000,0.211186,0.000000
198.000000,0.002000,0.318866,0.177300,0.537697,-2.320916,-1.671222,-1.052900,-8.879764,-3.211632,-15.221991,0.002000,-0.660457,0.000000
199.000000,0.002000,-0.136450,-0.226105,-0.210372,3.128253,0.667753,-2.208718,7.441023,16.659762,7.364257,0.002000,-1.817833,0.000000
200.000000,0.002000,0.125231,0.219791,0.315534,-0.630958,4.193415,0.796244,-5.490573,-9.068729,-15.929654,0.002000,0.227537,0.000000
201.000000,0.002000,-0.931465,0.865698,-0.490038,-2.309816,2.244794,-1.145438,5.377958,-4.812574,2.553989,0.002000,0.008099,0.000000
202.000000,0.002000,-0.064631,0.746611,0.256483,1.816050,-3.745062,-2.330066,1.523058,-16.155172,-4.368472,0.002000,0.513201,0.000000
203.000000,0.002000,-0.048614,1.146399,0.337387,-0.061336,-0.267820,2.252311,0.177199,-8.757537,-3.162309,0.002000,0.048855,0.000000
204.000000,0.002000,0.153919,-0.584997,-0.467752,3.850087,-0.841290,0.813605,-3.119077,11.441919,7.439225,0.002000,-3.016052,0.000000
205.000000,0.002000,0.457260,0.835252,-0.318930,-0.580632,-3.369954,-0.918881,-5.866237,-9.500521,3.684779,0.002000,-0.601442,0.000000
206.000000,0.002000,-0.022133,0.136439,0.298428,1.665346,0.372465,0.066036,4.233646,-4.053218,-16.948310,0.002000,-0.278749,0.000000
207.000000,0.002000,-3.548557,0.718820,0.408163,-0.105977,-0.119634,0.190434,1.418821,-0.264472,-0.168677,0.002000,0.930692,0.000000
208.000000,0.002000,0.256375,0.182666,0.283317,1.728036,-3.529687,-2.611236,-12.029261,-4.447392,-14.020623,0.002000,-1.303912,0.000000
209.000000,0.002000,0.178914,0.123957,0.427041,0.695454,1.468819,-1.446177,-6.968279,-1.736085,-15.492989,0.002000,-0.279458,0.000000
210.000000,0.002000,-0.394703,0.202360,-0.423777,-2.674111,-0.928292,3.485552,14.253236,-4.462931,15.125979,0.002000,-0.010106,0.000000
211.000000,0.002000,0.132198,0.124787,-0.311327,2.734458,-2.297474,-1.575640,-10.198358,-0.034161,15.112632,0.002000,0.087924,0.000000
212.000000,0.002000,0.110895,0.135853,-0.078199,-0.555049,-0.219592,1.262893,-9.020667,-2.847680,4.830844,0.002000,-0.113809,0.000000
213.000000,0.002000,-0.143282,0.154204,-0.438416,2.278759,-0.283796,-2.493048,5.149550,0.393709,16.350763,0.002000,0.042496,0.000000
214.000000,0.002000,0.551737,-0.796372,-0.425492,3.431012,-2.068146,0.737776,-4.825741,7.551720,3.624366,0.002000,1.616297,0.000000
215.000000,0.002000,0.401523,-0.392635,-0.556424,-2.809379,2.974472,-1.214786,-6.808059,8.138267,9.264150,0.002000,0.066678,0.000000
216.000000,0.002000,-0.549210,-0.012862,0.179397,-1.602846,0.653294,-0.511528,16.447481,2.173078,-7.654506,0.002000,-2.028008,0.000000
217.000000,0.002000,-0.262370,1.360309,0.350571,-0.738893,1.305758,1.814967,1.090596,-6.850597,-2.045336,0.002000,0.163528,0.000000
218.000000,0.002000,0.655104,-2.693699,-2.519000,-1.434186,-0.084839,0.135345,-0.224061,0.971908,0.855554,0.002000,-0.613435,0.000000
219.000000,0.002000,0.135004,-0.154204,-0.053731,1.064353,-1.197851,-0.115425,-11.917400,11.680783,3.374145,0.002000,-2.247572,0.000000
220.000000,0.002000,-0.251165,0.240035,0.768686,-3.080070,0.207118,2.948235,3.484642,-2.560263,-11.725465,0.002000,0.318866,0.000000
221.000000,0.002000,1.192897,-1.737704,-1.514316,1.477183,-0.139961,-1.363869,-1.094577,1.708042,1.423820,0.002000,-0.136450,0.000000
222.000000,0.002000,0.066332,-0.075227,-0.240161,-0.823913,0.679976,-1.850363,-6.558821,4.985623,14.051101,0.002000,0.125231,0.000000
223.000000,0.002000,0.769927,0.472407,-1.951948,-0.740955,0.315948,1.581719,-1.317618,-0.672360,3.197139,0.002000,-0.931465,0.000000
224.000000,0.002000,0.152012,0.002052,-0.727477,0.812160,-5.272426,0.875205,-4.543190,2.302507,15.236438,0.002000,-0.064631,0.000000
225.000000,0.002000,0.907806,1.045595,-0.366722,1.520500,-0.960023,0.687163,-4.666361,-4.629482,1.831906,0.002000,-0.048614,0.000000
226.000000,0.002000,0.647308,0.306781,0.033539,0.699890,1.212683,-0.725173,-14.615861,-4.921467,-0.966336,0.002000,0.153919,0.000000
227.000000,0.002000,0.345826,0.868221,0.317171,-0.984414,-0.962296,-0.538413,-4.291249,-9.963406,-4.680879,0.002000,0.457260,0.000000
228.000000,0.002000,-0.899492,-0.450330,-2.160750,1.049637,1.100109,-1.427335,1.094609,0.612148,2.664558,0.002000,-0.022133,0.000000
229.000000,0.002000,-2.976702,-0.562091,1.214855,0.027399,-2.181791,1.535585,1.608682,0.323467,-0.616815,0.002000,-3.548557,0.000000
230.000000,0.002000,3.768819,2.795476,-2.281936,0.317431,-0.077099,-0.636662,-0.548514,-0.403721,0.315154,0.002000,0.256375,0.000000
231.000000,0.002000,-0.252933,-0.178255,0.219422,2.624177,-0.340639,4.073822,9.262820,13.076354,-12.296671,0.002000,0.178914,0.000000
232.000000,0.002000,0.877877,1.392322,0.242387,-1.465291,-1.900676,-0.386813,-3.093907,-4.453920,-1.004547,0.002000,-0.394703,0.000000
233.000000,0.002000,0.434418,0.852888,0.217929,-0.457374,-0.985849,0.242119,-5.963217,-10.495366,-3.661579,0.002000,0.132198,0.000000
234.000000,0.002000,1.117305,-1.786275,-0.842765,0.115583,-1.515166,0.935448,-1.508015,2.373346,1.057454,0.002000,0.110895,0.000000
235.000000,0.002000,-1.806455,0.056662,0.764187,0.288193,0.963023,-0.478191,3.756162,-0.075084,-1.737247,0.002000,-0.143282,0.000000
236.000000,0.002000,-1.998485,-1.342235,0.323587,-0.314082,1.219703,-1.288955,2.224394,1.543213,-0.399685,0.002000,0.551737,0.000000
237.000000,0.002000,0.419373,0.893943,0.133069,1.558992,-0.341050,-1.759869,-5.286693,-10.393832,-2.113232,0.002000,0.401523,0.000000
238.000000,0.002000,-0.356758,-0.433555,0.093154,-3.323559,0.206114,0.320736,8.236945,16.392961,-3.798860,0.002000,-0.549210,0.000000
239.000000,0.002000,0.553188,-0.310523,-0.383251,2.634573,1.701846,-1.910867,-10.594142,8.874970,6.585239,0.002000,-0.262370,0.000000
240.000000,0.002000,-0.265397,0.215477,-0.142233,-0.891847,2.200824,-2.227463,15.761700,-6.220585,13.198695,0.002000,0.655104,0.000000
241.000000,0.002000,-0.514375,0.120074,-0.169295,2.930023,2.298527,0.457466,12.965503,-5.515071,6.961073,0.002000,0.135004,0.000000
242.000000,0.002000,-0.449109,-0.024941,-0.671878,2.495488,-0.288903,4.277081,7.929374,1.363931,11.924213,0.002000,-0.251165,0.000000
243.000000,0.002000,0.433746,0.216515,-0.268754,-2.229845,-1.553726,1.042951,-15.134681,-4.193482,9.317905,0.002000,1.192897,0.000000
244.000000,0.002000,-0.450428,0.028134,0.050617,0.459126,-0.988503,-3.087570,20.585948,0.780274,-1.492824,0.002000,0.066332,0.000000
245.000000,0.002000,0.166885,4.785719,-10.020244,-0.803380,0.316810,-0.271949,-0.002780,-0.069692,0.147231,0.002000,0.769927,0.000000
246.000000,0.002000,-0.561772,0.722583,-0.342800,3.203753,-3.045671,2.073870,7.893534,-8.672271,4.132868,0.002000,0.152012,0.000000
247.000000,0.002000,0.877363,1.745450,1.675990,1.652964,0.429879,-0.311545,-0.906277,-1.680342,-1.725124,0.002000,0.907806,0.000000
248.000000,0.002000,0.378830,0.197963,0.464847,-3.064015,1.859716,-1.388151,-9.819965,1.566766,-17.135113,0.002000,0.647308,0.000000
249.000000,0.002000,-0.042317,0.057162,-0.159368,-1.952857,-1.148873,0.584967,-0.598227,0.228076,8.782297,0.002000,0.345826,0.000000
250.000000,0.002000,-0.069572,0.504418,0.543859,0.571201,-3.167775,-0.841095,1.858916,-8.577441,-13.880195,0.002000,-0.899492,0.000000
251.000000,0.002000,1.681356,1.557967,1.677840,0.131005,1.605297,0.255801,-1.310499,-1.158096,-1.324028,0.002000,-2.976702,0.000000
252.000000,0.002000,0.961432,0.257002,-0.363796,0.389964,0.834583,-0.993207,-9.395129,-1.244012,3.501831,0.002000,3.768819,0.000000
253.000000,0.002000,-0.225936,0.394944,0.024595,0.504409,0.355142,-0.559598,9.415700,-15.579188,-3.857491,0.002000,-0.252933,0.000000
254.000000,0.002000,1.210864,0.471526,-0.115590,2.114177,-1.572728,1.159329,-7.277866,-2.437673,0.580399,0.002000,0.877877,0.000000
255.000000,0.002000,-0.124931,0.891372,-0.102693,-1.158098,-1.824961,-1.048835,1.825330,-12.143842,0.908693,0.002000,0.434418,0.000000
256.000000,0.002000,1.862972,0.541534,0.358907,-0.814882,-0.627791,-0.669659,-3.748405,-0.849815,-0.851359,0.002000,1.117305,0.000000
257.000000,0.002000,0.086948,-0.328756,-0.827501,-1.390256,-0.483731,-0.839398,-1.630702,5.665447,11.334937,0.002000,-1.806455,0.000000
258.000000,0.002000,-0.002808,-0.056700,0.000380,2.746496,1.204922,1.179267,2.762729,12.691894,-5.479298,0.002000,-1.998485,0.000000
259.000000,0.002000,0.671372,0.909541,-0.308775,-0.420603,1.452861,1.203857,-5.854318,-7.337440,2.437684,0.002000,0.419373,0.000000
260.000000,0.002000,0.251740,-0.642967,0.971735,-0.896420,-3.034565,-0.110837,-1.615860,4.564056,-6.506005,0.002000,-0.356758,0.000000
261.000000,0.002000,0.102278,0.680588,0.252674,3.277862,1.499502,1.406155,-5.825596,-15.548516,-6.043899,0.002000,0.553188,0.000000
262.000000,0.002000,0.157342,-0.357316,0.434886,-3.896368,-0.817413,3.209898,-3.668989,10.823241,-11.166121,0.002000,-0.265397,0.000000
263.000000,0.002000,-0.020453,0.120928,-0.406573,-2.157775,-0.916949,3.878645,2.938632,0.985437,19.915880,0.002000,-0.514375,0.000000
264.000000,0.002000,0.220038,-0.954553,0.233495,-0.022845,2.703619,0.049622,-2.006940,9.338859,-2.942326,0.002000,-0.449109,0.000000
265.000000,0.002000,0.205867,0.093039,0.514819,2.433334,-2.476778,1.645997,-6.677070,-0.151957,-16.894139,0.002000,0.433746,0.000000
266.000000,0.002000,0.637298,0.347882,0.930219,2.145052,0.430610,2.408654,-5.325764,-2.200731,-6.594464,0.002000,-0.450428,0.000000
267.000000,0.002000,-1.364194,-0.439509,0.264432,-0.101946,-0.863055,0.970027,5.766780,2.241065,-1.112699,0.002000,0.166885,0.000000
268.000000,0.002000,-0.351585,-0.153688,0.280284,-0.809807,4.325718,-2.056385,12.073486,7.942731,-11.589985,0.002000,-0.561772,0.000000
269.000000,0.002000,0.133005,0.010825,-0.032274,-0.734618,-0.273687,2.009153,-12.842306,4.026901,-0.754695,0.002000,0.877363,0.000000
270.000000,0.002000,0.886268,0.929139,0.836865,-1.845924,1.198280,-1.493741,-3.657984,-3.356040,-3.454879,0.002000,0.378830,0.000000
271.000000,0.002000,-0.559875,0.329544,0.369040,-0.754084,-1.925282,-0.146805,11.407201,-5.991169,-8.569726,0.002000,-0.042317,0.000000
272.000000,0.002000,-0.300808,-0.734820,1.405459,-0.488960,3.390380,-0.496456,0.839052,2.423354,-4.467184,0.002000,-0.069572,0.000000
273.000000,0.002000,-0.299371,-0.377782,0.418496,-1.840866,3.196570,-1.048612,6.210314,11.563305,-8.360304,0.002000,1.681356,0.000000
274.000000,0.002000,0.336274,0.268625,-0.185049,1.338956,-0.078948,0.935695,-14.531986,-7.815876,6.603673,0.002000,0.961432,0.000000
275.000000,0.002000,0.301756,0.175833,0.198959,-1.650984,4.464472,1.675735,-17.396514,-4.153159,-11.434629,0.002000,-0.225936,0.000000
276.000000,0.002000,-0.112315,-3.158380,0.787517,-0.095682,-0.459726,0.501633,0.064384,1.602563,-0.376062,0.002000,1.210864,0.000000
277.000000,0.002000,-0.366442,0.272457,0.001279,3.226769,0.091140,-2.752438,17.574544,-10.119035,-2.121565,0.002000,-0.124931,0.000000
278.000000,0.002000,0.159230,0.037860,-0.363409,-1.001864,-1.063947,-0.128154,-9.807715,3.182669,16.601740,0.002000,1.862972,0.000000
279.000000,0.002000,-0.122416,0.415048,0.393313,-0.742637,0.865650,1.839236,4.052133,-10.006142,-13.602911,0.002000,0.086948,0.000000
280.000000,0.002000,-0.109730,0.076038,-0.090695,0.397062,1.841715,2.960048,4.837077,-0.456439,2.310890,0.002000,-0.002808,0.000000
281.000000,0.002000,0.381551,1.115762,-0.732074,-1.560820,0.128164,-0.753513,-2.230413,-6.201140,4.227851,0.002000,0.671372,0.000000
282.000000,0.002000,-1.928158,-0.659563,-0.774465,1.209406,-0.818561,-1.867109,2.915666,1.166105,1.210026,0.002000,0.251740,0.000000
283.000000,0.002000,0.501606,0.256347,-0.228965,1.491627,-2.029928,-2.348697,-17.559566,-6.146800,6.422750,0.002000,0.102278,0.000000
284.000000,0.002000,1.223638,4.094498,1.224390,-0.161220,1.567666,0.911935,-0.274756,-0.914705,-0.295436,0.002000,0.157342,0.000000
285.000000,0.002000,0.626017,-0.558008,-0.378467,-0.502951,-0.898718,-1.347763,-7.094464,7.892894,4.609267,0.002000,-0.020453,0.000000
286.000000,0.002000,-0.036082,1.190005,0.171836,-3.249193,-0.138042,-0.142389,0.205713,-9.131649,-1.959669,0.002000,0.220038,0.000000
287.000000,0.002000,0.264847,-0.027848,0.055642,-2.643726,1.602980,-0.941465,-15.031723,3.915166,-5.468212,0.002000,0.205867,0.000000
288.000000,0.002000,0.168626,0.080916,-0.195560,-1.004016,1.011983,1.821831,-11.896337,0.929835,10.439077,0.002000,0.637298,0.000000
289.000000,0.002000,0.014288,0.378320,-0.010563,0.478008,-1.196864,0.354768,-5.422074,-17.518684,1.194625,0.002000,-1.364194,0.000000
290.000000,0.002000,-0.139917,0.024475,-0.017448,-4.341003,-0.254925,-0.804072,5.987705,2.492132,-2.315574,0.002000,-0.351585,0.000000
291.000000,0.002000,-0.615443,0.197677,0.296211,1.540453,1.861134,-4.585184,13.764408,-3.459267,-7.588712,0.002000,0.133005,0.000000
292.000000,0.002000,-0.340214,-0.163630,-0.374627,-0.770616,2.716525,-1.799772,8.945046,8.711867,11.501538,0.002000,0.886268,0.000000
293.000000,0.002000,0.097965,-0.054047,0.378031,0.607851,0.947614,-2.933743,-2.568534,5.125148,-20.511540,0.002000,-0.559875,0.000000
294.000000,0.002000,0.838441,-0.937568,-0.393598,-0.074012,-1.774988,-2.368535,-4.495519,5.114496,2.172385,0.002000,-0.300808,0.000000
295.000000,0.002000,0.138403,-0.131055,0.168442,-0.788736,-0.207432,-1.973553,-9.930503,12.360967,-9.065770,0.002000,-0.299371,0.000000
296.000000,0.002000,0.000148,0.374492,-0.566065,-1.768953,1.675000,1.263508,-1.041664,-7.314928,15.921441,0.002000,0.336274,0.000000
297.000000,0.002000,-0.252082,-0.216719,0.310829,-0.075004,0.721932,0.284275,10.126926,11.263733,-10.215668,0.002000,0.301756,0.000000
298.000000,0.002000,-1.111538,0.327702,-0.024831,1.452198,0.853327,-0.381933,8.920840,-1.686428,0.708078,0.002000,-0.112315,0.000000
299.000000,0.002000,1.085054,-0.977027,0.898690,-0.898979,2.761452,-0.934851,-2.911924,2.733234,-2.414436,0.002000,-0.366442,0.000000
300.000000,0.002000,1.838420,-0.862988,1.966132,0.825868,1.145433,1.780762,-1.354468,0.638071,-1.432468,0.002000,0.159230,0.000000
301.000000,0.002000,-0.315335,0.537916,0.862129,0.231132,1.337025,1.353638,2.833231,-4.687270,-8.667144,0.002000,-0.122416,0.000000
302.000000,0.002000,0.520786,-0.215782,-0.031834,-2.252417,1.607036,-1.987850,-15.466282,8.590750,1.601254,0.002000,-0.109730,0.000000
303.000000,0.002000,2.001486,1.890179,-1.025933,-0.230780,0.864143,-1.305923,-1.450484,-1.241741,0.788695,0.002000,0.381551,0.000000
304.000000,0.002000,0.668408,0.500677,0.083487,-2.386677,0.237201,0.996456,-10.764013,-6.747848,-1.651476,0.002000,-1.928158,0.000000
305.000000,0.002000,1.091008,1.445599,-0.377925,-0.562963,-2.421566,-0.158010,-2.931955,-3.610745,1.050505,0.002000,0.501606,0.000000
306.000000,0.002000,-0.032168,-0.284407,-0.689695,-0.628256,1.029795,0.930409,0.223124,6.357736,12.976589,0.002000,1.223638,0.000000
307.000000,0.002000,0.050827,-0.377241,-0.455219,-0.902892,-2.436805,1.992368,-2.248563,12.440725,10.158333,0.002000,0.626017,0.000000
308.000000,0.002000,-1.476443,2.393967,1.212884,-0.682613,-0.568747,-0.129100,0.928954,-1.531695,-0.814209,0.002000,-0.036082,0.000000
309.000000,0.002000,-0.729655,2.727518,-0.999476,-0.414244,-1.303948,0.160784,0.496362,-1.868295,0.683502,0.002000,0.264847,0.000000
310.000000,0.002000,0.255927,-0.033656,0.462144,-2.249486,3.341654,0.704567,-8.231992,3.688639,-15.822116,0.002000,0.168626,0.000000
311.000000,0.002000,2.043972,1.348047,-1.723884,-0.836636,0.297800,-0.258732,-1.377089,-0.847023,1.175046,0.002000,0.014288,0.000000
312.000000,0.002000,-1.486344,0.066218,1.466690,0.232742,-0.397871,-1.783458,2.824760,0.061164,-2.720774,0.002000,-0.139917,0.000000
313.000000,0.002000,1.497470,-0.247845,1.573292,-1.045193,-1.292593,-1.226217,-2.240678,0.532812,-2.358027,0.002000,-0.615443,0.000000
314.000000,0.002000,0.597666,-0.335755,-0.299947,1.083917,-1.226128,1.668255,-10.850426,7.736089,4.400463,0.002000,-0.340214,0.000000
315.000000,0.002000,2.237265,-2.477019,0.001302,-1.024212,0.181123,-0.131956,-1.054176,1.181528,0.006243,0.002000,0.097965,0.000000
316.000000,0.002000,-0.497868,0.148875,-1.054586,0.944409,0.724676,-2.171415,3.690151,-0.631032,8.192764,0.002000,0.838441,0.000000
317.000000,0.002000,0.060774,0.382300,-0.895634,1.277591,-2.099254,1.237447,-1.015841,-3.703015,11.437076,0.002000,0.138403,0.000000
318.000000,0.002000,0.062086,0.139485,0.475829,-0.927812,-3.941240,-0.497696,-1.820567,-2.645653,-16.935758,0.002000,0.000148,0.000000
319.000000,0.002000,-0.035093,0.503319,0.726008,-1.172144,-1.254915,0.673276,0.571505,-6.022761,-11.411114,0.002000,-0.252082,0.000000
320.000000,0.002000,0.459073,-3.439034,1.511032,-0.347779,0.330255,-1.038975,-0.158265,1.161262,-0.530966,0.002000,-1.111538,0.000000
321.000000,0.002000,-0.421260,0.087624,0.350938,-0.110152,1.024615,-0.659517,13.119326,-1.255105,-11.713149,0.002000,1.085054,0.000000
322.000000,0.002000,0.394684,0.388790,-0.284370,1.246613,-1.895693,-0.343619,-12.493134,-8.107773,8.612398,0.002000,1.838420,0.000000
323.000000,0.002000,-0.009453,0.375978,-0.001510,1.012512,-4.009968,2.457968,-1.145368,-15.697190,-2.197246,0.002000,-0.315335,0.000000
324.000000,0.002000,0.255508,0.040544,0.123914,-2.117067,-2.406199,2.466464,-16.978083,0.764596,-7.645370,0.002000,0.520786,0.000000
325.000000,0.002000,-0.532970,-1.782751,-2.285216,0.533791,1.519750,-1.633697,0.336925,1.231748,1.563475,0.002000,2.001486,0.000000
326.000000,0.002000,-0.663050,-0.145607,-1.463472,1.303039,-1.030396,2.060069,2.355477,0.729637,5.272482,0.002000,0.668408,0.000000
327.000000,0.002000,0.074313,0.060531,0.193658,-2.498158,1.161467,1.097187,-9.242675,-1.870608,-16.377517,0.002000,1.091008,0.000000
328.000000,0.002000,-0.663633,0.202227,-0.038273,-0.663636,1.592231,-1.912724,15.854601,-4.155138,-0.252785,0.002000,-0.032168,0.000000
329.000000,0.002000,0.042828,-0.022416,-0.332008,1.888793,-2.044016,-1.142825,-3.074041,4.701607,17.537899,0.002000,0.050827,0.000000
330.000000,0.002000,-0.454274,0.360976,0.186038,0.047588,1.019925,-1.865279,13.756112,-8.862521,-7.660409,0.002000,-1.476443,0.000000
331.000000,0.002000,0.164225,-0.293808,0.169256,-2.114683,-0.884339,1.533368,-4.030590,18.654389,-12.205437,0.002000,-0.729655,0.000000
332.000000,0.002000,0.050430,0.234448,-0.032706,1.156000,1.709524,-3.687691,-2.312105,-15.297072,1.572668,0.002000,0.255927,0.000000
333.000000,0.002000,-0.890301,0.181539,-0.701400,-0.184990,-0.034760,2.303011,8.018900,-2.740649,6.983257,0.002000,2.043972,0.000000
334.000000,0.002000,0.475110,-0.345366,-0.039919,2.363990,-1.832944,2.686781,-9.514270,15.838711,2.605044,0.002000,-1.486344,0.000000
335.000000,0.002000,0.291751,0.039561,-0.182832,2.323830,0.300249,3.376497,-13.045521,5.257609,10.592167,0.002000,1.497470,0.000000
336.000000,0.002000,-0.237125,0.134666,-0.635998,-1.044633,-1.401741,1.628808,5.610960,-1.253823,15.527648,0.002000,0.597666,0.000000
337.000000,0.002000,0.030140,0.603873,-0.079901,0.156025,0.931216,3.555884,-1.385209,-18.689504,1.262422,0.002000,2.237265,0.000000
338.000000,0.002000,0.917443,2.078823,-3.234109,1.007743,0.174535,1.042533,-0.264793,-0.639942,1.022386,0.002000,-0.497868,0.000000
339.000000,0.002000,-0.091683,-0.255126,0.163989,2.417628,0.615748,-0.912104,3.581057,15.765885,-8.313035,0.002000,0.060774,0.000000
340.000000,0.002000,2.008205,-1.275471,-0.441619,2.287658,0.470475,0.452018,-2.195554,1.776792,0.798960,0.002000,0.062086,0.000000
341.000000,0.002000,-0.088225,0.327981,-0.113120,-1.120147,1.966594,-3.324237,-0.214480,-18.168957,5.686923,0.002000,-0.035093,0.000000
342.000000,0.002000,0.647368,-0.903038,-1.404922,-1.727626,2.743517,0.553662,-1.621639,2.432605,3.671727,0.002000,0.459073,0.000000
343.000000,0.002000,0.347988,0.402502,-0.439012,2.324580,-3.179255,0.415649,-11.129144,-6.651285,12.817630,0.002000,-0.421260,0.000000
344.000000,0.002000,-0.161081,0.207434,0.003073,2.900367,-0.184077,-0.176191,6.517880,-3.691802,-0.354252,0.002000,0.394684,0.000000
345.000000,0.002000,1.712587,-0.495264,-0.253123,-0.732034,0.991655,-0.197362,-4.169211,1.396478,0.491440,0.002000,-0.009453,0.000000
346.000000,0.002000,-2.077727,-0.011035,-2.019839,-0.639719,-1.312901,-0.130156,1.488122,0.030470,1.460086,0.002000,0.255508,0.000000
347.000000,0.002000,0.262171,-0.744798,1.180240,0.056373,-1.417341,-2.123182,-1.247260,3.272734,-5.009940,0.002000,-0.532970,0.000000
348.000000,0.002000,0.055492,-0.198782,-0.259334,0.242129,-2.110074,-1.967991,-4.754691,16.524422,11.797280,0.002000,-0.663050,0.000000
349.000000,0.002000,0.719536,-0.052226,0.584705,-2.274142,-2.061603,-0.254262,-8.874899,0.983134,-7.700569,0.002000,0.074313,0.000000
350.000000,0.002000,-0.062626,-0.260785,0.657377,-2.871851,-2.744749,0.369346,1.319833,5.737421,-13.020326,0.002000,-0.663633,0.000000
351.000000,0.002000,-0.876581,-0.281425,-1.084790,1.879046,1.378870,0.417017,4.194171,1.686968,5.187502,0.002000,0.042828,0.000000
352.000000,0.002000,-0.441938,-2.110501,-0.875895,1.152884,-0.584103,-2.516318,0.462914,2.661335,1.028712,0.002000,-0.454274,0.000000
353.000000,0.002000,0.399649,3.620861,1.263696,0.740072,0.393384,0.478217,-0.144135,-1.233163,-0.430075,0.002000,0.164225,0.000000
354.000000,0.002000,-0.122300,-0.533136,-0.185195,-0.958106,-2.399585,0.613456,1.441325,17.092440,7.052542,0.002000,0.050430,0.000000
355.000000,0.002000,0.048947,-0.061354,-0.080278,0.107042,1.718374,1.959605,-1.431998,12.006501,3.976348,0.002000,-0.890301,0.000000
356.000000,0.002000,-0.615151,0.003273,-0.106657,1.694238,1.025897,2.912859,17.536616,3.075988,0.679391,0.002000,0.475110,0.000000
357.000000,0.002000,1.143948,2.313372,1.362092,0.559960,0.971488,-0.261925,-0.962885,-1.658894,-1.030179,0.002000,0.291751,0.000000
358.000000,0.002000,-0.231802,-0.538010,-1.200933,-2.241325,2.004234,0.540721,1.027274,3.572340,6.336382,0.002000,-0.237125,0.000000
359.000000,0.002000,-0.476662,0.625782,0.005212,2.400736,-0.267680,2.315340,10.333504,-11.858658,-0.611623,0.002000,0.030140,0.000000
360.000000,0.002000,-0.711777,-1.076619,0.593170,0.854649,-2.721395,1.423161,2.840715,4.792733,-2.487384,0.002000,0.917443,0.000000
361.000000,0.002000,0.085416,0.080664,0.020128,2.404334,-0.186102,-2.929892,-8.373520,0.533502,0.913853,0.002000,-0.091683,0.000000
362.000000,0.002000,0.429915,-0.627641,0.177416,-1.886973,-1.893860,-1.210401,-5.416616,10.651837,-3.125755,0.002000,2.008205,0.000000
363.000000,0.002000,0.022185,0.029494,-0.666855,0.851894,0.587056,-2.202653,-0.719095,1.193451,16.004204,0.002000,-0.088225,0.000000
364.000000,0.002000,-0.796426,-0.649418,-0.090208,-1.905273,0.270917,-0.060751,7.350602,7.512148,0.402301,0.002000,0.647368,0.000000
365.000000,0.002000,1.967921,-0.748114,4.314741,0.683879,-0.119080,0.848943,-0.338118,0.149936,-0.745733,0.002000,0.347988,0.000000
366.000000,0.002000,-0.040930,0.061614,0.112226,2.187888,-1.453471,0.079075,5.048937,-5.014224,-11.081283,0.002000,-0.161081,0.000000
367.000000,0.002000,-0.384199,-0.003760,-0.305596,3.810427,2.232239,-0.698254,11.729249,3.693263,12.106683,0.002000,1.712587,0.000000
368.000000,0.002000,-1.709799,-0.187430,1.458920,-0.465554,1.999525,-0.658924,2.386618,0.411913,-2.057865,0.002000,-2.077727,0.000000
369.000000,0.002000,-0.248543,0.087474,-0.475576,0.338635,0.915459,-0.925256,8.114858,-0.096665,16.343164,0.002000,0.262171,0.000000
370.000000,0.002000,0.043300,0.553952,0.641971,-0.624174,-2.278487,0.706557,-1.214449,-7.495978,-10.982457,0.002000,0.055492,0.000000
371.000000,0.002000,0.842554,1.226486,0.830280,0.059891,0.799503,0.070077,-2.657839,-3.540397,-2.661081,0.002000,0.719536,0.000000
372.000000,0.002000,-1.398835,-0.887467,3.193758,0.454084,0.080469,-1.112837,0.554906,0.383105,-1.283092,0.002000,-0.062626,0.000000
373.000000,0.002000,0.741501,0.093509,1.053553,-1.549717,1.202154,2.341517,-4.358537,0.083225,-6.277748,0.002000,-0.876581,0.000000
374.000000,0.002000,1.251405,-0.603045,0.441134,0.982872,-1.153826,-1.003520,-5.093509,2.860997,-2.112604,0.002000,-0.441938,0.000000
375.000000,0.002000,0.057143,-0.650647,0.662513,-2.305870,-1.696892,2.849747,-1.778995,7.547485,-8.461602,0.002000,0.399649,0.000000
376.000000,0.002000,-0.447221,0.326297,0.410872,-1.042886,0.503746,-0.014703,10.198045,-6.089771,-10.681540,0.002000,-0.122300,0.000000
377.000000,0.002000,0.053421,0.550630,0.414735,-2.040334,-4.281998,1.876682,-1.439386,-10.839933,-11.296934,0.002000,0.048947,0.000000
378.000000,0.002000,0.010055,0.002949,-0.051853,0.805461,-1.482853,6.284884,-0.896475,2.630903,-3.832168,0.002000,-0.615151,0.000000
379.000000,0.002000,0.213643,0.155342,0.120182,0.564507,-0.177329,0.715457,-16.804031,-5.605432,-7.297557,0.002000,1.143948,0.000000
380.000000,0.002000,-0.188248,-0.083463,-0.266267,-0.889110,3.661937,-2.072294,9.768359,8.906649,15.619022,0.002000,-0.231802,0.000000
381.000000,0.002000,-2.788001,2.144879,-0.167279,1.469698,-0.803041,-0.186695,1.216241,-0.939770,0.081508,0.002000,-0.476662,0.000000
382.000000,0.002000,-0.420319,0.350875,-0.173774,-3.623264,-1.602269,0.436240,14.213919,-10.153168,5.444280,0.002000,-0.711777,0.000000
383.000000,0.002000,-0.422576,-0.066093,-0.114226,-1.865509,0.850328,-3.402380,12.345470,11.027952,4.042509,0.002000,0.085416,0.000000
384.000000,0.002000,-0.025039,0.032927,0.601011,-0.073300,1.956136,2.571104,0.617446,1.196264,-16.825704,0.002000,0.429915,0.000000
385.000000,0.002000,0.553186,-0.593076,0.406487,-0.799629,1.336512,-0.014025,-6.701155,8.162818,-4.911846,0.002000,0.022185,0.000000
386.000000,0.002000,0.014945,0.480294,0.461039,0.484101,1.467113,1.523128,-1.220830,-9.574582,-14.081176,0.002000,-0.796426,0.000000
387.000000,0.002000,-0.716886,2.109004,0.009131,0.035911,-2.780310,0.696592,1.073869,-3.291363,-0.033608,0.002000,1.967921,0.000000
388.000000,0.002000,-0.029530,0.106777,-0.059431,-2.807060,3.124958,0.513328,2.165780,-3.754279,0.530520,0.002000,-0.040930,0.000000
389.000000,0.002000,0.948020,-0.047687,1.325294,0.890552,-1.544491,-1.405053,-3.068124,0.489202,-4.371354,0.002000,-0.384199,0.000000
390.000000,0.002000,-0.114448,-0.035036,-0.058416,2.075883,0.637931,-3.548564,4.589102,5.973314,1.763601,0.002000,-1.709799,0.000000
391.000000,0.002000,-0.126835,-0.357204,0.066114,0.821126,3.960949,0.766628,4.926369,18.222565,-2.342780,0.002000,-0.248543,0.000000
392.000000,0.002000,0.728776,0.699303,-0.168638,1.096925,-1.526695,-0.085826,-8.481037,-4.454918,2.150226,0.002000,0.043300,0.000000
393.000000,0.002000,-0.124476,-0.105255,0.810918,1.670643,1.441633,-0.798390,1.514945,2.783476,-12.403271,0.002000,0.842554,0.000000
394.000000,0.002000,0.400010,-0.163314,-0.204449,-1.022997,-2.336070,-0.334658,-14.700075,8.992230,6.910267,0.002000,-1.398835,0.000000
395.000000,0.002000,-0.151427,0.184246,0.963717,-0.354849,-0.720387,-1.601122,0.820898,-1.532805,-11.158714,0.002000,0.741501,0.000000
396.000000,0.002000,0.018192,0.141259,-0.408808,-0.528535,-2.320301,0.776731,-1.862415,-0.684237,20.535859,0.002000,1.251405,0.000000
397.000000,0.002000,-0.182678,0.404696,0.206725,2.686904,2.855655,-1.262444,9.314280,-14.156790,-11.326781,0.002000,0.057143,0.000000
398.000000,0.002000,1.086112,1.249493,0.286752,0.647837,1.093538,0.363982,-3.465233,-3.825237,-1.248847,0.002000,-0.447221,0.000000
399.000000,0.002000,-2.303339,0.775746,1.507946,0.345496,0.644422,0.234385,1.720860,-0.598188,-1.166456,0.002000,0.053421,0.000000
400.000000,0.002000,-1.446737,-1.019338,-0.250881,-1.544368,0.847188,-1.135938,3.455911,2.672673,0.673043,0.002000,0.010055,0.000000
401.000000,0.002000,-3.548510,3.261641,-0.954439,-0.006388,0.279270,-0.366287,0.604609,-0.561628,0.172950,0.002000,0.213643,0.000000
402.000000,0.002000,0.243829,-0.152399,-0.375876,1.441582,-2.506508,1.577111,-8.865630,8.857004,12.770950,0.002000,-0.188248,0.000000
403.000000,0.002000,0.900840,0.377695,-1.017787,-3.248751,0.140151,0.825093,-4.680845,-1.448349,5.169272,0.002000,-2.788001,0.000000
404.000000,0.002000,-0.605457,0.055220,1.971268,0.242085,0.552417,1.080296,0.926785,-0.027451,-3.515591,0.002000,-0.420319,0.000000
405.000000,0.002000,0.234588,0.446275,-0.274129,-1.242764,-1.364117,-2.062876,-10.518088,-14.460476,10.829384,0.002000,-0.422576,0.000000
406.000000,0.002000,-0.284610,0.096794,-0.187673,-0.992462,-0.654013,0.025721,14.107490,-3.749713,12.070797,0.002000,-0.025039,0.000000
407.000000,0.002000,-0.422721,-0.062018,-0.194276,-0.748859,-0.945105,-1.959722,12.039367,7.050929,8.328800,0.002000,0.553186,0.000000
408.000000,0.002000,0.402419,1.222594,0.024326,0.966413,-1.527867,0.197704,-2.763150,-8.007071,-0.324658,0.002000,0.014945,0.000000
409.000000,0.002000,0.044988,0.601271,0.084499,-0.255542,-0.944746,-0.455429,-1.856968,-17.765873,-3.355860,0.002000,-0.716886,0.000000
410.000000,0.002000,-0.003415,1.309129,-1.116579,-0.368144,0.550850,-2.355683,0.104960,-3.965719,3.640892,0.002000,-0.029530,0.000000
411.000000,0.002000,0.280241,-0.059739,-1.032869,1.931207,1.025393,-0.834701,-2.888861,1.304537,9.898972,0.002000,0.948020,0.000000
412.000000,0.002000,-2.464730,2.706963,2.323462,-0.190192,-0.776631,0.101663,0.612777,-0.643990,-0.537408,0.002000,-0.114448,0.000000
413.000000,0.002000,-0.522856,0.340787,-0.377123,2.040874,0.088114,0.040684,12.748949,-6.434257,6.656796,0.002000,-0.126835,0.000000
414.000000,0.002000,3.053584,-1.446222,1.756476,-0.424895,1.196880,-0.048311,-1.017749,0.493144,-0.592453,0.002000,0.728776,0.000000
415.000000,0.002000,-0.450460,-0.126845,-0.614166,-1.168768,0.686383,-2.343108,8.142819,2.649595,10.738460,0.002000,-0.124476,0.000000
416.000000,0.002000,-0.561519,-0.240035,-0.037024,-3.348036,-0.263681,-2.564122,13.328121,11.163756,-0.655041,0.002000,0.400010,0.000000
417.000000,0.002000,0.224875,1.134460,-0.218322,1.178954,3.673819,0.777412,-2.287186,-9.522823,1.825277,0.002000,-0.151427,0.000000
418.000000,0.002000,0.437208,0.522286,0.914507,1.354450,1.913202,1.148461,-4.286384,-4.273295,-7.176417,0.002000,0.018192,0.000000
419.000000,0.002000,-0.475596,-0.163354,1.780714,1.086471,2.431051,2.534964,0.864685,0.524525,-4.193051,0.002000,-0.182678,0.000000
420.000000,0.002000,1.766038,-1.153096,-0.060139,0.005678,0.378978,0.556454,-2.775611,1.968043,0.071313,0.002000,1.086112,0.000000
421.000000,0.002000,-0.228624,-0.382761,0.152696,0.315571,2.620025,-0.176259,7.350485,17.319744,-4.342382,0.002000,-2.303339,0.000000
422.000000,0.002000,0.184888,1.625883,-0.902903,-0.152609,1.372312,-0.787927,-0.525157,-4.259100,2.305843,0.002000,-1.446737,0.000000
423.000000,0.002000,-1.778198,-3.277969,2.644579,0.294156,1.430231,-1.073531,0.345861,0.661482,-0.516277,0.002000,-3.548510,0.000000
424.000000,0.002000,-0.975568,1.936534,-0.419752,1.632207,-1.408727,1.400957,1.542771,-3.041298,0.652884,0.002000,0.243829,0.000000
425.000000,0.002000,0.619581,-0.327060,0.361950,1.604558,-0.499866,-1.433612,-10.441710,8.502938,-4.532274,0.002000,0.900840,0.000000
426.000000,0.002000,0.440438,-0.048341,1.269530,0.764690,-1.238728,-0.638078,-2.504628,1.059249,-6.867123,0.002000,-0.605457,0.000000
427.000000,0.002000,0.785369,0.320363,0.378268,3.300054,-2.157218,-0.000535,-11.213751,-4.445121,-5.844183,0.002000,0.234588,0.000000
428.000000,0.002000,-0.046516,-0.025966,0.504434,-1.906606,2.551745,0.710101,-2.909412,-3.295313,-16.769466,0.002000,-0.284610,0.000000
429.000000,0.002000,0.244636,-0.191794,-0.020392,-0.769474,-2.586199,-0.378220,-11.168445,8.244913,-4.319150,0.002000,-0.422721,0.000000
430.000000,0.002000,0.054915,0.146017,-0.611627,3.139347,-0.750121,-4.187044,-0.797688,-2.995046,17.386426,0.002000,0.402419,0.000000
431.000000,0.002000,0.426350,0.288156,-0.171161,-1.819469,1.061230,0.916936,-16.192384,-6.693165,4.758969,0.002000,0.044988,0.000000
432.000000,0.002000,-0.027144,1.162691,-0.886645,0.735037,-0.233193,-0.236208,0.124856,-5.390641,4.385973,0.002000,-0.003415,0.000000
433.000000,0.002000,-0.325440,-0.169725,0.062357,-0.792092,-0.244866,3.088215,19.596294,15.668994,-6.105965,0.002000,0.280241,0.000000
434.000000,0.002000,0.446474,2.113488,1.683992,2.309450,-0.147584,-1.028534,-0.406701,-1.759963,-1.472138,0.002000,-2.464730,0.000000
435.000000,0.002000,0.132307,-0.036841,-0.473690,-0.360785,-2.949642,1.449256,-6.339323,5.647234,16.978013,0.002000,-0.522856,0.000000
436.000000,0.002000,-0.455210,0.068045,-0.285399,-2.568150,-2.225028,2.912493,16.242277,-1.762422,11.603978,0.002000,3.053584,0.000000
437.000000,0.002000,0.095681,0.279865,0.140640,1.035016,0.146811,2.930166,-0.616998,-15.066272,-11.123795,0.002000,-0.450460,0.000000
438.000000,0.002000,-0.240414,0.182485,-0.251977,-2.351962,0.528726,-1.198432,11.094330,-3.385664,12.480350,0.002000,-0.561519,0.000000
439.000000,0.002000,-0.081914,0.718884,0.064483,1.152700,0.310236,2.394048,1.541027,-16.288002,-1.461169,0.002000,0.224875,0.000000
440.000000,0.002000,-0.093328,0.194856,-0.310978,4.125349,0.942607,0.354717,6.934611,-6.165623,17.026920,0.002000,0.437208,0.000000
441.000000,0.002000,-0.079382,-0.685063,-0.057220,1.819975,1.059189,1.807282,0.344211,14.687284,0.431459,0.002000,-0.475596,0.000000
442.000000,0.002000,-0.156096,0.210966,0.264589,-2.691214,-1.568248,-0.625640,8.984766,-6.341405,-15.283813,0.002000,1.766038,0.000000
443.000000,0.002000,0.317434,0.929886,-0.609265,-0.119397,1.097669,-1.658824,-3.034255,-7.829704,5.154644,0.002000,-0.228624,0.000000
444.000000,0.002000,0.705536,-0.254259,-0.417503,0.056249,0.213974,-0.781541,-10.944622,4.598470,6.573171,0.002000,0.184888,0.000000
445.000000,0.002000,-0.103785,0.002952,-0.100265,-2.361811,1.316923,-1.831494,8.261627,7.960040,7.456409,0.002000,-1.778198,0.000000
446.000000,0.002000,-0.049508,-0.035541,-0.044115,-1.900013,0.200057,5.246685,3.506258,7.669570,3.790571,0.002000,-0.975568,0.000000
447.000000,0.002000,0.051781,0.093285,0.284746,1.250535,-0.948210,3.798318,-2.596094,-1.417082,-18.406960,0.002000,0.619581,0.000000
448.000000,0.002000,-0.306117,0.345977,-0.274801,-2.925501,1.737670,3.576948,12.278748,-8.899886,10.976890,0.002000,0.440438,0.000000
449.000000,0.002000,0.154127,0.530353,0.324413,1.537949,-1.675890,-0.435396,-5.065389,-14.060968,-9.765761,0.002000,0.785369,0.000000
450.000000,0.002000,-0.728923,0.973202,0.416756,0.144608,-0.819151,0.951185,4.852722,-6.393776,-2.597441,0.002000,-0.046516,0.000000
451.000000,0.002000,-2.591902,-2.369013,4.265338,-0.292391,1.603504,-0.037197,0.295646,0.278284,-0.493604,0.002000,0.244636,0.000000
452.000000,0.002000,-2.426379,-2.391517,0.196342,-2.099357,-0.586772,0.547212,1.097768,1.096227,-0.093118,0.002000,0.054915,0.000000
453.000000,0.002000,-1.336311,0.027150,-1.955246,0.338504,0.454747,1.928711,1.660985,0.084892,2.407682,0.002000,0.426350,0.000000
454.000000,0.002000,-0.004542,0.427108,0.096341,1.729264,3.488108,-2.907327,-0.454964,-16.973742,-5.930782,0.002000,-0.027144,0.000000
455.000000,0.002000,0.098209,-0.459469,0.130865,-1.491998,-4.952898,-0.609847,-2.652351,18.292235,-4.350951,0.002000,-0.325440,0.000000
456.000000,0.002000,0.038747,0.031779,-0.463693,-0.587889,0.984113,-1.232607,1.343229,-4.331282,14.270303,0.002000,0.446474,0.000000
457.000000,0.002000,-0.635849,-0.381374,-1.391258,-0.132432,-0.368419,0.204032,2.427347,1.826375,4.938273,0.002000,0.132307,0.000000
458.000000,0.002000,-0.236740,0.156404,-0.428672,0.224590,-3.144016,-1.299350,12.214898,-4.857216,14.712851,0.002000,-0.455210,0.000000
459.000000,0.002000,0.101454,0.300169,-1.084333,2.612995,-1.823938,0.014643,-1.064254,-2.151535,9.364771,0.002000,0.095681,0.000000
460.000000,0.002000,-0.234981,-0.242135,-0.144528,0.334542,-0.128350,0.892842,9.839987,15.728473,6.608233,0.002000,-0.240414,0.000000
461.000000,0.002000,-0.753054,0.109258,-0.645957,-0.818750,0.949552,2.928722,8.857694,-0.844298,7.069439,0.002000,-0.081914,0.000000
462.000000,0.002000,-1.014380,0.335318,0.260975,-0.374259,1.117227,1.530806,9.377865,-2.871161,-3.076542,0.002000,-0.093328,0.000000
463.000000,0.002000,-0.085509,0.242920,0.347989,2.355314,-0.854284,3.258819,2.290789,-8.981497,-17.335866,0.002000,-0.079382,0.000000
464.000000,0.002000,0.915357,0.434594,-0.157724,1.367744,-0.973230,1.826539,-9.814364,-2.758851,1.597944,0.002000,-0.156096,0.000000
465.000000,0.002000,-0.125075,-1.332961,0.275551,0.160851,1.362024,-2.462106,0.561897,6.234771,-1.338550,0.002000,0.317434,0.000000
466.000000,0.002000,0.833756,0.064408,2.044699,0.773322,-1.148789,-1.633758,-1.264509,0.055028,-3.002555,0.002000,0.705536,0.000000
467.000000,0.002000,0.240719,0.078161,0.124893,0.674582,3.072741,2.411410,-15.984121,-0.555933,-6.618849,0.002000,-0.103785,0.000000
468.000000,0.002000,0.198574,-0.360383,0.606489,4.472030,-1.802916,1.764496,-2.864428,6.583432,-10.785716,0.002000,-0.049508,0.000000
469.000000,0.002000,0.282962,0.150621,-0.318886,-1.108378,-0.129131,-1.246895,-14.350183,-0.956446,12.745732,0.002000,0.051781,0.000000
470.000000,0.002000,-2.065971,-2.021467,0.461308,0.315186,1.938475,-0.273865,1.443407,1.455354,-0.323697,0.002000,-0.306117,0.000000
471.000000,0.002000,-0.282350,1.025539,0.350943,0.223650,2.299766,-0.495983,2.442104,-9.745020,-4.384907,0.002000,0.154127,0.000000
472.000000,0.002000,-0.054377,-0.546940,-0.789451,2.988304,-2.532099,2.523003,0.827349,7.204314,8.930707,0.002000,-0.728923,0.000000
473.000000,0.002000,-14.345886,0.810973,10.320186,-1.374518,-0.305252,0.544865,0.051789,-0.002747,-0.037348,0.002000,-2.591902,0.000000
474.000000,0.002000,-0.043693,-0.347535,0.609918,-2.901868,-1.180763,-1.309804,0.693086,8.840185,-14.388343,0.002000,-2.426379,0.000000
475.000000,0.002000,-0.736512,-0.418833,-0.240877,-3.041599,0.367144,0.808530,9.766263,7.427359,3.449184,0.002000,-1.336311,0.000000
476.000000,0.002000,0.604843,0.712398,1.010994,-1.779314,0.702952,-2.669202,-3.239456,-3.404808,-5.302383,0.002000,-0.004542,0.000000
477.000000,0.002000,-0.522191,-0.297528,-0.348667,0.823968,0.520443,-2.884033,10.419677,10.409915,6.281900,0.002000,0.098209,0.000000
478.000000,0.002000,0.062878,5.033749,-2.148448,-0.370067,-1.293624,0.575156,-0.011798,-0.619439,0.264520,0.002000,0.038747,0.000000
479.000000,0.002000,-0.604106,0.316373,-0.179400,-1.249528,-0.915475,-3.095891,14.603714,-7.190100,4.197962,0.002000,-0.635849,0.000000
480.000000,0.002000,-0.381401,-1.458457,-0.603893,-1.671201,-2.576178,-0.262916,1.133271,4.681399,1.840865,0.002000,-0.236740,0.000000
481.000000,0.002000,-1.584624,-0.386119,-0.191100,0.812340,-0.854652,1.331298,4.998571,1.514130,0.530784,0.002000,0.101454,0.000000
482.000000,0.002000,-0.822882,-0.481959,-1.467277,0.202260,1.100566,-0.764874,2.225493,1.474020,4.098716,0.002000,-0.234981,0.000000
483.000000,0.002000,9.950699,-3.790020,-1.609403,0.018890,-0.023974,0.090327,-0.157506,0.060898,0.025354,0.002000,-0.753054,0.000000
484.000000,0.002000,0.137325,0.262635,0.453185,-0.474999,0.654624,-0.239040,-4.451682,-6.688210,-15.928726,0.002000,-1.014380,0.000000
485.000000,0.002000,0.079604,0.107295,0.024030,2.582656,-0.029839,0.329509,-9.513509,-4.341387,-0.996720,0.002000,-0.085509,0.000000
486.000000,0.002000,-0.464311,-0.784228,-1.142112,1.448421,0.865436,-2.048967,1.938545,3.667199,4.675616,0.002000,0.915357,0.000000
487.000000,0.002000,-0.337619,0.396629,0.782900,-1.249174,-4.516018,-1.264071,4.293322,-4.720902,-9.648047,0.002000,-0.125075,0.000000
488.000000,0.002000,0.277428,-0.122027,0.603704,3.769201,-3.335797,0.700329,-8.503436,5.173284,-14.924735,0.002000,0.833756,0.000000
489.000000,0.002000,-0.255738,0.229183,-0.970214,0.458268,-1.989295,-0.562964,1.844916,-2.090095,10.890749,0.002000,0.240719,0.000000
490.000000,0.002000,-0.302005,-0.065960,0.069664,1.824769,-2.609433,4.397174,13.660998,7.249611,-6.069972,0.002000,0.198574,0.000000
491.000000,0.002000,0.298070,0.240812,-0.004834,0.167299,0.439129,0.437414,-17.123921,-7.500336,-0.912416,0.002000,0.282962,0.000000
492.000000,0.002000,-0.021228,0.212144,0.376090,-0.997440,-1.940982,1.959595,-0.222200,-8.042193,-20.015132,0.002000,-2.065971,0.000000
493.000000,0.002000,0.035200,0.398873,0.826918,1.881278,-0.514006,-0.246903,-0.169087,-4.253572,-11.494958,0.002000,-0.282350,0.000000
494.000000,0.002000,-0.052305,-0.154517,-0.199392,-0.809275,-2.758278,-0.778543,2.851442,16.007604,10.431138,0.002000,-0.054377,0.000000
495.000000,0.002000,0.146983,-0.093992,-0.189450,2.723482,-0.253138,-1.597019,-9.187577,10.357108,10.033988,0.002000,-14.345886,0.000000
496.000000,0.002000,1.789593,0.660870,0.129372,-1.979595,0.100384,0.658840,-3.977393,-1.197906,-0.286596,0.002000,-0.043693,0.000000
497.000000,0.002000,-2.633487,-15.645821,-5.719832,-0.654488,-0.885756,-0.153607,0.010791,0.064779,0.023490,0.002000,-0.736512,0.000000
498.000000,0.002000,-0.282891,0.480164,-0.161320,-3.310059,0.186847,-0.123740,12.609415,-13.291426,9.505018,0.002000,0.604843,0.000000
499.000000,0.002000,-2.557380,-0.240476,0.855440,-1.158208,0.888307,-0.378609,2.110228,0.255365,-1.127185,0.002000,-0.522191,0.000000
500.000000,0.002000,0.503995,-0.056010,0.832582,-0.277715,-1.403776,0.255395,-5.632456,1.556625,-9.177611,0.002000,0.062878,0.000000
501.000000,0.002000,0.047999,0.151367,-0.213032,-0.331088,2.482665,-0.577478,-3.255562,-7.963294,11.537199,0.002000,-0.604106,0.000000
502.000000,0.002000,0.717238,-0.161310,0.337756,-0.183554,2.167591,-2.011266,-10.902839,4.266197,-5.115134,0.002000,-0.381401,0.000000
503.000000,0.002000,-0.119728,0.056451,0.389516,-0.354594,-3.433422,-0.438791,6.121911,-0.787266,-20.423358,0.002000,-1.584624,0.000000
504.000000,0.002000,-0.938099,-0.270896,0.574832,2.432327,-0.733466,0.657536,7.315694,3.062979,-4.655366,0.002000,-0.822882,0.000000
505.000000,0.002000,0.241617,-0.205283,-1.232195,0.276556,0.382756,0.132554,-1.512018,1.800554,7.697391,0.002000,9.950699,0.000000
506.000000,0.002000,-0.545845,-0.464004,-0.476241,-0.968943,-0.908671,-0.093407,7.724629,7.651238,8.357913,0.002000,0.137325,0.000000
507.000000,0.002000,0.073265,-0.195168,-1.011081,2.234524,-0.941522,-1.238673,-1.129369,2.970719,10.350707,0.002000,0.079604,0.000000
508.000000,0.002000,-0.750210,0.875721,-1.543399,1.161123,-1.046366,-0.067777,1.706692,-1.994265,3.855786,0.002000,-0.464311,0.000000
509.000000,0.002000,0.000665,-0.133198,0.049031,-2.129127,-0.333989,-5.370642,-2.048202,16.822557,-3.122830,0.002000,-0.337619,0.000000
510.000000,0.002000,-0.878600,2.983330,-2.300145,-0.208481,-0.610146,1.032132,0.295984,-0.995978,0.777021,0.002000,0.277428,0.000000
511.000000,0.002000,4.287745,-1.105208,5.760968,-0.809649,0.845352,0.228188,-0.220265,0.060211,-0.295193,0.002000,-0.255738,0.000000
512.000000,0.002000,0.418929,-0.235255,-0.468349,-1.467482,-0.590260,-1.993023,-10.117085,6.519019,10.414857,0.002000,-0.302005,0.000000
513.000000,0.002000,-0.722386,-0.166341,-0.708204,-0.159222,-0.175395,4.560867,7.451030,2.450783,7.506978,0.002000,0.298070,0.000000
514.000000,0.002000,-0.435624,0.342605,0.081201,1.747611,3.941367,-1.492560,15.092772,-9.768870,-5.869274,0.002000,-0.021228,0.000000
515.000000,0.002000,0.052314,-0.120183,0.260450,-0.620447,1.055703,-6.064993,-1.640204,11.586323,-14.910141,0.002000,0.035200,0.000000
516.000000,0.002000,-0.012216,-0.040380,-0.025385,-2.919603,-0.198749,1.872457,0.947465,8.969651,1.128391,0.002000,-0.052305,0.000000
517.000000,0.002000,-0.099233,0.668881,0.630048,-0.723558,0.983706,-1.931992,1.339568,-8.671968,-9.450966,0.002000,0.146983,0.000000
518.000000,0.002000,0.331221,0.377053,-0.143000,0.450570,1.420791,1.424114,-12.744988,-12.423241,4.401326,0.002000,1.789593,0.000000
519.000000,0.002000,-0.422210,-0.222949,-0.085440,0.244384,1.036995,-0.484217,15.815187,12.580456,2.405943,0.002000,-2.633487,0.000000
520.000000,0.002000,0.679430,-0.121568,0.435547,0.427825,1.207994,-1.182004,-10.313852,3.338957,-7.203566,0.002000,-0.282891,0.000000
521.000000,0.002000,0.589399,0.489457,-0.267175,-0.155956,3.495938,1.448691,-11.404770,-8.328569,5.805500,0.002000,-2.557380,0.000000
522.000000,0.002000,0.247425,0.033428,0.035280,1.144097,1.640929,-0.716897,-16.014694,5.755590,-3.045171,0.002000,0.503995,0.000000
523.000000,0.002000,0.359938,-0.006261,0.551225,-0.427467,1.647167,3.441052,-9.658670,2.896045,-13.302397,0.002000,0.047999,0.000000
524.000000,0.002000,-1.639305,-1.415923,-0.518274,-0.857058,-0.774423,-0.318918,2.290075,2.090823,0.739514,0.002000,0.717238,0.000000
525.000000,0.002000,0.549161,0.544947,-1.531277,-0.209740,-0.323361,2.435596,-1.702438,-1.523900,4.726420,0.002000,-0.119728,0.000000
526.000000,0.002000,0.317553,0.458520,0.167747,1.282033,3.740987,-2.072384,-10.509946,-11.266378,-7.607059,0.002000,-0.938099,0.000000
527.000000,0.002000,0.397016,0.071203,0.402433,3.451207,-0.723332,-0.353150,-13.821247,1.043150,-10.456079,0.002000,0.241617,0.000000
528.000000,0.002000,-2.985139,0.688663,0.654415,-0.138630,-0.414917,1.531539,1.805089,-0.465803,-0.435081,0.002000,-0.545845,0.000000
529.000000,0.002000,0.191691,0.178817,-0.364986,-2.613123,3.012756,-0.729487,-9.604854,-1.139541,16.133159,0.002000,0.073265,0.000000
530.000000,0.002000,-3.846437,-2.532258,-1.045560,-0.176987,-1.172002,-0.435870,0.710794,0.476711,0.197220,0.002000,-0.750210,0.000000
531.000000,0.002000,-1.271524,-0.166853,0.648134,0.804081,0.515180,-1.777854,5.596132,1.187857,-2.937760,0.002000,0.000665,0.000000
532.000000,0.002000,0.194377,-0.955056,-1.350184,-2.350732,-0.744211,-0.791856,-0.626389,3.018236,3.974481,0.002000,-0.878600,0.000000
533.000000,0.002000,-0.386190,-0.646534,1.027510,2.971822,-0.296527,-1.348749,1.972733,3.921573,-6.051280,0.002000,4.287745,0.000000
534.000000,0.002000,-0.330690,0.071821,-0.178311,-1.221160,0.480130,1.238541,17.652312,-2.806056,9.767138,0.002000,0.418929,0.000000
535.000000,0.002000,-0.010429,0.245216,-0.085302,-2.319850,-6.186313,0.084276,-0.286281,-15.571427,2.136672,0.002000,-0.722386,0.000000
536.000000,0.002000,0.854949,-0.262418,0.338567,-3.632191,0.580122,-1.746859,-8.694526,2.666584,-5.023788,0.002000,-0.435624,0.000000
537.000000,0.002000,0.253316,-0.115107,0.591137,-1.534030,-3.941116,1.445743,-4.774940,4.716525,-13.687763,0.002000,0.052314,0.000000
538.000000,0.002000,0.210544,0.719003,-0.255355,3.427241,3.485304,-2.552743,-4.836416,-13.733180,4.912265,0.002000,-0.012216,0.000000
539.000000,0.002000,-1.264922,-1.258565,-0.447406,-0.106564,-0.829367,-1.832948,2.880657,3.083958,1.070545,0.002000,-0.099233,0.000000
540.000000,0.002000,0.278791,0.394870,0.075312,-0.225928,3.077133,-0.884188,-10.882617,-14.235129,-6.130884,0.002000,0.331221,0.000000
541.000000,0.002000,-1.642386,0.014576,0.841098,-0.995247,-0.411346,-0.038341,4.001802,0.176753,-2.051097,0.002000,-0.422210,0.000000
542.000000,0.002000,0.343427,0.164303,0.839738,-3.243948,0.310853,0.460814,-4.660084,-1.061940,-10.744698,0.002000,0.679430,0.000000
543.000000,0.002000,-0.159766,-0.154694,-0.166784,-1.564617,-1.327105,3.175387,8.067864,16.680854,7.035878,0.002000,0.589399,0.000000
544.000000,0.002000,-0.102197,0.289171,-0.193052,-3.716983,-0.278554,1.435529,4.015278,-13.286012,14.987853,0.002000,0.247425,0.000000
545.000000,0.002000,0.219436,-1.225095,-0.187926,0.420494,3.061841,-0.459635,-1.130302,7.077400,0.956294,0.002000,0.359938,0.000000
546.000000,0.002000,-0.237697,-0.003295,0.345294,-1.797948,1.040924,-1.177897,10.052176,0.644292,-16.241802,0.002000,-1.639305,0.000000
547.000000,0.002000,-0.103673,0.455547,-0.640026,-0.987396,0.649085,-0.349830,2.125411,-8.139397,13.463231,0.002000,0.549161,0.000000
548.000000,0.002000,-2.420535,0.045268,1.247079,-0.557975,0.478330,0.606425,2.081749,0.026167,-1.059470,0.002000,0.317553,0.000000
549.000000,0.002000,-0.199053,-2.123995,1.501654,-1.734886,0.137061,0.135687,0.120219,1.994161,-1.412778,0.002000,0.397016,0.000000
550.000000,0.002000,-0.304842,0.182238,-0.750430,0.560651,2.195602,1.356569,4.919889,-1.231277,12.535043,0.002000,-2.985139,0.000000
551.000000,0.002000,1.393783,1.777232,2.618158,0.384912,-0.364706,-1.574710,-0.653560,-0.772598,-1.175540,0.002000,0.191691,0.000000
552.000000,0.002000,0.506281,-0.314046,0.191281,-1.830426,1.291578,1.676197,-12.453483,7.128543,-4.507764,0.002000,-3.846437,0.000000
553.000000,0.002000,-1.512305,1.143509,-0.315370,1.683873,-1.111313,-1.467104,3.766450,-2.591522,0.594577,0.002000,-1.271524,0.000000
554.000000,0.002000,0.024180,0.265133,0.049127,0.572777,-0.958313,2.837302,-2.246633,-13.862236,-6.037723,0.002000,0.194377,0.000000
555.000000,0.002000,-0.985270,-0.267314,0.105317,-0.650171,-1.212994,-0.312543,10.620163,3.379862,-1.927197,0.002000,-0.386190,0.000000
556.000000,0.002000,0.636727,0.684030,-0.890061,-0.778252,0.125615,1.360309,-4.195466,-3.920615,5.570236,0.002000,-0.330690,0.000000
557.000000,0.002000,-0.344492,0.045996,-0.065001,1.241060,-0.413688,-4.765202,14.990136,2.033220,4.283526,0.002000,-0.010429,0.000000
558.000000,0.002000,-1.611142,1.878245,-1.678860,0.478557,0.829886,1.011128,1.098434,-1.282233,1.139393,0.002000,0.854949,0.000000
559.000000,0.002000,0.784225,0.078245,0.859866,-1.651740,-2.602139,1.852637,-5.998794,0.242309,-6.531613,0.002000,0.253316,0.000000
560.000000,0.002000,-0.141317,-2.016789,0.601575,-0.188667,-1.736426,-1.856653,0.118419,3.206938,-0.896482,0.002000,0.210544,0.000000
561.000000,0.002000,0.505673,0.760667,-0.005170,-0.611726,0.149039,0.784224,-8.154901,-10.707973,-0.030034,0.002000,-1.264922,0.000000
562.000000,0.002000,-1.020776,2.978932,0.064098,1.811203,0.567907,-0.012253,0.574650,-1.770468,0.017606,0.002000,0.278791,0.000000
563.000000,0.002000,1.409642,-1.244982,1.251122,-0.580083,0.281587,0.938982,-1.834877,1.690694,-1.643488,0.002000,-1.642386,0.000000
564.000000,0.002000,-1.733048,-0.445758,1.078790,-1.463967,1.141759,-0.530051,2.897626,0.938146,-1.875638,0.002000,0.343427,0.000000
565.000000,0.002000,-0.887346,0.944616,0.575201,3.740120,-0.611021,-0.654614,4.491033,-4.454234,-3.045890,0.002000,-0.159766,0.000000
566.000000,0.002000,-1.345082,1.060960,-0.066750,0.527130,0.241016,-0.905824,4.103431,-3.193310,0.024965,0.002000,-0.102197,0.000000
567.000000,0.002000,0.394604,0.756406,-1.965538,-1.065176,-0.710123,1.817569,-0.688535,-1.182073,3.341181,0.002000,0.219436,0.000000
568.000000,0.002000,-0.362890,0.010974,-0.455705,-0.939102,0.352583,-1.897443,10.914598,1.872929,15.419107,0.002000,-0.237697,0.000000
569.000000,0.002000,-0.515648,1.472994,-0.528467,-0.222428,0.086283,2.167830,1.774189,-5.168421,1.750493,0.002000,-0.103673,0.000000
570.000000,0.002000,-1.490997,-0.895907,-0.343332,2.873790,0.601104,1.581255,3.670965,2.317961,0.974903,0.002000,-2.420535,0.000000
571.000000,0.002000,0.078036,0.673593,0.255947,-1.341684,-0.561148,3.091451,-0.746424,-14.309968,-6.919966,0.002000,-0.199053,0.000000
572.000000,0.002000,0.580646,-1.553307,-1.465590,-0.928324,-0.793672,-1.042058,-0.856412,2.319447,2.017190,0.002000,-0.304842,0.000000
573.000000,0.002000,0.104519,-0.179410,-0.039456,-0.133267,2.782764,-0.358613,-3.635069,15.328047,1.990174,0.002000,1.393783,0.000000
574.000000,0.002000,-0.686452,0.050209,-0.298173,-1.363516,2.374622,3.789458,14.337749,0.583704,7.441742,0.002000,0.506281,0.000000
575.000000,0.002000,1.951329,-2.310974,-1.194860,-0.626972,-0.267817,0.164360,-0.988329,1.191152,0.591897,0.002000,-1.512305,0.000000
576.000000,0.002000,-0.456729,-0.130089,-0.326642,1.594663,2.803741,-0.520572,14.258200,6.469138,9.603324,0.002000,0.024180,0.000000
577.000000,0.002000,-0.563745,0.074341,-0.227328,0.050199,-1.694496,-3.224524,16.113347,-0.998954,9.806946,0.002000,-0.985270,0.000000
578.000000,0.002000,-0.050441,-0.138358,-0.905346,-2.639528,-4.228689,-0.626556,0.937386,2.499324,11.924244,0.002000,0.636727,0.000000
579.000000,0.002000,-0.229635,-1.911858,1.782659,-0.016689,0.383084,0.857340,0.130600,1.747825,-1.690584,0.002000,-0.344492,0.000000
580.000000,0.002000,-0.543096,-0.014138,-1.021471,-0.531064,-1.334769,-2.601180,4.324848,1.204310,7.937120,0.002000,-1.611142,0.000000
581.000000,0.002000,0.934878,0.201891,-0.677915,1.009490,-1.945098,0.211225,-7.311550,-0.805658,4.769203,0.002000,0.784225,0.000000
582.000000,0.002000,-2.821802,1.380248,-1.510390,-0.938947,0.135835,-0.951620,1.278015,-0.604186,0.743457,0.002000,-0.141317,0.000000
583.000000,0.002000,-2.354154,-2.327173,1.390336,-0.160103,0.651255,2.246032,0.916002,0.941080,-0.569747,0.002000,0.505673,0.000000
584.000000,0.002000,0.090556,-0.149645,0.295882,2.680115,-2.585779,-1.651312,-2.667747,14.611157,-10.601388,0.002000,-1.020776,0.000000
585.000000,0.002000,0.980792,-1.155244,0.587208,0.335710,1.945090,-1.609167,-2.954477,3.599022,-1.845306,0.002000,1.409642,0.000000
586.000000,0.002000,-0.178801,0.152378,0.135690,-1.509383,1.622086,0.698771,8.234262,-3.396597,-10.260329,0.002000,-1.733048,0.000000
587.000000,0.002000,1.304402,1.610382,-0.969636,0.160120,-1.235355,0.869756,-1.847001,-2.169861,1.379984,0.002000,-0.887346,0.000000
588.000000,0.002000,-0.234334,-0.233130,-0.783176,1.024333,-0.600190,2.486044,3.458078,5.144923,12.535180,0.002000,-1.345082,0.000000
589.000000,0.002000,-0.580959,-0.233054,-1.309028,0.507196,-1.647784,-0.075082,2.671707,1.553642,5.796911,0.002000,0.394604,0.000000
590.000000,0.002000,-0.595928,0.144758,-1.007199,2.384274,2.279576,2.138273,4.830112,-0.451553,7.786405,0.002000,-0.362890,0.000000
591.000000,0.002000,0.095841,0.067376,-0.527609,-0.559163,-0.886096,1.663378,-4.809015,1.266523,18.024480,0.002000,-0.515648,0.000000
592.000000,0.002000,0.330771,0.159288,-0.119840,1.916995,-0.048539,-2.117169,-19.623978,-5.684559,4.122379,0.002000,-1.490997,0.000000
593.000000,0.002000,1.072938,3.114768,-0.213060,0.080854,-0.959153,-0.157235,-0.570870,-1.618802,0.085719,0.002000,0.078036,0.000000
594.000000,0.002000,-0.281520,0.365176,-2.476365,-0.464549,-1.476060,0.693066,0.353085,-0.278442,2.613893,0.002000,0.580646,0.000000
595.000000,0.002000,0.311757,0.646779,0.134009,-1.772847,-0.601270,-0.324393,-6.705113,-12.527436,-3.235682,0.002000,0.104519,0.000000
596.000000,0.002000,0.090853,-2.877811,1.287924,0.576648,-0.443941,-0.113447,-0.048695,1.615151,-0.736189,0.002000,-0.686452,0.000000
597.000000,0.002000,1.222108,-0.008543,0.641293,-1.895947,2.473630,-0.591894,-6.002300,0.497432,-3.232646,0.002000,1.951329,0.000000
598.000000,0.002000,0.058607,0.185728,0.321613,-0.797031,4.282366,-0.456488,-6.179137,-8.892666,-16.348590,0.002000,-0.456729,0.000000
599.000000,0.002000,0.086033,-0.062475,-0.580674,-4.170460,-2.233096,1.328786,-2.258221,4.770012,17.478893,0.002000,-0.563745,0.000000
600.000000,0.002000,-0.096302,-1.005095,0.773756,0.638453,0.910802,0.458726,0.463671,5.926462,-4.149598,0.002000,-0.050441,0.000000
601.000000,0.002000,0.188405,-0.323324,-0.698205,2.302359,-2.327124,1.956382,-3.401105,7.146703,11.418105,0.002000,-0.229635,0.000000
602.000000,0.002000,-0.320483,0.245630,0.001337,-3.943860,2.220798,-1.718809,14.288754,-10.844173,-0.614545,0.002000,-0.543096,0.000000
603.000000,0.002000,2.401640,-0.500592,-0.159016,-1.117585,-0.993092,-1.046670,-2.629364,0.607724,0.117590,0.002000,0.934878,0.000000
604.000000,0.002000,-0.553558,-0.362205,-0.507577,-0.775915,1.417117,0.383577,7.527492,8.561877,7.473871,0.002000,-2.821802,0.000000
605.000000,0.002000,0.486667,-0.383994,-0.530564,-2.310138,-0.803045,-0.695161,-8.131429,7.847278,8.369845,0.002000,-2.354154,0.000000
606.000000,0.002000,3.540139,-2.537601,-0.641863,1.252336,0.227328,-0.701232,-0.791403,0.583090,0.143841,0.002000,0.090556,0.000000
607.000000,0.002000,0.589179,0.454719,0.289667,1.464954,-0.809732,3.202325,-10.563060,-6.690465,-5.828567,0.002000,0.980792,0.000000
608.000000,0.002000,-0.305363,0.341807,0.221734,-1.488766,-0.535723,2.506905,5.957881,-15.608343,-7.929187,0.002000,-0.178801,0.000000
609.000000,0.002000,1.202834,1.269847,0.448156,-0.476038,-1.771109,0.070387,-3.229731,-3.166161,-1.338271,0.002000,1.304402,0.000000
610.000000,0.002000,-0.022037,-0.416233,-0.441145,-1.880792,1.537682,-0.368506,-0.821064,13.831555,9.302103,0.002000,-0.234334,0.000000
611.000000,0.002000,-0.069293,-0.077485,0.621061,-0.994893,-2.789352,1.342601,1.319736,3.630286,-16.833766,0.002000,-0.580959,0.000000
612.000000,0.002000,-0.397232,-0.110371,0.239088,1.234301,-0.362564,1.821635,15.270725,7.255009,-10.670117,0.002000,-0.595928,0.000000
613.000000,0.002000,0.132032,0.231692,0.032802,2.878841,0.726968,-1.129432,-10.661988,-10.373007,-3.085278,0.002000,0.095841,0.000000
614.000000,0.002000,-0.470618,-0.103558,-0.248297,-2.860570,0.693000,2.644929,17.824764,5.128356,10.217505,0.002000,0.330771,0.000000
615.000000,0.002000,0.302218,-0.304311,0.207620,0.591865,-4.144021,-1.108703,-11.840246,9.899982,-7.055987,0.002000,1.072938,0.000000
616.000000,0.002000,-0.380539,0.004389,-0.387269,2.652921,0.144917,-2.699672,13.201990,3.689165,14.098042,0.002000,-0.281520,0.000000
617.000000,0.002000,0.257030,-0.536863,0.039553,-0.484738,-0.068593,-1.646915,-5.415233,16.978729,-2.191717,0.002000,0.311757,0.000000
618.000000,0.002000,0.039019,0.023775,-0.464069,1.320244,-0.816893,-0.160241,-0.085772,12.397170,13.515666,0.002000,0.090853,0.000000
619.000000,0.002000,2.092693,0.706348,-2.364635,-0.409969,-0.134584,0.722450,-1.151860,-0.323841,1.297222,0.002000,1.222108,0.000000
620.000000,0.002000,-0.331700,0.421096,-0.594615,-0.703345,1.256537,-2.980463,6.667322,-6.755593,11.818479,0.002000,0.058607,0.000000
621.000000,0.002000,-0.385625,-0.183702,-0.497503,0.976873,-1.753299,2.817777,9.067254,6.428586,12.821900,0.002000,0.086033,0.000000
622.000000,0.002000,0.195791,0.242765,-0.602964,3.559188,-1.510857,-1.123456,-5.758646,-4.307828,15.393165,0.002000,-0.096302,0.000000
623.000000,0.002000,-0.253279,0.099932,0.052827,-2.606869,0.824281,-0.097889,10.509805,-0.610179,-6.044730,0.002000,0.188405,0.000000
624.000000,0.002000,0.147993,0.442545,-0.207873,-1.878349,-0.637383,-0.622338,-7.050737,-15.093475,10.067947,0.002000,-0.320483,0.000000
625.000000,0.002000,-1.868898,-0.062292,2.829856,-0.510981,-0.374616,0.360476,0.880781,0.083632,-1.365942,0.002000,2.401640,0.000000
626.000000,0.002000,-0.757942,-0.172153,0.229392,-0.665100,-1.355976,1.941933,12.787944,4.651087,-4.471610,0.002000,-0.553558,0.000000
627.000000,0.002000,0.066937,0.390274,-0.459966,1.471015,-0.658230,1.898229,-1.847971,-10.253919,15.662518,0.002000,0.486667,0.000000
628.000000,0.002000,0.583047,-0.378655,-0.056339,0.661820,-0.012403,2.045317,-12.883059,8.538933,0.461792,0.002000,3.540139,0.000000
629.000000,0.002000,0.518368,-0.245657,-0.257385,-0.212405,-0.071879,-4.216508,-12.074505,7.928409,3.275756,0.002000,0.589179,0.000000
630.000000,0.002000,-0.475368,-0.055135,0.550578,-0.983368,-0.473902,1.962521,9.663972,2.094496,-11.453984,0.002000,-0.305363,0.000000
631.000000,0.002000,1.154055,-1.805092,-0.162282,1.442609,-1.034100,0.214039,-1.401838,2.563305,-0.213426,0.002000,1.202834,0.000000
632.000000,0.002000,-0.177091,0.023490,-0.022892,-1.772688,3.676294,-1.318862,8.560269,3.957654,-1.504866,0.002000,-0.022037,0.000000
633.000000,0.002000,-0.355000,2.035054,-1.605038,1.484577,-1.726266,0.601448,0.308472,-2.078811,1.632041,0.002000,-0.069293,0.000000
634.000000,0.002000,-0.039101,-0.338605,0.580628,2.467025,0.159024,-0.540416,-0.419846,7.835310,-12.011371,0.002000,-0.397232,0.000000
635.000000,0.002000,0.202864,-0.071507,0.184670,-1.002219,-4.462787,1.192000,-10.102860,8.331184,-12.020231,0.002000,0.132032,0.000000
636.000000,0.002000,0.238253,-0.202203,0.121353,1.366457,-1.419339,2.064435,-14.174244,13.345534,-5.778586,0.002000,-0.470618,0.000000
637.000000,0.002000,-0.911425,-0.973902,0.853963,-1.621188,-1.888469,0.438827,3.056277,3.606584,-2.957788,0.002000,0.302218,0.000000
638.000000,0.002000,0.282423,0.798761,0.209295,1.206527,4.465680,0.426787,-4.835535,-11.850135,-3.951520,0.002000,-0.380539,0.000000
639.000000,0.002000,-0.882973,-0.030630,-1.144172,0.396221,-0.342226,-1.309428,4.248451,0.550502,5.304014,0.002000,0.257030,0.000000
640.000000,0.002000,0.194866,0.486876,0.343364,0.264982,1.971285,1.142259,-9.548863,-11.098631,-9.483999,0.002000,0.039019,0.000000
641.000000,0.002000,0.228547,-0.307420,-0.356096,2.952976,-2.594263,1.391288,-5.940867,11.651423,8.549369,0.002000,2.092693,0.000000
642.000000,0.002000,0.119032,-0.035467,0.237739,-1.685353,0.990782,-2.024529,-13.165140,9.853722,-10.241072,0.002000,-0.331700,0.000000
643.000000,0.002000,0.862497,-2.324542,-1.358520,-1.509416,-0.310709,0.006310,-0.657198,1.745068,0.994769,0.002000,-0.385625,0.000000
644.000000,0.002000,0.683668,-0.636434,-0.671242,0.158407,2.059412,-0.303345,-5.198891,5.365199,4.531542,0.002000,0.195791,0.000000
645.000000,0.002000,-0.079533,0.347898,-0.002058,1.045463,-0.772312,-1.413242,-2.297423,-19.938241,-1.975966,0.002000,-0.253279,0.000000
646.000000,0.002000,1.113000,0.928688,1.160086,-1.199285,-1.258278,-1.876053,-2.656250,-2.090077,-2.848472,0.002000,0.147993,0.000000
647.000000,0.002000,0.229127,-0.362224,-1.756837,1.027250,-1.116694,0.076245,-0.592657,1.149984,4.375383,0.002000,-1.868898,0.000000
648.000000,0.002000,0.445778,-0.489945,0.049217,-0.918051,-3.782646,0.856282,-10.648044,11.953172,-0.140236,0.002000,-0.757942,0.000000
649.000000,0.002000,-0.098895,0.282820,-0.110684,0.150727,-1.951419,1.799405,4.356838,-9.320548,3.961149,0.002000,0.066937,0.000000
650.000000,0.002000,-2.517530,-2.293367,0.882970,0.968033,-1.094967,-0.462263,1.035988,0.976846,-0.374987,0.002000,0.583047,0.000000
651.000000,0.002000,-0.359267,1.217238,2.822141,-0.922529,-0.293070,-1.654991,0.212431,-0.722531,-1.816468,0.002000,0.518368,0.000000
652.000000,0.002000,-0.360278,-0.218229,0.002143,0.656744,-2.558735,-3.039726,14.187803,15.001645,-0.337117,0.002000,-0.475368,0.000000
653.000000,0.002000,1.508214,-2.218756,1.409001,0.420863,-0.671713,-0.411043,-0.890029,1.373686,-0.865143,0.002000,1.154055,0.000000
654.000000,0.002000,1.304952,-0.754183,0.145398,0.261488,-0.817160,-1.411018,-4.828615,3.172373,-0.579738,0.002000,-0.177091,0.000000
655.000000,0.002000,1.284499,-0.398217,0.337892,-0.454000,3.159415,1.028906,-6.282949,1.888510,-1.112990,0.002000,-0.355000,0.000000
656.000000,0.002000,-1.066402,0.129896,-0.683392,2.599258,-0.067817,0.564138,6.715570,-0.207966,4.274075,0.002000,-0.039101,0.000000
657.000000,0.002000,0.137350,0.160824,-0.311940,1.653585,-0.871068,2.697792,-8.585864,-4.411382,15.131269,0.002000,0.202864,0.000000
658.000000,0.002000,0.409239,0.577950,-0.545281,-0.603123,-0.631738,1.142849,-7.004024,-7.441422,8.578551,0.002000,0.238253,0.000000
659.000000,0.002000,-1.157670,-1.334755,-1.258118,0.051302,0.446650,1.396034,1.774708,2.204461,1.845037,0.002000,-0.911425,0.000000
660.000000,0.002000,-0.085820,-0.104114,-0.352882,-2.038522,-1.403596,2.637035,4.732194,7.417952,15.440297,0.002000,0.282423,0.000000
661.000000,0.002000,0.171913,0.485228,0.350728,3.931719,0.800840,1.403419,-4.325975,-11.267147,-11.546943,0.002000,-0.882973,0.000000
662.000000,0.002000,-0.359376,-0.474793,-1.194730,1.932066,-1.129426,-2.235324,2.230799,3.617968,6.312655,0.002000,0.194866,0.000000
663.000000,0.002000,-0.323864,0.028423,-0.115044,-2.688498,-0.270678,5.183348,17.652766,1.596746,6.179755,0.002000,0.228547,0.000000
664.000000,0.002000,0.328841,0.588367,-0.241395,-1.748274,-0.939991,1.103506,-8.602817,-12.730113,4.665949,0.002000,0.119032,0.000000
665.000000,0.002000,0.505538,-0.106830,-0.124265,1.278381,-2.781038,-1.909174,-15.848798,5.608000,3.650017,0.002000,0.862497,0.000000
666.000000,0.002000,-0.357196,0.709765,0.720039,0.230395,-0.295960,-1.037363,3.103778,-6.344345,-7.468016,0.002000,0.683668,0.000000
667.000000,0.002000,0.208913,0.908796,-0.183510,0.676431,-0.165315,1.518191,-3.123475,-11.879310,2.127900,0.002000,-0.079533,0.000000
668.000000,0.002000,-0.472562,-0.261041,-0.703906,-0.886422,-1.797438,-2.851935,6.448178,5.033573,9.958303,0.002000,1.113000,0.000000
669.000000,0.002000,0.369946,1.012232,0.922249,1.917758,-0.210805,0.144409,-1.837022,-4.670876,-4.776480,0.002000,0.229127,0.000000
670.000000,0.002000,-0.211040,0.015358,-0.031332,-1.204080,2.720778,0.917461,12.093353,3.113358,0.980124,0.002000,0.445778,0.000000
671.000000,0.002000,-0.451295,0.220297,-0.667231,1.483192,-2.593773,2.618705,7.629423,-2.881486,11.134461,0.002000,-0.098895,0.000000
672.000000,0.002000,-0.009390,-0.320988,0.263742,-0.139803,1.721361,0.749021,0.331095,15.887596,-9.432243,0.002000,-2.517530,0.000000
673.000000,0.002000,0.000326,1.545182,-3.119084,1.401013,-1.524059,-1.396137,0.079537,-0.663164,1.304584,0.002000,-0.359267,0.000000
674.000000,0.002000,-0.294233,-1.700149,-0.833056,-0.980030,-1.057795,-1.911565,0.440088,3.554992,1.648417,0.002000,-0.360278,0.000000
675.000000,0.002000,1.402839,-0.079505,0.928256,1.343076,1.695159,0.410967,-4.114938,0.575315,-2.950652,0.002000,1.508214,0.000000
676.000000,0.002000,-0.216615,-0.080792,-0.207114,0.313872,0.324885,-3.576637,11.333771,11.210373,9.395049,0.002000,1.304952,0.000000
677.000000,0.002000,0.325823,0.232410,-0.294775,1.540093,-0.209552,1.271573,-16.246047,-8.601935,9.651688,0.002000,1.284499,0.000000
678.000000,0.002000,0.025228,0.169505,0.229290,-1.809443,1.485360,0.547054,-1.765200,-7.661775,-13.654481,0.002000,-1.066402,0.000000
679.000000,0.002000,-0.767061,-0.581124,-0.082185,-3.716567,-1.890157,0.917023,7.996157,7.316362,0.031745,0.002000,0.137350,0.000000
680.000000,0.002000,2.152567,1.012295,1.943221,1.022061,0.902906,0.319915,-1.359569,-0.585600,-1.201431,0.002000,0.409239,0.000000
681.000000,0.002000,0.013423,-0.912412,0.836837,-0.724266,-0.995471,0.536912,-0.276622,5.635571,-5.031538,0.002000,-1.157670,0.000000
682.000000,0.002000,0.172545,0.302566,-0.037817,1.566648,-1.375595,-1.001504,-10.704609,-14.242307,3.149914,0.002000,-0.085820,0.000000
683.000000,0.002000,-2.946642,-0.137749,0.543413,-1.234527,-0.000415,-0.065685,1.986446,0.167510,-0.349501,0.002000,0.171913,0.000000
684.000000,0.002000,1.661314,-0.562730,0.132215,-0.121976,0.229132,-0.342143,-5.485082,0.801365,-0.627756,0.002000,-0.359376,0.000000
685.000000,0.002000,-0.397395,0.654568,0.166946,-3.214334,-1.434999,-1.331698,10.474216,-10.699054,-2.393089,0.002000,-0.323864,0.000000
686.000000,0.002000,0.135440,0.312157,-0.488493,0.710301,1.912145,1.929246,-5.159128,-7.877801,16.474152,0.002000,0.328841,0.000000
687.000000,0.002000,-0.224488,-0.609285,-4.172079,-0.004792,-0.628765,1.064111,0.042069,0.158133,1.053240,0.002000,0.505538,0.000000
688.000000,0.002000,-0.212632,0.653234,-0.910902,1.369621,0.867332,2.683544,1.960957,-5.295663,8.341255,0.002000,-0.357196,0.000000
689.000000,0.002000,-2.678932,-0.487887,-2.048887,-0.452655,-0.621770,-0.574812,1.237563,0.261782,0.950448,0.002000,0.208913,0.000000
690.000000,0.002000,-0.521105,0.088232,-0.667714,-0.946105,-1.254520,-4.419384,8.305701,-0.009572,10.447026,0.002000,-0.472562,0.000000
691.000000,0.002000,1.882566,-2.045385,1.673420,-0.078683,0.742348,-0.353595,-0.955337,1.067361,-0.873343,0.002000,0.369946,0.000000
692.000000,0.002000,-0.024155,-0.145790,0.093543,2.697229,-0.791081,0.538536,0.437389,15.887187,-8.843555,0.002000,-0.211040,0.000000
693.000000,0.002000,0.443536,0.423480,0.070887,1.772170,0.997518,-1.490601,-14.195668,-10.364522,-3.904527,0.002000,-0.451295,0.000000
694.000000,0.002000,0.103624,-1.101861,0.077263,-1.638661,1.191829,-0.620834,-0.781932,8.530606,-0.798023,0.002000,-0.009390,0.000000
695.000000,0.002000,0.671215,-0.602766,-0.172741,0.404302,4.253082,-0.230600,-8.385541,8.126632,1.962460,0.002000,0.000326,0.000000
696.000000,0.002000,-0.292027,1.622561,-1.700567,0.401343,0.464271,-0.693027,0.375168,-2.037439,2.257940,0.002000,-0.294233,0.000000
697.000000,0.002000,-0.322881,3.095056,-1.226756,1.035522,-0.690001,0.816894,0.183434,-1.551865,0.584593,0.002000,1.402839,0.000000
698.000000,0.002000,0.249450,0.302364,0.109795,-0.244870,-2.274726,0.152247,-18.313807,-14.508296,-8.897971,0.002000,-0.216615,0.000000
699.000000,0.002000,0.435791,-0.169674,-0.016297,2.483796,-3.010561,-0.070309,-14.121829,8.336001,-1.897465,0.002000,0.325823,0.000000
700.000000,0.002000,-1.086171,-0.639081,-0.766250,-1.672520,0.362598,1.288926,4.405117,3.012605,3.120885,0.002000,0.025228,0.000000
701.000000,0.002000,0.043230,0.041641,-0.041923,0.987662,-2.421803,0.381876,-3.499705,0.818245,1.579294,0.002000,-0.767061,0.000000
702.000000,0.002000,-0.201158,-0.390224,-1.021367,-2.611958,2.633824,1.543251,1.481823,4.202829,8.469940,0.002000,2.152567,0.000000
703.000000,0.002000,0.672627,-0.024762,0.143940,-2.497610,-1.031253,1.587067,-14.600764,2.874982,-4.846031,0.002000,0.013423,0.000000
704.000000,0.002000,-0.697547,1.127503,1.235191,0.078932,-2.145131,-1.699750,1.656774,-2.813875,-3.230589,0.002000,0.172545,0.000000
705.000000,0.002000,3.543559,-2.895500,10.933215,0.117416,-0.201182,0.206641,-0.042019,0.035237,-0.129898,0.002000,-2.946642,0.000000
706.000000,0.002000,0.852465,-0.398982,3.555739,0.580411,0.101192,-0.625628,-0.349530,0.186402,-1.311045,0.002000,1.661314,0.000000
707.000000,0.002000,-0.281475,0.908830,1.652002,-1.541318,0.728644,0.613983,0.601154,-2.047483,-3.732118,0.002000,-0.397395,0.000000
708.000000,0.002000,0.889689,0.779775,-0.187779,-1.362522,-0.758130,-1.584528,-7.212587,-5.433227,1.360059,0.002000,0.135440,0.000000
709.000000,0.002000,0.191567,0.199453,0.104330,1.547172,3.947300,-0.061721,-12.591437,-2.532091,-12.789448,0.002000,-0.224488,0.000000
710.000000,0.002000,-0.106413,-0.202123,-0.077884,-0.219474,2.510108,-0.705200,5.906801,16.698474,4.652437,0.002000,-0.212632,0.000000
711.000000,0.002000,-2.903012,0.506342,0.302140,0.874946,-0.577469,1.777432,2.016112,-0.330873,-0.183485,0.002000,-2.678932,0.000000
712.000000,0.002000,0.087179,0.188772,0.169952,-0.657285,-2.304058,-1.794822,-5.749041,-14.142667,-14.395854,0.002000,-0.521105,0.000000
713.000000,0.002000,0.407332,-0.599771,0.391380,-1.862486,-3.067674,1.210353,-5.732270,9.693952,-5.917707,0.002000,1.882566,0.000000
714.000000,0.002000,0.303058,0.630746,0.584004,-1.163393,-1.814369,-0.611848,-4.929573,-8.334382,-8.997582,0.002000,-0.024155,0.000000
715.000000,0.002000,2.110074,2.788373,3.327133,-0.068222,-0.129929,0.666130,-0.375557,-0.476009,-0.585297,0.002000,0.443536,0.000000
716.000000,0.002000,-0.189389,-0.311569,-0.157375,-4.942755,-0.883215,1.551576,7.759174,16.035415,6.675882,0.002000,0.103624,0.000000
717.000000,0.002000,1.271815,0.744359,-0.847232,-0.350502,0.536406,0.748053,-4.143835,-2.031312,2.514015,0.002000,0.671215,0.000000
718.000000,0.002000,-2.012289,-0.338932,-1.807824,-0.727017,1.053926,-1.212832,1.565567,0.280762,1.487539,0.002000,-0.292027,0.000000
719.000000,0.002000,2.017578,-1.084920,-1.092616,1.163757,0.872493,0.357204,-1.999574,1.165755,1.066815,0.002000,-0.322881,0.000000
720.000000,0.002000,1.857699,0.726233,-0.981562,0.611921,-0.079006,-1.450826,-2.771860,-0.943906,1.459110,0.002000,0.249450,0.000000
721.000000,0.002000,-0.065623,-0.337300,-0.107173,-2.111395,-0.043544,-2.282736,1.631149,19.698725,3.587725,0.002000,0.435791,0.000000
722.000000,0.002000,-0.353331,-0.138093,1.023254,-0.539120,-0.726860,0.190054,2.567580,1.758640,-8.808567,0.002000,-1.086171,0.000000
723.000000,0.002000,-0.374307,0.508310,-0.392422,-0.573742,-1.753084,0.027541,8.510748,-10.790522,9.190936,0.002000,0.043230,0.000000
724.000000,0.002000,0.736413,-0.243123,-4.462714,0.845453,0.064894,0.151874,-0.165791,0.066558,0.937316,0.002000,-0.201158,0.000000
725.000000,0.002000,0.117138,0.294875,0.247329,0.001897,4.788605,-0.972178,-3.768455,-8.708417,-10.400448,0.002000,0.672627,0.000000
726.000000,0.002000,-0.048832,-0.018451,-0.308261,4.124839,4.739829,-0.262380,2.388069,3.693161,18.291778,0.002000,-0.697547,0.000000
727.000000,0.002000,0.285411,0.613527,-1.072967,-1.359833,1.716140,-0.421391,-2.130874,-3.567889,7.449045,0.002000,3.543559,0.000000
728.000000,0.002000,0.596476,0.364017,-0.241536,1.549877,-1.786852,-2.825292,-13.637472,-6.466928,4.361690,0.002000,0.852465,0.000000
729.000000,0.002000,0.692096,0.114257,0.267542,1.302848,2.947743,-0.662120,-12.443727,-1.059240,-5.932607,0.002000,-0.281475,0.000000
730.000000,0.002000,-0.027104,-0.513298,0.131845,3.869696,-0.398896,0.718357,-0.619730,17.461780,-4.369629,0.002000,0.889689,0.000000
731.000000,0.002000,-0.776028,-0.116776,-0.252583,-0.948734,-0.968844,-0.847478,12.854931,3.490677,4.726452,0.002000,0.191567,0.000000
732.000000,0.002000,-0.316859,-0.370041,0.208628,2.216083,0.494830,-1.160450,8.419550,14.885259,-6.985477,0.002000,-0.106413,0.000000
733.000000,0.002000,-0.268272,0.892322,-0.382564,-1.527902,-3.189917,-3.266814,3.290598,-10.706465,4.477248,0.002000,-2.903012,0.000000
734.000000,0.002000,-0.123548,0.314588,0.110888,1.369775,1.257082,1.935416,9.199727,-14.624107,-6.377320,0.002000,0.087179,0.000000
735.000000,0.002000,0.182491,-0.141557,-0.537468,-2.431476,-0.129365,-4.055087,-6.256170,4.850484,15.424497,0.002000,0.407332,0.000000
736.000000,0.002000,0.111277,0.352535,-0.373532,-0.922611,2.451758,-0.608869,-3.729981,-9.217847,16.541758,0.002000,0.303058,0.000000
737.000000,0.002000,0.414511,-0.209437,-0.058084,0.165624,0.624616,0.189967,-15.892518,11.439473,1.304853,0.002000,2.110074,0.000000
738.000000,0.002000,-0.958112,-1.493115,3.122633,-0.167171,-0.809620,1.154431,0.360110,0.623835,-1.229205,0.002000,-0.189389,0.000000
739.000000,0.002000,0.178050,1.792884,-3.064382,-0.545092,-0.136871,-1.350278,-0.112186,-0.772880,1.290316,0.002000,1.271815,0.000000
740.000000,0.002000,-0.116098,-0.087650,-0.152586,-0.449110,2.092931,-1.112366,12.160279,18.450687,7.553752,0.002000,-2.012289,0.000000
741.000000,0.002000,0.834530,-0.277690,0.459415,-0.099946,-0.503778,1.836871,-8.874457,3.754484,-5.081105,0.002000,2.017578,0.000000
742.000000,0.002000,0.071487,-0.192829,0.400620,-1.421229,-1.961624,-1.647000,-3.454964,10.794347,-15.912270,0.002000,1.857699,0.000000
743.000000,0.002000,-0.778445,0.873449,0.125255,-0.520748,-0.108675,2.131266,6.365647,-6.912855,-1.256023,0.002000,-0.065623,0.000000
744.000000,0.002000,0.256978,-0.125615,-0.481957,2.610700,-1.647731,0.575697,-7.741732,4.744371,14.464397,0.002000,-0.353331,0.000000
745.000000,0.002000,0.102025,-1.247809,2.617653,2.154193,-1.339094,1.007834,-0.062202,0.924733,-1.792223,0.002000,-0.374307,0.000000
746.000000,0.002000,0.529115,0.814877,0.123511,-3.042108,-2.944333,-0.521982,-7.892338,-9.621175,-2.663137,0.002000,0.736413,0.000000
747.000000,0.002000,-0.289962,0.489399,-0.908093,-0.738108,3.247946,3.083202,2.715642,-4.418058,9.402037,0.002000,0.117138,0.000000
748.000000,0.002000,2.299014,-0.369065,0.318209,-1.420437,0.807983,-0.162051,-2.939693,0.464121,-0.445670,0.002000,-0.048832,0.000000
749.000000,0.002000,1.691989,0.371608,2.678115,0.527911,0.093021,1.103775,-0.574986,-0.144964,-1.463671,0.002000,0.285411,0.000000
750.000000,0.002000,0.042157,0.005576,-0.205554,-1.041140,0.889200,2.267255,-7.023857,3.692906,19.579017,0.002000,0.596476,0.000000
751.000000,0.002000,-0.569234,-0.677469,-0.249632,-0.178081,2.779681,-1.294539,6.124017,9.022223,2.866496,0.002000,0.692096,0.000000
752.000000,0.002000,-2.481471,0.072446,-2.178044,0.389967,-1.372250,-0.344954,1.288183,-0.003847,1.125510,0.002000,-0.027104,0.000000
753.000000,0.002000,0.717553,-0.747184,0.498131,1.185133,-0.734488,0.387014,-5.022427,5.840193,-3.603237,0.002000,-0.776028,0.000000
754.000000,0.002000,0.207046,-0.967132,-0.598291,-0.346577,2.373348,1.077409,-1.434215,7.247518,3.975177,0.002000,-0.316859,0.000000
755.000000,0.002000,0.200531,-1.444586,-1.614631,1.279879,-0.630649,0.968727,-0.328528,2.212681,2.365059,0.002000,-0.268272,0.000000
756.000000,0.002000,-0.615369,0.029498,1.529276,-0.995929,-0.911186,2.806167,1.807621,0.025414,-4.927176,0.002000,-0.123548,0.000000
757.000000,0.002000,-0.061519,0.499579,-1.149430,0.327047,0.663628,-2.019693,0.357822,-2.815350,8.004385,0.002000,0.182491,0.000000
758.000000,0.002000,0.053054,-0.109585,-0.256717,-2.162010,2.624704,-0.334712,-0.420661,13.558372,14.656135,0.002000,0.111277,0.000000
759.000000,0.002000,0.152894,-0.098280,-0.128500,1.929715,4.384847,0.976607,-12.727684,11.095470,7.648097,0.002000,0.414511,0.000000
760.000000,0.002000,-0.678881,-0.620908,0.162914,-2.369588,1.981327,1.289653,7.439194,7.343740,-1.891025,0.002000,-0.958112,0.000000
761.000000,0.002000,0.073117,-0.019187,0.808763,2.065519,0.010245,1.277547,-1.456273,1.275302,-13.944038,0.002000,0.178050,0.000000
762.000000,0.002000,0.819658,-0.873463,0.151523,-0.327283,-1.456875,-0.813103,-5.477878,5.889911,-1.050410,0.002000,-0.116098,0.000000
763.000000,0.002000,0.508094,-0.591530,-0.065041,-0.138582,-1.251934,0.306146,-7.537283,10.669114,0.060048,0.002000,0.834530,0.000000
764.000000,0.002000,-0.163684,-0.077118,0.186940,-0.394607,-0.134878,-2.461561,8.292922,8.991093,-11.513535,0.002000,0.071487,0.000000
765.000000,0.002000,2.482307,1.115541,0.147478,-1.034035,-0.649934,1.577118,-2.147711,-0.866188,-0.124409,0.002000,-0.778445,0.000000
766.000000,0.002000,-0.216204,0.199907,-0.630552,0.275516,2.951947,0.153137,4.681227,-3.481719,15.754978,0.002000,0.256978,0.000000
767.000000,0.002000,0.738390,0.085102,-0.286323,1.872198,2.727164,0.907743,-13.497301,-0.548791,5.288714,0.002000,0.102025,0.000000
768.000000,0.002000,-0.244472,-0.150603,-0.684167,1.187655,-1.433467,0.577694,4.949251,3.641687,13.829336,0.002000,0.529115,0.000000
769.000000,0.002000,0.099194,0.176587,0.056692,0.725063,2.581051,0.175670,-7.392483,-3.401384,-5.448052,0.002000,-0.289962,0.000000
770.000000,0.002000,0.458622,-0.432827,0.352953,3.221630,0.595151,-0.251486,-8.555400,9.718219,-7.179767,0.002000,2.299014,0.000000
771.000000,0.002000,-1.530847,-0.265443,0.582604,-2.270112,0.187080,0.885740,4.816613,1.113013,-2.021761,0.002000,1.691989,0.000000
772.000000,0.002000,-0.013888,0.460057,-0.604298,0.507652,4.523734,1.928444,-0.130133,-8.634240,14.051057,0.002000,0.042157,0.000000
773.000000,0.002000,-0.794812,0.827080,1.507507,0.078541,-1.196107,0.920825,1.834832,-1.830768,-3.496545,0.002000,-0.569234,0.000000
774.000000,0.002000,0.145825,-0.120301,0.041726,-0.593578,-2.004458,0.862259,-6.744139,8.499028,-7.374709,0.002000,-2.481471,0.000000
775.000000,0.002000,-0.533272,-0.420451,1.455016,-1.939954,-0.592315,2.703270,1.574795,1.674280,-4.710086,0.002000,0.717553,0.000000
776.000000,0.002000,0.077727,-2.476105,0.252132,0.889147,1.861290,-1.238922,-0.052700,2.516036,-0.289710,0.002000,0.207046,0.000000
777.000000,0.002000,-0.619762,0.136382,0.064190,0.862133,-1.235122,2.371003,16.846125,-0.715025,-3.386780,0.002000,0.200531,0.000000
778.000000,0.002000,0.058075,-0.098675,-0.432241,2.345827,3.736551,-1.177184,-6.358459,5.002169,18.039799,0.002000,-0.615369,0.000000
779.000000,0.002000,0.557804,-0.133209,-0.115846,3.317076,0.837441,0.671744,-15.330462,5.841419,3.164447,0.002000,-0.061519,0.000000
780.000000,0.002000,2.376227,1.874676,-0.243639,-0.261482,0.497425,-0.327723,-1.574968,-1.173668,0.124604,0.002000,0.053054,0.000000
781.000000,0.002000,-0.697919,-0.762382,0.509990,-0.264067,0.344604,2.307157,4.977398,6.529464,-3.200198,0.002000,0.152894,0.000000
782.000000,0.002000,0.608886,-0.148294,0.545869,-1.118348,-2.756134,0.768898,-8.788573,3.022695,-8.852826,0.002000,-0.678881,0.000000
783.000000,0.002000,1.254869,0.092295,-0.923189,3.161943,0.144043,-1.564200,-4.742185,-0.193519,3.329275,0.002000,0.073117,0.000000
784.000000,0.002000,0.316518,0.015044,-0.868336,-2.103327,0.471855,1.294987,-4.652507,0.418014,11.251239,0.002000,0.819658,0.000000
785.000000,0.002000,0.742134,-1.377900,2.185957,0.277693,-0.190129,-1.972813,-0.646144,1.202896,-1.874004,0.002000,0.508094,0.000000
786.000000,0.002000,-1.016027,0.156395,1.340231,0.564587,-0.665446,2.231511,2.916376,0.032230,-4.068317,0.002000,-0.163684,0.000000
787.000000,0.002000,-0.300226,2.607594,1.074880,0.281070,-0.752598,-1.702778,0.221193,-2.058736,-0.847995,0.002000,2.482307,0.000000
788.000000,0.002000,-0.403218,-0.037278,-0.574511,0.786737,-3.707582,0.280598,8.666791,2.776830,12.896813,0.002000,-0.216204,0.000000
789.000000,0.002000,0.011139,0.003421,-0.062746,-4.455871,-0.887226,0.084486,-2.065876,1.520824,9.200705,0.002000,0.738390,0.000000
790.000000,0.002000,0.097581,0.901290,0.562167,0.519167,3.160440,-0.454126,-1.152837,-8.702091,-6.140624,0.002000,-0.244472,0.000000
791.000000,0.002000,2.010237,1.124732,-2.270046,0.796511,-0.265827,-0.109901,-1.093461,-0.591295,1.242542,0.002000,0.099194,0.000000
792.000000,0.002000,-0.178009,-0.704764,0.353037,1.573110,0.363435,1.335881,2.431057,11.299336,-5.190406,0.002000,0.458622,0.000000
793.000000,0.002000,-1.138718,0.173117,-0.220754,-0.333565,-0.908498,-0.419253,8.925912,-0.938538,1.533904,0.002000,-1.530847,0.000000
794.000000,0.002000,-0.528716,-0.741503,0.531064,0.941092,-0.039008,0.979260,4.111104,6.892848,-4.401785,0.002000,-0.013888,0.000000
795.000000,0.002000,-0.877146,3.580891,-1.796195,0.135334,0.007083,-0.626005,0.254923,-1.007226,0.515449,0.002000,-0.794812,0.000000
796.000000,0.002000,0.199563,1.236988,0.589185,0.708576,-1.998688,-2.115864,-1.122205,-6.439841,-3.407610,0.002000,0.145825,0.000000
797.000000,0.002000,0.156655,0.179998,0.416313,0.421634,0.734930,-1.175821,-4.884970,-4.879894,-17.071032,0.002000,-0.533272,0.000000
798.000000,0.002000,-0.329233,0.174801,0.130583,-0.064976,2.525770,-2.208539,16.015313,-6.973832,-9.900085,0.002000,0.077727,0.000000
799.000000,0.002000,0.820700,0.533531,1.424868,1.846725,-0.982052,1.900939,-2.269915,-1.451950,-4.124326,0.002000,-0.619762,0.000000
800.000000,0.002000,-0.397846,-0.404242,0.207167,-0.111538,1.837834,1.203903,9.444747,13.258376,-5.140326,0.002000,0.058075,0.000000
801.000000,0.002000,0.116111,-0.676342,-0.242086,-0.112489,-0.577883,0.903355,-2.295552,14.069170,3.537594,0.002000,0.557804,0.000000
802.000000,0.002000,-0.272177,-0.219929,0.048942,-1.084877,-1.738295,2.106211,7.330865,11.235178,-0.782166,0.002000,2.376227,0.000000
803.000000,0.002000,-0.008945,-0.642344,-0.834256,-1.848440,-1.170708,-1.639199,-0.030265,6.961680,7.663646,0.002000,-0.697919,0.000000
804.000000,0.002000,0.488753,0.004874,-0.224323,0.134386,0.002225,-2.516048,-13.229925,0.252132,8.335673,0.002000,0.608886,0.000000
805.000000,0.002000,0.605579,-0.779066,-0.130763,0.711051,0.575503,1.531997,-3.927061,8.165229,3.109688,0.002000,1.254869,0.000000
806.000000,0.002000,-0.781118,1.335686,4.637980,-0.254870,-0.021930,0.148369,0.139824,-0.220061,-0.795860,0.002000,0.316518,0.000000
807.000000,0.002000,-0.409751,-0.400898,0.368920,0.499419,-2.165042,0.646297,8.668784,12.032027,-5.317383,0.002000,0.742134,0.000000
808.000000,0.002000,-0.246929,0.191723,0.414185,-0.886778,-0.217247,-0.373987,7.610218,-4.648624,-15.100702,0.002000,-1.016027,0.000000
809.000000,0.002000,-0.453187,0.025065,-0.529366,-0.095368,1.422747,1.916871,11.259057,0.872110,12.697269,0.002000,-0.300226,0.000000
810.000000,0.002000,-0.237330,-0.025367,-0.066211,-1.959916,-0.832758,1.762540,13.148842,9.890654,3.898171,0.002000,-0.403218,0.000000
811.000000,0.002000,0.050276,-1.070230,-0.114438,0.032264,1.229165,-1.601740,-0.331496,8.879597,0.636985,0.002000,0.011139,0.000000
812.000000,0.002000,0.136131,0.394812,0.809429,1.793915,0.491332,1.305027,-2.176334,-4.239545,-11.272997,0.002000,0.097581,0.000000
813.000000,0.002000,-0.239733,0.223888,-0.021701,-4.288527,3.767849,-0.503446,11.768638,-13.337571,-0.128576,0.002000,2.010237,0.000000
814.000000,0.002000,-0.309915,-0.562786,-1.121339,-0.271126,0.085247,-2.120234,1.800691,3.924448,6.174999,0.002000,-0.178009,0.000000
815.000000,0.002000,0.191903,0.841565,-0.425944,-0.391478,3.477904,-1.368746,-3.247465,-11.677622,5.358567,0.002000,-1.138718,0.000000
816.000000,0.002000,-0.634382,0.452503,0.272510,0.850227,-1.217407,1.077487,11.323733,-6.649561,-5.338023,0.002000,-0.528716,0.000000
817.000000,0.002000,-0.530221,0.099714,-1.157385,-1.476163,0.910584,-2.408023,3.492984,0.090941,7.349822,0.002000,-0.877146,0.000000
818.000000,0.002000,-1.275251,2.172852,-0.831257,2.302780,-0.780963,-0.466572,1.240301,-2.073697,0.823864,0.002000,0.199563,0.000000
819.000000,0.002000,0.442616,-0.051832,0.060753,2.587669,-1.839565,1.972318,-16.791733,4.902065,-3.976956,0.002000,0.156655,0.000000
820.000000,0.002000,1.353827,-0.086070,0.055415,-2.992999,0.047428,-1.060816,-6.777184,0.697972,-0.282348,0.002000,-0.329233,0.000000
821.000000,0.002000,0.384598,-1.537293,-0.883972,0.954526,0.213695,-0.489011,-0.835145,3.679184,2.017030,0.002000,0.820700,0.000000
822.000000,0.002000,0.287669,-0.027023,-0.089186,5.148027,-0.446947,-4.005290,-16.777187,8.258383,4.463530,0.002000,-0.397846,0.000000
823.000000,0.002000,-0.364561,-0.002396,-1.292913,1.030303,-1.369289,2.855932,1.803274,0.471844,7.236166,0.002000,0.116111,0.000000
824.000000,0.002000,-0.065560,0.455533,0.130751,1.037227,-1.677722,-4.218438,5.383453,-14.718521,-6.709076,0.002000,-0.272177,0.000000
825.000000,0.002000,-0.534340,1.058877,2.202443,2.702024,0.624682,1.239582,0.596318,-1.087683,-2.368552,0.002000,-0.008945,0.000000
826.000000,0.002000,-0.437815,0.418802,0.134323,-0.694227,-2.459571,-3.014362,14.989732,-9.970106,-5.323312,0.002000,0.488753,0.000000
827.000000,0.002000,-0.045768,0.257193,0.032207,1.858134,2.356895,-1.106174,0.573615,-12.239178,-6.035131,0.002000,0.605579,0.000000
828.000000,0.002000,0.641581,-0.226802,-0.056462,0.667591,-1.313320,0.473320,-13.794239,6.679462,0.544731,0.002000,-0.781118,0.000000
829.000000,0.002000,-1.580815,-0.866457,0.248021,-0.469563,-0.346991,1.702069,3.601394,2.140812,-0.836911,0.002000,-0.409751,0.000000
830.000000,0.002000,1.321202,0.080664,-0.725473,0.498943,-0.253288,-0.114465,-5.346167,-0.176853,2.699421,0.002000,-0.246929,0.000000
831.000000,0.002000,-0.359382,0.227572,-0.774643,-2.105794,2.373891,-0.546577,5.472204,-2.370772,11.579813,0.002000,-0.453187,0.000000
832.000000,0.002000,-0.834452,-0.806979,-0.559325,-0.468854,0.584260,-0.119757,4.373869,4.971243,3.070022,0.002000,-0.237330,0.000000
833.000000,0.002000,-0.258304,-0.717074,-0.068132,0.434055,1.409257,-0.944259,4.287693,13.185637,1.190048,0.002000,0.050276,0.000000
834.000000,0.002000,-0.581282,0.684770,0.378299,0.589852,0.857365,-1.370224,7.414565,-9.243288,-5.794897,0.002000,0.136131,0.000000
835.000000,0.002000,-2.384136,-1.174527,-1.260581,-0.237749,1.180314,0.845860,1.616990,0.846189,0.869221,0.002000,-0.239733,0.000000
836.000000,0.002000,0.741457,0.406139,0.810519,-2.713839,-2.417454,-1.935156,-5.835533,-2.690038,-6.110900,0.002000,-0.309915,0.000000
837.000000,0.002000,-0.887030,0.122877,-0.916053,-0.096494,-0.302102,-2.104986,5.544908,-0.618156,5.860969,0.002000,0.191903,0.000000
838.000000,0.002000,-0.438407,0.303617,-0.675211,2.489885,0.801648,-0.401122,7.577298,-4.619285,10.706481,0.002000,-0.634382,0.000000
839.000000,0.002000,-0.754947,-0.512307,-0.179021,-1.309719,0.352760,0.208495,14.776391,8.351457,5.883825,0.002000,-0.530221,0.000000
840.000000,0.002000,0.640309,-0.773516,-0.080170,-1.494026,1.378323,1.840429,-6.954732,7.873052,-0.920668,0.002000,-1.275251,0.000000
841.000000,0.002000,-0.812005,-0.131628,-0.853200,0.610644,-1.143515,-1.846760,5.930074,1.592989,6.427679,0.002000,0.442616,0.000000
842.000000,0.002000,0.055069,-0.001250,0.283809,-0.315506,-1.220607,-0.614562,-1.143268,2.366641,-22.060616,0.002000,1.353827,0.000000
843.000000,0.002000,0.064319,0.143829,-0.210035,0.287533,-1.073573,0.464479,-10.718602,-4.004320,9.538533,0.002000,0.384598,0.000000
844.000000,0.002000,0.637469,0.141444,0.912774,-0.642793,-0.567459,-0.107767,-5.448988,-0.139810,-7.406314,0.002000,0.287669,0.000000
845.000000,0.002000,0.736029,1.795985,0.959280,2.022389,-0.153069,1.466652,-1.312810,-2.983051,-1.750670,0.002000,-0.364561,0.000000
846.000000,0.002000,0.248256,-0.089378,-0.349551,0.584068,-0.950255,-1.266407,-11.563078,6.131254,11.543897,0.002000,-0.065560,0.000000
847.000000,0.002000,-0.042439,-1.575212,1.280251,0.628365,1.461691,-1.724021,0.079179,2.733844,-2.152814,0.002000,-0.534340,0.000000
848.000000,0.002000,-0.147597,0.803077,-0.669371,0.265431,1.885111,0.021060,2.373417,-8.115659,7.305324,0.002000,-0.437815,0.000000
849.000000,0.002000,0.337807,0.855351,-0.638584,1.785861,-2.611454,3.214265,-4.002535,-7.450772,6.015717,0.002000,-0.045768,0.000000
850.000000,0.002000,-0.025330,-0.296010,0.485831,0.218338,0.138988,-0.166136,-0.923419,14.244049,-17.506489,0.002000,0.641581,0.000000
851.000000,0.002000,1.176898,0.603812,-0.555375,-1.595252,-0.885431,-0.682934,-5.834454,-2.470795,2.509163,0.002000,-1.580815,0.000000
852.000000,0.002000,-0.226553,-0.366141,-0.295935,2.162004,0.229054,1.053337,10.359764,12.842426,7.217816,0.002000,1.321202,0.000000
853.000000,0.002000,0.305837,0.344264,-0.054082,0.356918,-3.482569,-0.547998,-12.815893,-13.369787,0.090817,0.002000,-0.359382,0.000000
854.000000,0.002000,-0.268922,0.075615,-0.392660,2.286595,0.284270,-0.944220,10.300158,-0.814932,15.544096,0.002000,-0.834452,0.000000
855.000000,0.002000,0.294518,0.921882,0.492616,2.403153,-1.380538,-0.296500,-3.189716,-8.474748,-5.073778,0.002000,-0.258304,0.000000
856.000000,0.002000,-0.194459,-0.108678,-0.418033,-0.480457,2.118543,0.108516,6.056941,7.027479,16.180544,0.002000,-0.581282,0.000000
857.000000,0.002000,-0.348483,0.401204,-0.015607,-2.255242,2.082999,2.371755,13.050680,-13.841332,-1.477781,0.002000,-2.384136,0.000000
858.000000,0.002000,-1.183393,-0.436208,-0.473582,-0.163630,0.002746,-1.884365,6.117473,2.699903,2.419407,0.002000,0.741457,0.000000
859.000000,0.002000,-0.344991,-0.249018,0.431536,4.778484,-1.162929,-1.288267,8.635603,8.072283,-11.207292,0.002000,-0.887030,0.000000
860.000000,0.002000,0.447795,-0.181781,0.344664,-0.380503,0.991656,1.905240,-12.156087,6.438856,-9.288574,0.002000,-0.438407,0.000000
861.000000,0.002000,2.886770,1.002922,0.528432,0.687745,-1.748258,0.841186,-1.767997,-0.503340,-0.315149,0.002000,-0.754947,0.000000
862.000000,0.002000,-0.411987,0.282058,-0.338775,-1.742007,-0.457943,-0.138185,11.427861,-3.710539,8.430498,0.002000,0.640309,0.000000
863.000000,0.002000,-2.519090,0.857856,0.143014,-0.085774,1.139537,-0.392295,2.305015,-0.780208,-0.128759,0.002000,-0.812005,0.000000
864.000000,0.002000,-3.181985,0.153270,3.520595,-0.186168,-0.642408,0.092042,0.583690,-0.015208,-0.644978,0.002000,0.055069,0.000000
865.000000,0.002000,-0.851867,1.650122,0.847326,0.604160,-0.216986,-2.251202,1.388982,-3.012810,-1.873018,0.002000,0.064319,0.000000
866.000000,0.002000,-0.311521,-0.532806,-0.125353,2.242267,2.854373,-1.114963,6.568233,14.067653,2.155880,0.002000,0.637469,0.000000
867.000000,0.002000,-0.455691,0.306180,-0.395112,-2.220811,3.362846,-3.522919,12.942736,-4.208517,11.902934,0.002000,0.736029,0.000000
868.000000,0.002000,-0.031813,0.097314,1.400941,0.951308,-1.961194,0.475015,-0.041426,-0.054563,-6.670981,0.002000,0.248256,0.000000
869.000000,0.002000,0.275628,-0.215911,0.227992,-1.847451,3.308079,1.300530,-12.476534,11.183546,-10.128858,0.002000,-0.042439,0.000000
870.000000,0.002000,0.144110,-0.248123,-0.528537,0.736266,3.666657,0.865105,-3.463349,9.722979,13.403910,0.002000,-0.147597,0.000000
871.000000,0.002000,-0.085025,-0.341637,-0.519611,-0.138510,-1.106778,0.561463,2.066088,9.478838,12.547861,0.002000,0.337807,0.000000
872.000000,0.002000,-0.227920,-1.028238,-3.277498,0.158555,0.160878,-0.444013,0.103708,0.497254,1.465640,0.002000,-0.025330,0.000000
873.000000,0.002000,0.843253,1.394610,3.035776,0.207004,0.358934,0.838645,-0.387527,-0.626730,-1.341796,0.002000,1.176898,0.000000
874.000000,0.002000,1.669621,1.466242,-0.073928,-2.147342,-1.785760,-0.560539,-2.569044,-2.147721,0.129773,0.002000,-0.226553,0.000000
875.000000,0.002000,-1.637329,-2.772131,-0.744103,-0.135082,0.345625,0.244134,0.768912,1.385974,0.342699,0.002000,0.305837,0.000000
876.000000,0.002000,-0.759460,-0.451223,-0.852408,0.588007,1.047986,1.372619,4.871523,3.668184,5.326783,0.002000,-0.268922,0.000000
877.000000,0.002000,2.983559,0.254768,-1.556862,-0.006823,-0.024196,-0.817095,-1.443480,-0.074541,0.704275,0.002000,0.294518,0.000000
878.000000,0.002000,0.946233,0.112169,-0.461391,-3.167736,-0.539384,-0.388617,-9.046626,-0.184869,4.037505,0.002000,-0.194459,0.000000
879.000000,0.002000,-0.187216,0.344932,-0.484022,-0.319284,0.968445,-1.015289,6.663992,-7.082863,13.346581,0.002000,-0.348483,0.000000
880.000000,0.002000,0.216245,0.192229,-1.284053,0.691901,-0.664051,3.482529,-1.425318,-0.641657,7.566151,0.002000,-1.183393,0.000000
881.000000,0.002000,0.094866,0.123411,-0.303701,-0.013761,0.160764,-2.456272,-8.487878,-1.298696,16.228188,0.002000,-0.344991,0.000000
882.000000,0.002000,-0.369155,0.014611,-0.855752,0.655480,-4.389029,0.828674,4.705794,0.825626,10.897822,0.002000,0.447795,0.000000
883.000000,0.002000,-0.789479,0.565398,-0.173530,-0.693479,0.220194,1.626528,9.937652,-7.684996,1.405629,0.002000,2.886770,0.000000
884.000000,0.002000,-0.142787,-0.147750,-0.114262,-2.406898,-1.123173,-2.199112,7.835154,16.073946,5.432646,0.002000,-0.411987,0.000000
885.000000,0.002000,1.804731,0.636783,-0.158284,-2.145393,-0.224183,1.409176,-3.879199,-1.129622,0.313758,0.002000,-2.519090,0.000000
886.000000,0.002000,0.364245,0.115575,0.015798,-2.537352,-4.072804,-1.600102,-18.888268,-1.469303,-2.804750,0.002000,-3.181985,0.000000
887.000000,0.002000,0.795448,0.063045,0.226673,-1.184675,1.840278,-1.463738,-13.693058,0.156715,-3.145456,0.002000,-0.851867,0.000000
888.000000,0.002000,0.068780,-2.408966,-0.321077,-0.519909,-0.563111,0.234996,-0.084859,2.611993,0.347726,0.002000,-0.311521,0.000000
889.000000,0.002000,-0.107389,-0.069116,0.355798,0.494754,0.242319,0.503225,5.197371,5.037372,-17.992677,0.002000,-0.455691,0.000000
890.000000,0.002000,2.164720,-1.123231,-2.155593,-0.181013,0.799601,1.394148,-1.105577,0.602597,1.096497,0.002000,-0.031813,0.000000
