# 
#                 columns are tag, mass, x, y, z, vx, vy, vz, ax, ay, az, EK, EU, E
#                 Time=8.000000
# 
1.000000,0.002000,-3.074507,-0.373886,-1.407221,0.178524,0.560850,0.902989,1.465609,0.209046,0.679127,84.756699,-168.431964,-83.675265
2.000000,0.002000,2.119272,-0.109350,2.025353,1.496647,1.776999,-1.344477,-1.463000,0.118571,-1.389034,0.000000,0.000000,0.000000
3.000000,0.002000,-1.463399,-0.058188,0.720689,-0.541336,0.401157,-0.064421,4.877653,0.415031,-2.696697,0.000000,0.000000,0.000000
4.000000,0.002000,0.140175,0.476050,0.560508,-0.143269,3.419824,-1.538845,-3.686982,-8.864738,-12.350744,0.000000,0.000000,0.000000
5.000000,0.002000,0.256987,0.313289,-0.250460,2.713274,-0.203271,1.538685,-11.300207,-12.659588,8.663090,0.000000,0.000000,0.000000
6.000000,0.002000,-0.497586,-0.114120,-0.321500,1.404394,-1.874385,2.476943,14.528872,3.139773,9.145248,0.000000,0.000000,0.000000
7.000000,0.002000,-0.134269,3.354111,1.785079,0.204626,-0.470232,0.281185,0.052611,-1.174089,-0.682076,0.002000,2281130.542246,0.000000
8.000000,0.002000,0.551242,1.397711,-0.000013,0.591534,1.155105,0.474501,-2.313751,-5.915229,-0.419722,0.002000,29165399104259589220036632077884592010044271535579874918481047634761289515718579363596791617826480624299476516864.000000,0.000000
9.000000,0.002000,2.461518,-1.386317,-1.726217,-0.671107,0.463175,0.271655,-1.216652,0.718108,0.834335,0.002000,-1.407221,0.000000
10.000000,0.002000,-0.530126,1.325647,1.817416,-1.345367,0.362620,1.273926,0.905467,-2.077693,-2.621651,0.002000,2.025353,0.000000
11.000000,0.002000,0.422848,0.472856,0.165453,0.604202,1.190238,-2.056701,-12.501785,-10.170721,-4.355388,0.002000,0.720689,0.000000
12.000000,0.002000,-0.080100,2.150347,0.716790,-0.491934,0.959317,0.437986,0.037516,-2.941538,-1.139635,0.002000,0.560508,0.000000
13.000000,0.002000,-0.650052,-0.524402,0.074697,0.573071,-1.546026,-3.235596,8.936886,11.114759,-2.414828,0.002000,-0.250460,0.000000
14.000000,0.002000,-1.164547,0.403338,1.423640,-0.755681,-0.522619,-0.325365,2.720022,-0.814651,-3.500486,0.002000,-0.321500,0.000000
15.000000,0.002000,2.376825,0.667621,1.491823,1.368065,-0.503893,0.668216,-1.741647,-0.417393,-1.076416,0.002000,1.785079,0.000000
16.000000,0.002000,-0.531113,1.150404,1.835481,0.014465,1.690210,0.248946,0.984673,-1.764358,-3.065733,0.002000,-0.000013,0.000000
17.000000,0.002000,0.395681,0.075349,0.257101,2.885257,-1.434633,1.716533,-16.907907,-0.758945,-12.489047,0.002000,-1.726217,0.000000
18.000000,0.002000,0.782739,0.511984,-0.835210,-0.754215,-1.480083,0.132888,-5.753302,-3.291137,5.661825,0.002000,1.817416,0.000000
19.000000,0.002000,0.040728,-0.058610,-0.224507,1.916758,-0.294230,-1.652484,-5.591851,10.335578,3.871886,0.002000,0.165453,0.000000
20.000000,0.002000,0.435484,-0.024791,0.074854,1.717925,2.510395,0.887818,-17.666384,-0.325138,-4.813959,0.002000,0.716790,0.000000
21.000000,0.002000,0.162114,0.177547,0.374630,1.846767,-1.591132,-1.476024,-8.864836,-5.290948,-17.051841,0.002000,0.074697,0.000000
22.000000,0.002000,-0.464099,0.391292,0.031937,3.328157,-2.919223,-0.166476,14.170056,-10.509253,-0.477143,0.002000,1.423640,0.000000
23.000000,0.002000,1.200989,-0.159399,0.795790,0.674044,-2.556195,-1.769285,-5.276683,0.852650,-3.528098,0.002000,1.491823,0.000000
24.000000,0.002000,0.505635,0.060128,-0.032716,2.357539,2.656433,0.209459,-20.586911,-0.710559,1.094755,0.002000,1.835481,0.000000
25.000000,0.002000,1.009377,-0.336236,0.413246,-0.096770,1.522403,0.413306,-8.284190,2.909067,-3.746605,0.002000,0.257101,0.000000
26.000000,0.002000,-0.482106,-1.442875,-1.245210,-1.406864,-0.547881,0.579281,0.879295,2.972840,2.494586,0.002000,-0.835210,0.000000
27.000000,0.002000,-0.315659,-0.438733,-0.292070,-2.135332,-0.095976,-1.487657,6.444512,11.572608,8.419532,0.002000,-0.224507,0.000000
28.000000,0.002000,-0.129942,0.387846,0.773471,-0.529400,-1.951539,-0.642127,1.957851,-4.852452,-11.949115,0.002000,0.074854,0.000000
29.000000,0.002000,0.660136,0.682884,-1.402470,0.810233,0.712873,-3.741024,-2.052615,-2.013042,4.537597,0.002000,0.374630,0.000000
30.000000,0.002000,0.412951,0.103209,0.536142,3.156834,1.726233,1.105530,-9.184148,-2.088349,-14.057906,0.002000,0.031937,0.000000
31.000000,0.002000,-0.510673,-0.620035,-0.177198,-1.498539,0.611796,0.207107,7.210539,10.707921,2.707703,0.002000,0.795790,0.000000
32.000000,0.002000,0.080183,-0.048122,0.083654,0.590851,2.291321,1.074779,-2.073988,6.626519,-5.845017,0.002000,-0.032716,0.000000
33.000000,0.002000,0.151056,-0.870105,-0.053127,-0.311280,2.027506,0.768311,-1.931685,11.645328,0.929702,0.002000,0.413246,0.000000
34.000000,0.002000,0.045484,-0.739121,0.638911,-2.001548,-3.085529,0.410809,-0.658120,8.126968,-6.692735,0.002000,-1.245210,0.000000
35.000000,0.002000,-1.734406,0.608912,-1.319088,-0.721489,0.669059,-1.534078,2.466866,-0.825044,1.911191,0.002000,-0.292070,0.000000
36.000000,0.002000,1.914436,-0.291001,-0.597593,2.097108,0.408326,-1.407239,-3.656708,0.926025,1.257555,0.002000,0.773471,0.000000
37.000000,0.002000,-0.886565,-1.503863,2.620381,1.279364,1.539754,-1.351170,0.477366,0.895287,-1.484627,0.002000,-1.402470,0.000000
38.000000,0.002000,0.375818,0.252880,-0.079634,-2.415076,2.333188,-3.813096,-17.382731,-8.605296,1.137374,0.002000,0.536142,0.000000
39.000000,0.002000,0.061855,-0.014800,-0.412091,-2.802211,2.620863,0.455629,-5.597931,-1.055928,20.175940,0.002000,-0.177198,0.000000
40.000000,0.002000,0.424889,0.103809,1.329364,-1.031103,0.757593,0.017587,-2.323374,-0.286716,-6.180662,0.002000,0.083654,0.000000
41.000000,0.002000,0.043659,-0.011303,-0.255283,1.019257,-0.944629,5.007516,-5.245408,2.649965,16.109946,0.002000,-0.053127,0.000000
42.000000,0.002000,-2.473054,1.538717,0.119594,1.116237,-0.218149,-0.919189,1.855379,-1.120333,-0.103074,0.002000,0.638911,0.000000
43.000000,0.002000,1.290000,-0.868728,-1.130747,-0.440741,-2.282973,-0.256141,-2.666776,2.037907,2.304832,0.002000,-1.319088,0.000000
44.000000,0.002000,0.264848,-0.133601,-0.352292,0.584187,1.911105,-1.433399,-10.738145,6.536038,12.541194,0.002000,-0.597593,0.000000
45.000000,0.002000,-0.092318,0.453966,0.769872,2.031229,-0.034733,-0.433596,0.656263,-5.951948,-11.289365,0.002000,2.620381,0.000000
46.000000,0.002000,0.386352,-0.058803,0.111046,1.830819,0.500197,-2.427478,-17.444520,5.905428,-7.016150,0.002000,-0.079634,0.000000
47.000000,0.002000,-0.435479,0.131108,0.616899,-3.240011,-0.395088,1.876175,7.675732,-0.540043,-12.559448,0.002000,-0.412091,0.000000
48.000000,0.002000,-0.357203,0.383509,-0.134579,-2.968078,0.063304,-1.050631,12.067127,-14.186524,2.570353,0.002000,1.329364,0.000000
49.000000,0.002000,4.219213,0.788179,1.573333,1.377654,0.178055,0.693480,-0.852021,-0.145131,-0.326712,0.002000,-0.255283,0.000000
50.000000,0.002000,-1.014000,0.165261,-0.447023,-1.881385,-0.382015,-1.497533,8.806135,-1.081051,3.827049,0.002000,0.119594,0.000000
51.000000,0.002000,0.113842,-0.073680,0.039815,1.980600,4.832134,-0.583266,-10.204939,9.991315,-3.841675,0.002000,-1.130747,0.000000
52.000000,0.002000,-0.596595,-0.077862,-0.128156,-0.447960,0.032046,-2.148244,17.196672,3.856189,2.900338,0.002000,-0.352292,0.000000
53.000000,0.002000,-0.166841,0.034259,0.052760,4.289726,2.611059,-1.355956,13.216408,-0.244272,-7.868349,0.002000,0.769872,0.000000
54.000000,0.002000,-0.983500,-0.494022,0.559554,0.054904,0.497816,-3.111567,6.294111,3.356354,-3.770254,0.002000,0.111046,0.000000
55.000000,0.002000,0.414927,0.148949,-0.508720,-0.200225,-0.485082,3.153134,-11.401894,-2.913899,13.117013,0.002000,0.616899,0.000000
56.000000,0.002000,-0.043657,-0.081157,0.246979,2.217175,-3.853329,-1.876598,0.756746,6.959325,-15.065844,0.002000,-0.134579,0.000000
57.000000,0.002000,-1.058240,2.387236,1.728649,1.343556,-0.101190,0.615122,0.615515,-1.451555,-1.065525,0.002000,1.573333,0.000000
58.000000,0.002000,0.368406,0.722854,-2.303387,0.491057,1.075304,-1.446480,-0.509572,-0.774210,2.810708,0.002000,-0.447023,0.000000
59.000000,0.002000,0.376519,-0.233800,0.021594,-0.993680,0.308555,-3.574978,-15.630461,12.820763,-1.435310,0.002000,0.039815,0.000000
60.000000,0.002000,-0.082634,-0.167784,0.124064,0.384831,0.706582,-0.969361,5.531884,10.637886,-9.084582,0.002000,-0.128156,0.000000
61.000000,0.002000,0.054229,-0.625402,-0.527103,-2.504312,-0.410418,0.858344,-0.784818,10.505944,7.701590,0.002000,0.052760,0.000000
62.000000,0.002000,3.121022,-0.533137,0.698555,0.944149,-0.340793,1.224885,-1.611024,0.306202,-0.376176,0.002000,0.559554,0.000000
63.000000,0.002000,0.277076,-0.225192,0.202830,0.401126,0.959753,-1.721782,-12.638569,12.257471,-8.026822,0.002000,-0.508720,0.000000
64.000000,0.002000,-0.616364,-0.021304,-0.267994,-1.023452,-3.424606,-1.102966,15.524007,0.307590,6.318415,0.002000,0.246979,0.000000
65.000000,0.002000,-0.333713,-0.421571,-0.022020,2.225272,-1.759997,3.246299,9.587189,15.567651,2.058023,0.002000,1.728649,0.000000
66.000000,0.002000,-0.732425,-0.654022,-0.973892,0.397889,-0.733782,-1.061395,2.758679,3.618387,4.445197,0.002000,-2.303387,0.000000
67.000000,0.002000,-0.945142,1.965944,-0.868945,0.530332,-2.095254,0.884720,1.200036,-2.739690,1.222721,0.002000,0.021594,0.000000
68.000000,0.002000,0.244163,0.372768,1.196422,0.492204,-2.571009,-0.958984,-1.690079,-1.892851,-7.145417,0.002000,0.124064,0.000000
69.000000,0.002000,2.130503,0.711899,1.942753,0.153019,-1.427224,-0.398929,-1.427955,-0.415447,-1.331933,0.002000,-0.527103,0.000000
70.000000,0.002000,0.365433,0.062751,-0.349194,-0.399076,3.119318,-3.582048,-13.502543,0.691810,12.176243,0.002000,0.698555,0.000000
71.000000,0.002000,-0.381475,-0.010946,-0.569622,1.810436,2.621162,-0.267931,9.043642,1.430037,14.149964,0.002000,0.202830,0.000000
72.000000,0.002000,0.449601,-0.323436,1.048207,0.257390,0.948034,-0.790094,-3.362585,2.335051,-7.205621,0.002000,-0.267994,0.000000
73.000000,0.002000,1.975143,-2.696835,-2.491697,0.163064,-0.398083,-1.015600,-0.517569,0.718135,0.659794,0.002000,-0.022020,0.000000
74.000000,0.002000,-0.026007,0.071404,0.225943,0.022993,-3.122716,1.711342,-0.467636,-4.500456,-16.462043,0.002000,-0.973892,0.000000
75.000000,0.002000,-0.908034,0.044326,0.778828,0.638952,0.946705,-3.935725,6.340594,-0.212815,-6.089212,0.002000,-0.868945,0.000000
76.000000,0.002000,-0.626975,-0.986509,-0.486130,-0.221630,-0.004785,0.549078,3.326349,6.132810,2.890867,0.002000,1.196422,0.000000
77.000000,0.002000,0.074902,0.303472,-0.297232,-2.709633,-3.095669,1.154138,-4.086908,-12.657052,13.968455,0.002000,1.942753,0.000000
78.000000,0.002000,0.210331,0.339696,0.613841,1.786693,2.039425,-0.331359,-4.730187,-4.303734,-14.074937,0.002000,-0.349194,0.000000
79.000000,0.002000,-0.748814,-0.113554,0.089527,0.131363,-2.438342,-2.581093,13.858157,2.927617,-1.951302,0.002000,-0.569622,0.000000
80.000000,0.002000,3.136408,0.756838,-1.752301,0.437242,1.240299,-0.650915,-1.215264,-0.277443,0.659463,0.002000,1.048207,0.000000
81.000000,0.002000,-0.229324,0.188919,0.184223,0.800748,2.011735,1.242358,11.508003,-8.695867,-7.745290,0.002000,-2.491697,0.000000
82.000000,0.002000,0.595128,0.429238,0.607881,2.922493,1.981524,-0.784555,-7.216995,-4.812082,-6.882897,0.002000,0.225943,0.000000
83.000000,0.002000,0.640318,0.432935,0.159614,-0.932277,-1.773996,3.225528,-12.138146,-6.632414,-3.556039,0.002000,0.778828,0.000000
84.000000,0.002000,0.423120,-1.079138,1.251339,0.392716,0.412974,-0.235487,-1.483778,3.107631,-3.377182,0.002000,-0.486130,0.000000
85.000000,0.002000,0.240548,0.141271,-0.544743,1.801631,-2.950654,3.927592,-5.652963,-2.446486,15.865262,0.002000,-0.297232,0.000000
86.000000,0.002000,-0.087395,0.099596,0.554244,1.264355,-2.893809,1.812896,1.665304,-0.811989,-17.544678,0.002000,0.613841,0.000000
87.000000,0.002000,0.165954,-0.149881,-0.035005,4.470277,-2.410466,0.113084,-12.161794,13.786592,0.859764,0.002000,0.089527,0.000000
88.000000,0.002000,0.014532,0.227188,-0.054895,3.568360,0.060404,-0.885017,-1.110826,-13.906040,0.046534,0.002000,-1.752301,0.000000
89.000000,0.002000,-0.144758,1.649132,0.271395,1.618310,-1.846394,-0.674407,0.576886,-5.279063,-0.961214,0.002000,0.184223,0.000000
90.000000,0.002000,0.064220,0.068478,0.015646,-0.460182,0.101915,0.745122,-8.145821,-0.457712,-5.427141,0.002000,0.607881,0.000000
91.000000,0.002000,-1.579876,-3.885750,-1.055914,0.881517,0.495789,1.363710,0.362901,0.920475,0.255628,0.002000,0.159614,0.000000
92.000000,0.002000,-0.537261,0.047932,0.291093,-2.206640,-0.543841,0.896403,14.972514,1.117384,-8.266740,0.002000,1.251339,0.000000
93.000000,0.002000,0.225329,-0.012025,-0.799036,-3.800097,3.012408,-1.228341,-3.805327,0.894498,12.515176,0.002000,-0.544743,0.000000
94.000000,0.002000,-2.842785,-0.340377,-1.776009,0.092529,0.422124,0.946377,1.374960,0.200938,0.884162,0.002000,0.554244,0.000000
95.000000,0.002000,0.542713,-0.163718,-0.237693,-3.669300,0.300056,1.036863,-13.808673,4.853870,6.540377,0.002000,-0.035005,0.000000
96.000000,0.002000,-0.408932,0.572609,-0.968840,-0.482748,-0.726061,0.600799,2.908379,-4.313011,7.908236,0.002000,-0.054895,0.000000
97.000000,0.002000,0.317138,0.403732,-0.010897,0.330755,3.649360,-0.453852,-12.070465,-14.442748,-1.097812,0.002000,0.271395,0.000000
98.000000,0.002000,0.588422,1.350876,-3.872840,0.168443,-0.127181,-0.089918,-0.147658,-0.354162,1.088302,0.002000,0.015646,0.000000
99.000000,0.002000,-0.213540,-0.217792,0.105972,0.001128,-0.424834,-1.587277,8.199518,16.220520,-7.524688,0.002000,-1.055914,0.000000
100.000000,0.002000,-0.191887,0.387232,-0.324503,0.566273,1.005390,-2.884720,4.886552,-13.237976,10.582895,0.002000,0.291093,0.000000
101.000000,0.002000,0.328884,0.118537,-0.336939,3.403411,-3.624373,0.172776,-13.363760,-1.549537,14.081267,0.002000,-0.799036,0.000000
102.000000,0.002000,-0.557809,0.412969,0.449427,0.408437,-1.916742,2.216369,9.245255,-5.837571,-7.783432,0.002000,-1.776009,0.000000
103.000000,0.002000,-2.200215,1.241209,-0.536210,-1.230934,0.237441,0.091458,2.312576,-1.230244,0.629671,0.002000,-0.237693,0.000000
104.000000,0.002000,-0.182156,0.368073,0.306492,-1.785591,3.356854,-1.368040,7.001170,-12.019695,-10.729432,0.002000,-0.968840,0.000000
105.000000,0.002000,0.612082,1.111152,-0.693910,-1.651887,0.424953,-2.760184,-2.855437,-5.149990,3.111572,0.002000,-0.010897,0.000000
106.000000,0.002000,-0.043899,0.054812,0.301800,-0.990263,-2.117877,0.767548,-0.826488,0.846515,-16.845002,0.002000,-3.872840,0.000000
107.000000,0.002000,0.051918,0.278298,-0.085052,-1.656810,-3.643020,-0.308286,-2.790703,-20.678444,6.877842,0.002000,0.105972,0.000000
108.000000,0.002000,-0.783309,-0.472230,0.827417,0.879353,0.576962,-0.256330,4.844670,3.351865,-5.549185,0.002000,-0.324503,0.000000
109.000000,0.002000,-0.165893,0.506925,-0.309301,3.131675,-0.043663,0.188806,4.224780,-14.580359,8.580775,0.002000,-0.336939,0.000000
110.000000,0.002000,1.476653,-1.063574,-0.661377,1.699898,-1.064213,0.237067,-3.008540,2.186724,1.267611,0.002000,0.449427,0.000000
111.000000,0.002000,-0.555285,-0.054122,0.546697,1.069931,-1.712691,1.227385,9.381597,1.326795,-10.889254,0.002000,-0.536210,0.000000
112.000000,0.002000,0.125653,-1.078283,0.555733,-1.378900,-3.366901,1.092281,-1.014163,7.223110,-3.300718,0.002000,0.306492,0.000000
113.000000,0.002000,1.954002,-3.372288,-1.362069,0.403136,1.522549,1.307679,-0.527708,0.937884,0.359414,0.002000,-0.693910,0.000000
114.000000,0.002000,-0.507575,-0.160081,0.072883,0.578075,-2.452382,-2.657983,17.076343,6.991759,-4.135951,0.002000,0.301800,0.000000
115.000000,0.002000,0.047181,-0.350969,-0.559083,-0.913645,1.977716,2.006389,-1.588444,7.389759,14.277054,0.002000,-0.085052,0.000000
116.000000,0.002000,0.155152,-0.084926,0.035316,1.347067,-0.011786,-1.206385,-12.467419,6.982853,-3.276639,0.002000,0.827417,0.000000
117.000000,0.002000,0.069328,0.212003,-0.035376,3.473126,1.124107,0.344438,-13.984108,-6.979227,-3.034020,0.002000,-0.309301,0.000000
118.000000,0.002000,0.674883,-0.035037,-0.104614,-1.607879,-1.211317,-1.442290,-16.128968,0.986092,2.197631,0.002000,-0.661377,0.000000
119.000000,0.002000,0.343335,0.562344,-0.276856,-2.868362,-3.180715,-1.965411,-8.066781,-12.339353,6.260508,0.002000,0.546697,0.000000
120.000000,0.002000,0.073854,0.185025,-0.285608,0.298349,1.697542,2.860523,-6.906426,-10.808638,15.631470,0.002000,0.555733,0.000000
121.000000,0.002000,-0.249058,-0.546661,0.279725,1.070696,-0.036393,1.445715,5.843357,13.779548,-6.106957,0.002000,-1.362069,0.000000
122.000000,0.002000,-0.358575,0.053623,-0.192559,-0.192952,-2.050315,0.454409,15.658616,-0.502071,8.116368,0.002000,0.072883,0.000000
123.000000,0.002000,0.196337,1.207224,-0.061976,-1.442882,-2.582015,-0.620687,-1.755718,-9.041695,0.410921,0.002000,-0.559083,0.000000
124.000000,0.002000,-0.348380,0.524043,0.385752,-0.063337,-0.946440,-2.321298,5.426567,-11.796597,-6.374425,0.002000,0.035316,0.000000
125.000000,0.002000,-0.156615,-0.106571,-1.291440,0.601920,-0.426726,-1.034408,0.763724,1.169635,7.753971,0.002000,-0.035376,0.000000
126.000000,0.002000,0.205083,1.858158,0.385285,-0.066697,1.229661,1.863337,-0.537047,-4.121526,-1.031706,0.002000,-0.104614,0.000000
127.000000,0.002000,-1.146051,-0.374729,1.753052,1.063109,-1.233741,1.020559,1.882845,0.785845,-2.878262,0.002000,-0.276856,0.000000
128.000000,0.002000,-0.995795,-3.234158,0.757909,0.003588,0.375911,0.146545,0.425835,1.376380,-0.316731,0.002000,-0.285608,0.000000
129.000000,0.002000,-0.267835,0.949418,0.531098,-0.711269,-3.167471,-1.647331,2.532098,-8.422837,-4.773369,0.002000,0.279725,0.000000
130.000000,0.002000,-1.082275,-1.014079,-0.760435,-0.338602,-2.101962,-0.597218,3.193170,3.264458,2.488789,0.002000,-0.192559,0.000000
131.000000,0.002000,0.070979,-0.387272,0.060912,0.504054,1.811025,-1.758671,-2.848769,17.128190,4.098395,0.002000,-0.061976,0.000000
132.000000,0.002000,-0.815644,-0.190702,-0.301686,1.028578,-1.912648,2.111428,11.418400,3.866423,4.291271,0.002000,0.385752,0.000000
133.000000,0.002000,2.181696,-1.170564,0.017736,-0.469601,1.548547,1.324305,-2.396298,1.257113,-0.069318,0.002000,-1.291440,0.000000
134.000000,0.002000,-0.141185,0.040569,-0.526388,4.180229,-3.924001,0.171014,4.644943,1.590220,19.360096,0.002000,0.385285,0.000000
135.000000,0.002000,0.542976,1.269460,-2.043187,0.381396,1.367198,-0.396491,-0.646371,-1.436796,2.401134,0.002000,1.753052,0.000000
136.000000,0.002000,0.102923,0.592177,-0.289572,0.551171,-0.859201,-1.309692,-3.858707,-15.386967,7.208641,0.002000,0.757909,0.000000
137.000000,0.002000,-0.256766,-0.673147,-0.727263,0.454485,0.497263,-0.976605,2.377967,7.029761,7.571363,0.002000,0.531098,0.000000
138.000000,0.002000,0.200263,-1.484327,-0.244648,1.116359,1.229539,-0.086509,-0.818084,5.776477,0.726069,0.002000,-0.760435,0.000000
139.000000,0.002000,-0.793206,-0.006253,0.000203,3.348605,1.859996,0.438894,12.921571,3.288449,-0.733363,0.002000,0.060912,0.000000
140.000000,0.002000,0.683304,0.662679,-1.195201,-0.427621,-2.157639,-2.447493,-2.978606,-2.884579,4.930713,0.002000,-0.301686,0.000000
141.000000,0.002000,-0.947684,-1.098231,2.926476,0.092301,-1.512975,0.782940,0.421931,0.578842,-1.512817,0.002000,0.017736,0.000000
142.000000,0.002000,-0.821131,0.021229,0.137587,-1.785677,0.972752,0.318441,13.218016,2.406418,-3.028188,0.002000,-0.526388,0.000000
143.000000,0.002000,0.863162,3.496462,1.062308,-0.225126,-1.983769,-0.578058,-0.353205,-1.264273,-0.399370,0.002000,-2.043187,0.000000
144.000000,0.002000,0.437459,-0.121977,0.327451,-1.135852,-0.313831,-1.603522,-12.765637,6.443941,-8.497313,0.002000,-0.289572,0.000000
145.000000,0.002000,0.141318,-0.124429,0.521585,-2.931676,-1.761426,1.060611,-6.447792,2.762073,-16.816012,0.002000,-0.727263,0.000000
146.000000,0.002000,0.054173,0.624251,0.473298,0.237706,-0.702985,0.869220,-1.874303,-11.575415,-10.302460,0.002000,-0.244648,0.000000
147.000000,0.002000,-0.829800,-0.435580,-0.310285,1.381037,-0.314486,-0.576340,9.101114,5.783699,3.369193,0.002000,0.000203,0.000000
148.000000,0.002000,-2.703471,0.713222,-0.675131,0.014003,-0.438894,0.433316,2.076363,-0.522268,0.543070,0.002000,-1.195201,0.000000
149.000000,0.002000,0.237782,0.109156,-0.217665,-0.839612,2.161450,-3.027003,-13.785720,-2.363903,9.035917,0.002000,2.926476,0.000000
150.000000,0.002000,-0.442586,-0.453264,0.380895,2.470240,-0.496480,1.608247,7.288451,9.879609,-8.234388,0.002000,0.137587,0.000000
151.000000,0.002000,0.223795,-0.169674,-0.149873,-0.951790,-4.579701,-2.655459,-15.452261,12.556393,10.075824,0.002000,1.062308,0.000000
152.000000,0.002000,0.739809,-1.259308,0.387139,0.074068,0.245363,1.974714,-2.682526,4.826625,-1.467409,0.002000,0.327451,0.000000
153.000000,0.002000,1.196955,-1.084223,0.792177,-0.831993,-1.274636,-0.087499,-3.121685,2.585288,-2.077200,0.002000,0.521585,0.000000
154.000000,0.002000,-0.097382,0.681763,0.441813,0.578923,-2.716023,-0.970724,1.693637,-11.597071,-8.495707,0.002000,0.473298,0.000000
155.000000,0.002000,0.015857,0.167919,0.020917,0.031106,0.854203,-0.266495,-1.517887,-11.873920,-3.299850,0.002000,-0.310285,0.000000
156.000000,0.002000,-2.421985,0.967694,0.628905,-2.134440,0.424268,-1.224959,2.209407,-0.815492,-0.722698,0.002000,-0.675131,0.000000
157.000000,0.002000,-0.730873,-1.100978,-0.442314,-1.464934,-4.067000,-0.442025,3.091253,5.729078,2.294057,0.002000,-0.217665,0.000000
158.000000,0.002000,-0.663605,0.167119,-0.190999,-1.103410,0.967317,1.159042,15.446234,-3.013008,4.091397,0.002000,0.380895,0.000000
159.000000,0.002000,-0.150717,0.082212,1.126819,2.578870,0.886451,-0.591461,1.068681,-0.423929,-9.151534,0.002000,-0.149873,0.000000
160.000000,0.002000,0.125911,0.181529,0.318427,-4.504383,1.565452,-3.157983,-8.967225,-5.154741,-14.319737,0.002000,0.387139,0.000000
161.000000,0.002000,0.312129,-0.067015,-0.476615,1.225075,-3.745145,-0.445409,-10.142640,4.859011,14.276764,0.002000,0.792177,0.000000
162.000000,0.002000,0.426661,1.054342,0.074155,0.690359,-0.534555,4.741339,-5.222996,-10.059569,-4.466409,0.002000,0.441813,0.000000
163.000000,0.002000,1.006253,1.661904,0.790575,-0.330701,1.613770,1.187500,-1.792042,-2.860975,-1.480892,0.002000,0.020917,0.000000
164.000000,0.002000,-0.224306,0.116875,0.338250,0.741367,2.045093,-0.711180,8.348161,-2.170738,-20.998052,0.002000,0.628905,0.000000
165.000000,0.002000,0.203096,-1.800354,1.839923,0.215748,2.657952,-0.970274,-0.217550,1.763167,-1.760754,0.002000,-0.442314,0.000000
166.000000,0.002000,0.291368,0.985170,0.514337,-0.069132,-2.798773,0.279280,-2.185718,-8.095889,-5.907091,0.002000,-0.190999,0.000000
167.000000,0.002000,-0.358238,-0.089742,-0.496129,0.906861,0.620190,-3.361507,8.317247,5.367317,13.630737,0.002000,1.126819,0.000000
168.000000,0.002000,0.023207,0.230271,0.200680,1.368283,2.924124,-1.623988,-0.977430,-7.664078,-10.480445,0.002000,0.318427,0.000000
169.000000,0.002000,0.780349,1.279795,0.330551,0.237117,-0.229165,0.588183,-3.334462,-4.985656,-1.480766,0.002000,-0.476615,0.000000
170.000000,0.002000,2.694274,-3.532964,1.699840,0.918865,-0.811608,0.234164,-0.476934,0.632282,-0.305804,0.002000,0.074155,0.000000
171.000000,0.002000,-1.079856,-0.398882,0.090022,2.107922,2.853494,-2.169124,8.636509,3.658276,-0.594610,0.002000,0.790575,0.000000
172.000000,0.002000,2.996487,2.570744,-1.499071,1.535556,0.502242,-0.108176,-0.774797,-0.661166,0.391047,0.002000,0.338250,0.000000
173.000000,0.002000,0.325698,0.127988,-0.073970,1.811874,4.721180,0.390122,-22.084813,-5.163809,2.636866,0.002000,1.839923,0.000000
174.000000,0.002000,-2.422898,-0.310832,1.570864,1.095490,-0.825848,-0.859035,1.744395,0.288580,-1.213898,0.002000,0.514337,0.000000
175.000000,0.002000,-1.000592,0.252485,0.556203,0.205631,3.340678,1.519138,7.363154,-1.616765,-4.965960,0.002000,-0.496129,0.000000
176.000000,0.002000,-0.834478,0.943047,1.200416,0.616058,1.411174,-0.783609,2.458317,-2.565403,-3.468152,0.002000,0.200680,0.000000
177.000000,0.002000,-0.618122,-5.477230,-4.218650,-0.666992,0.564769,-0.376152,0.035098,0.322222,0.245300,0.002000,0.330551,0.000000
178.000000,0.002000,-0.228432,-0.082297,0.058469,2.289803,-1.233323,-1.363263,14.054900,8.363508,-6.786879,0.002000,1.699840,0.000000
179.000000,0.002000,-0.368768,-0.350508,-0.012145,1.904201,0.934977,2.775853,12.367807,14.356464,3.140153,0.002000,0.090022,0.000000
180.000000,0.002000,0.012461,0.619220,-0.027980,-0.938748,2.493176,-0.074157,-0.769685,-16.789833,-0.289315,0.002000,-1.499071,0.000000
181.000000,0.002000,0.123012,-0.084872,0.523842,1.281607,-4.226332,2.176462,-5.133687,1.932079,-17.625571,0.002000,-0.073970,0.000000
182.000000,0.002000,0.885285,1.029693,0.513772,0.503862,-2.723570,-2.034146,-4.101438,-4.490679,-2.433989,0.002000,1.570864,0.000000
183.000000,0.002000,0.889430,-3.411270,-1.401041,-0.033512,0.858333,1.820919,-0.291122,1.175177,0.488557,0.002000,0.556203,0.000000
184.000000,0.002000,-0.433540,0.184844,-0.443226,3.041996,-0.749341,0.455723,12.356143,-2.361513,11.146287,0.002000,1.200416,0.000000
185.000000,0.002000,0.425447,0.674370,-0.789654,0.261731,-2.092032,0.871522,-4.116893,-5.836068,7.615245,0.002000,-4.218650,0.000000
186.000000,0.002000,-1.951085,1.959254,-1.680272,-0.616120,-0.345197,-1.490537,1.108391,-1.113504,0.932767,0.002000,0.058469,0.000000
187.000000,0.002000,-0.746333,4.970265,-1.380204,0.166399,1.060689,-0.561663,0.107770,-0.711750,0.200943,0.002000,-0.012145,0.000000
188.000000,0.002000,0.001079,-0.696799,-0.803375,-0.471818,1.675062,-2.112022,-0.466527,5.973959,7.557357,0.002000,-0.027980,0.000000
189.000000,0.002000,1.258561,-1.418597,-0.785212,0.366530,-2.547738,-0.356174,-2.088736,2.593440,1.308736,0.002000,0.523842,0.000000
190.000000,0.002000,-0.347165,0.512716,-0.159469,1.523990,0.194717,1.497480,9.513590,-13.560731,4.559268,0.002000,0.513772,0.000000
191.000000,0.002000,0.214705,-0.510845,0.039798,-1.276536,2.234766,0.914674,-7.443519,16.566656,-0.651957,0.002000,-1.401041,0.000000
192.000000,0.002000,-0.136924,-0.517624,0.836253,-2.138701,-1.714218,1.664850,0.775527,5.766306,-8.904133,0.002000,-0.443226,0.000000
193.000000,0.002000,0.152062,0.700291,0.100160,-0.974155,-0.674561,-1.058723,-2.267574,-15.721683,-2.276792,0.002000,-0.789654,0.000000
194.000000,0.002000,-2.205481,3.266632,1.168128,-0.725345,-0.300034,0.382540,0.628065,-0.932753,-0.327498,0.002000,-1.680272,0.000000
195.000000,0.002000,-1.290139,0.577959,-0.075695,-1.477358,-0.154672,1.452347,6.715099,-2.874706,0.461158,0.002000,-1.380204,0.000000
196.000000,0.002000,-0.082202,0.593064,-0.411034,1.995728,-0.264498,-1.107952,2.587978,-13.534868,9.961868,0.002000,-0.803375,0.000000
197.000000,0.002000,-0.460575,0.830594,1.135910,-1.675179,-0.098610,3.994589,2.004531,-3.286676,-5.080277,0.002000,-0.785212,0.000000
198.000000,0.002000,0.122573,0.274742,-0.440465,2.194994,2.404094,-1.453522,-4.823356,-7.421503,17.125842,0.002000,-0.159469,0.000000
199.000000,0.002000,0.095293,-0.266104,-0.318209,2.084697,2.742227,0.241705,-7.331789,13.546687,12.688677,0.002000,0.039798,0.000000
200.000000,0.002000,-0.437712,0.412378,-0.687927,0.159598,-1.865612,-0.452085,6.152391,-5.033087,9.994871,0.002000,0.836253,0.000000
201.000000,0.002000,1.948564,-1.194127,1.191063,0.662235,-0.558191,0.372964,-1.870358,1.172151,-1.166264,0.002000,0.100160,0.000000
202.000000,0.002000,-0.448666,0.146090,0.266265,-3.104631,3.416140,2.972440,14.979437,-2.395095,-9.235828,0.002000,1.168128,0.000000
203.000000,0.002000,0.075531,0.241554,-0.977176,-0.378482,2.355500,1.938494,-1.247061,-2.407556,10.911426,0.002000,-0.075695,0.000000
204.000000,0.002000,-0.467821,-0.633356,-0.732513,2.865364,-0.885905,0.520300,4.766211,6.311502,6.100430,0.002000,-0.411034,0.000000
205.000000,0.002000,0.549153,-0.572619,-1.201935,-0.693346,-1.338139,0.211579,-2.329267,2.839127,5.307887,0.002000,1.135910,0.000000
206.000000,0.002000,-0.123330,-0.099848,-0.240102,-2.342983,-1.051253,1.414007,8.854975,9.895282,15.681371,0.002000,-0.440465,0.000000
207.000000,0.002000,1.066921,-0.330176,0.015706,-3.687883,1.793898,-0.628912,-8.675825,2.852120,-0.177854,0.002000,-0.318209,0.000000
208.000000,0.002000,-0.617675,0.226008,-0.266622,1.625007,1.619884,2.874212,13.808019,-6.351460,5.709477,0.002000,-0.687927,0.000000
209.000000,0.002000,-0.111113,-0.339309,0.092902,1.497986,0.991149,0.967738,0.240930,17.685288,0.036660,0.002000,1.191063,0.000000
210.000000,0.002000,-0.592932,0.385420,-0.904415,-2.584736,-0.032057,0.248486,5.329050,-2.835812,7.769217,0.002000,0.266265,0.000000
211.000000,0.002000,0.166065,0.070821,-0.191380,0.374522,-3.396528,2.527551,-7.588081,-1.376912,9.178825,0.002000,-0.977176,0.000000
212.000000,0.002000,-0.221519,0.052343,0.067071,0.123292,-0.678355,0.398920,17.869934,0.139119,-1.255806,0.002000,-0.732513,0.000000
213.000000,0.002000,0.195934,0.036895,-0.300386,3.517476,-1.706707,1.290010,-10.947934,3.472498,15.386730,0.002000,-1.201935,0.000000
214.000000,0.002000,0.082677,1.975837,2.054941,-0.887138,0.689294,-0.053924,-0.090198,-1.519755,-1.638738,0.002000,-0.240102,0.000000
215.000000,0.002000,-0.334197,0.298576,-0.997615,-1.283400,1.352114,3.064697,3.928246,-3.146096,9.612139,0.002000,0.015706,0.000000
216.000000,0.002000,-0.244732,-0.079604,0.098166,1.462716,3.484246,-1.793264,12.125726,7.289538,-8.007389,0.002000,-0.266622,0.000000
217.000000,0.002000,-0.277328,-0.459196,0.786738,-0.092029,-3.419037,1.577989,2.058287,5.084097,-9.485036,0.002000,0.092902,0.000000
218.000000,0.002000,2.360517,-0.780907,-1.117208,0.245428,-1.771378,-1.567134,-2.001455,0.724150,0.927339,0.002000,-0.904415,0.000000
219.000000,0.002000,-0.261282,0.142661,-0.099297,-0.331183,1.204744,0.637668,14.790112,-4.107107,7.542974,0.002000,-0.191380,0.000000
220.000000,0.002000,-0.070436,0.144665,0.436035,-2.925985,-1.155621,-4.607981,2.088353,-4.246742,-19.294369,0.002000,0.067071,0.000000
221.000000,0.002000,0.536050,2.886554,0.165349,-1.030173,-0.924972,0.686927,-0.424964,-2.107723,-0.100658,0.002000,-0.300386,0.000000
222.000000,0.002000,-0.125906,0.175265,0.222275,0.950326,-0.423440,0.535315,10.424726,-11.649824,-16.524474,0.002000,2.054941,0.000000
223.000000,0.002000,-0.289404,0.091509,0.595955,2.190274,-2.482054,-3.989699,6.413481,-0.591087,-14.672327,0.002000,-0.997615,0.000000
224.000000,0.002000,-0.911958,2.804770,2.194699,0.066016,0.491486,-0.916821,0.334789,-1.065391,-0.870253,0.002000,0.098166,0.000000
225.000000,0.002000,0.183868,0.490973,-0.222821,4.066271,-1.510759,1.901968,-7.108306,-14.960771,5.643139,0.002000,0.786738,0.000000
226.000000,0.002000,0.129516,0.067216,0.019242,-2.782280,2.236239,-1.952670,-8.049574,-6.672184,-8.066211,0.002000,-1.117208,0.000000
227.000000,0.002000,0.911691,0.445716,0.039645,0.884892,1.153094,0.686393,-10.155957,-3.846189,-0.735038,0.002000,-0.099297,0.000000
228.000000,0.002000,1.500320,1.297923,0.508773,-1.205788,-1.222573,1.934950,-2.729233,-2.204918,-1.022706,0.002000,0.436035,0.000000
229.000000,0.002000,0.599689,2.355635,-1.768029,-2.769340,0.137762,0.653435,-0.425757,-1.628034,1.126957,0.002000,0.165349,0.000000
230.000000,0.002000,1.737814,1.816792,-0.343769,2.081250,1.433525,-1.321545,-1.913229,-1.955243,0.367195,0.002000,0.222275,0.000000
231.000000,0.002000,-0.684468,-0.253581,-0.166086,-2.156101,-2.238356,1.753951,13.744876,6.287019,3.309644,0.002000,0.595955,0.000000
232.000000,0.002000,-0.824686,-0.928745,-0.189273,2.052582,2.266639,0.255551,4.829860,5.933441,1.342607,0.002000,2.194699,0.000000
233.000000,0.002000,-0.056842,-0.060057,-0.089107,1.578969,4.440140,-1.542063,5.275931,10.078348,6.214997,0.002000,-0.222821,0.000000
234.000000,0.002000,-1.023264,-0.298537,2.213724,-0.127499,1.510892,-0.724477,1.155327,0.267422,-2.617512,0.002000,0.019242,0.000000
235.000000,0.002000,0.698787,1.510409,-0.915891,0.974098,-0.215838,-0.343041,-1.718239,-3.553989,2.224798,0.002000,0.039645,0.000000
236.000000,0.002000,0.783760,0.458038,-0.016660,1.100169,-3.060997,3.342561,-10.862252,-5.444529,0.661268,0.002000,0.508773,0.000000
237.000000,0.002000,-0.332348,-0.403853,0.070349,-2.569451,0.581470,2.739768,10.653106,14.431481,-1.943795,0.002000,-1.768029,0.000000
238.000000,0.002000,-0.271564,0.758325,-0.013565,2.550463,-1.122326,-0.458197,5.940021,-13.521784,-1.120556,0.002000,-0.343769,0.000000
239.000000,0.002000,-0.472313,-0.825801,0.310783,1.027924,-1.931124,-0.886416,4.430217,9.228687,-3.132604,0.002000,-0.166086,0.000000
240.000000,0.002000,-0.186050,-0.186642,0.104038,-2.997903,0.484627,-0.731194,7.746789,11.263322,-5.938168,0.002000,-0.189273,0.000000
241.000000,0.002000,0.368470,-0.702007,0.157278,-1.172911,-1.637089,0.281434,-7.083313,11.693256,-3.196332,0.002000,-0.089107,0.000000
242.000000,0.002000,-1.339358,0.632158,-2.561323,-0.558241,-0.111226,-0.888954,0.968375,-0.390437,1.839878,0.002000,2.213724,0.000000
243.000000,0.002000,-0.438685,-0.320345,0.416244,0.105022,0.720588,-0.759430,9.123603,8.192338,-9.943929,0.002000,-0.915891,0.000000
244.000000,0.002000,-0.311057,0.051464,0.074083,-1.431215,-1.276717,-3.106412,15.980560,-0.716779,-6.097732,0.002000,-0.016660,0.000000
245.000000,0.002000,1.750091,4.009247,-9.165722,-0.769574,0.461703,-0.591993,-0.033830,-0.075842,0.175624,0.002000,0.070349,0.000000
246.000000,0.002000,-2.706458,2.420764,-1.868169,0.056299,0.107542,0.069405,0.787267,-0.703246,0.549004,0.002000,-0.013565,0.000000
247.000000,0.002000,1.278171,-0.554958,-1.499340,-2.227306,-0.863590,0.174787,-2.345678,1.143171,2.612834,0.002000,0.310783,0.000000
248.000000,0.002000,0.191702,-0.629467,-0.418136,0.888481,1.189693,2.393283,-3.551360,11.005570,6.081912,0.002000,0.104038,0.000000
249.000000,0.002000,-0.065973,-0.104389,0.048527,1.431005,1.403450,-0.330057,5.984572,7.555033,-7.408138,0.002000,0.157278,0.000000
250.000000,0.002000,-0.170560,0.729913,-0.625922,0.085056,-0.431148,2.665874,1.949320,-8.627052,7.325382,0.002000,-2.561323,0.000000
251.000000,0.002000,-1.824021,1.169826,-1.494272,0.669869,-1.758626,0.430568,1.725365,-1.068581,1.470939,0.002000,0.416244,0.000000
252.000000,0.002000,-0.162354,-0.052191,0.098616,3.687579,-2.879006,1.779333,9.495562,6.924614,-6.346725,0.002000,0.074083,0.000000
253.000000,0.002000,-0.103775,-0.210376,-0.036362,-3.145454,1.027337,0.343738,7.932670,13.506088,-3.069810,0.002000,-9.165722,0.000000
254.000000,0.002000,0.713487,-0.283007,0.248512,-0.386497,-3.492156,2.221241,-11.132834,5.730839,-4.404485,0.002000,-1.868169,0.000000
255.000000,0.002000,0.677930,-0.145880,0.431260,0.913186,1.560415,1.377797,-10.954636,2.587492,-7.232821,0.002000,-1.499340,0.000000
256.000000,0.002000,-1.243966,-0.998706,-0.987358,-0.128763,0.564065,0.405277,2.926913,2.489350,2.427518,0.002000,-0.418136,0.000000
257.000000,0.002000,-0.219023,0.164774,0.241788,4.379812,1.207627,-0.213626,15.768282,-11.234637,-10.085213,0.002000,0.048527,0.000000
258.000000,0.002000,-0.359253,0.238491,-0.114911,-0.712589,-1.451244,-0.791628,14.926902,-8.367322,3.570768,0.002000,-0.625922,0.000000
259.000000,0.002000,0.367189,-0.649362,-0.728302,0.708705,2.365484,0.188254,-3.762803,6.972108,6.446048,0.002000,-1.494272,0.000000
260.000000,0.002000,-0.756150,-1.004908,-0.979035,-0.776019,0.800816,-2.292288,2.423292,3.630091,3.361414,0.002000,0.098616,0.000000
261.000000,0.002000,-0.834484,0.329756,-0.182603,-1.137579,2.737464,0.459999,11.228642,-3.901879,2.775320,0.002000,-0.036362,0.000000
262.000000,0.002000,-0.868903,0.863899,-0.651631,0.233974,1.828477,-2.608014,4.424442,-4.748022,3.583483,0.002000,0.248512,0.000000
263.000000,0.002000,0.933580,0.460872,-0.142275,-0.904266,-0.312129,-0.963406,-9.333227,-4.279268,2.101147,0.002000,0.431260,0.000000
264.000000,0.002000,0.389553,1.007094,0.442717,0.160593,2.362124,0.340414,-3.949105,-8.231203,-3.974696,0.002000,-0.987358,0.000000
265.000000,0.002000,0.037077,-0.284345,-0.467851,-2.252841,3.020189,0.120404,-2.646476,8.222309,14.560495,0.002000,0.241788,0.000000
266.000000,0.002000,0.289123,0.287316,0.640856,-1.083819,-1.994494,-3.884115,-5.765368,-3.808088,-13.132164,0.002000,-0.114911,0.000000
267.000000,0.002000,0.110353,-0.367993,0.438843,3.869698,-1.539946,2.296714,-6.358348,13.751078,-13.918114,0.002000,-0.728302,0.000000
268.000000,0.002000,-1.017916,0.094800,0.318827,-1.825536,1.700920,-0.425657,9.719514,0.001923,-2.974148,0.002000,-0.979035,0.000000
269.000000,0.002000,-0.087907,0.062542,0.168739,-0.144163,-0.729870,-1.826453,3.127975,-1.392564,-13.162913,0.002000,-0.182603,0.000000
270.000000,0.002000,-0.651797,1.112536,-0.476492,-0.933950,-2.751020,-0.997593,3.436838,-6.014343,2.690765,0.002000,-0.651631,0.000000
271.000000,0.002000,-0.372940,-0.438573,0.212814,1.133908,-1.829036,-1.051764,9.357896,12.816283,-6.619041,0.002000,-0.142275,0.000000
272.000000,0.002000,0.642041,-3.347765,-0.458211,-0.312702,-0.376729,1.245744,-0.251699,1.469886,0.174157,0.002000,0.442717,0.000000
273.000000,0.002000,0.238696,-0.356472,0.126933,-3.842470,-1.373675,2.309882,-11.851430,15.041419,-5.265028,0.002000,-0.467851,0.000000
274.000000,0.002000,-0.058431,0.008269,-0.202906,1.645286,0.460004,-2.668918,3.776288,-0.617440,10.713827,0.002000,0.640856,0.000000
275.000000,0.002000,0.194097,-0.227581,-0.114199,4.462433,0.605283,2.211908,-14.071786,12.354659,6.409840,0.002000,0.438843,0.000000
276.000000,0.002000,-0.131483,2.302784,0.329910,0.127723,-1.981584,-0.799142,0.245660,-3.164537,-0.404530,0.002000,0.318827,0.000000
277.000000,0.002000,0.217551,-0.307557,0.370556,-0.789537,-1.684165,2.950167,-5.731430,11.122410,-12.319529,0.002000,0.168739,0.000000
278.000000,0.002000,0.181187,0.084456,-0.013556,2.529693,1.100191,-1.308439,-12.193920,-0.887814,-3.726220,0.002000,-0.476492,0.000000
279.000000,0.002000,-0.110887,0.239194,0.178148,0.659373,-3.362503,-2.346466,10.251841,-15.126335,-4.557965,0.002000,0.212814,0.000000
280.000000,0.002000,0.007133,-0.203423,-0.212118,-1.911467,1.493441,1.486940,-3.285664,14.752865,12.231086,0.002000,-0.458211,0.000000
281.000000,0.002000,0.354027,0.315433,-0.131092,-4.024943,1.269851,-2.690606,-13.852243,-11.572082,4.735941,0.002000,0.126933,0.000000
282.000000,0.002000,1.270149,0.628796,0.665442,-1.880429,0.946253,2.559812,-4.766071,-1.866933,-2.631987,0.002000,-0.202906,0.000000
283.000000,0.002000,-0.317486,-0.676996,-0.304577,-1.258068,0.776279,1.340053,4.418493,11.629030,4.376675,0.002000,-0.114199,0.000000
284.000000,0.002000,-1.457567,-1.389188,0.202374,2.902065,1.031261,-1.415688,2.758518,2.785723,-0.423395,0.002000,0.329910,0.000000
285.000000,0.002000,-0.381577,0.188923,-0.060704,2.916634,1.698246,3.119571,16.556718,-4.884547,3.826761,0.002000,0.370556,0.000000
286.000000,0.002000,-0.721233,0.999592,0.177974,-2.461349,-1.759657,-0.461432,4.916173,-6.757641,-1.186713,0.002000,-0.013556,0.000000
287.000000,0.002000,0.092324,0.003238,0.040159,-0.936794,3.821711,0.745431,-7.977999,1.453823,-4.253041,0.002000,0.178148,0.000000
288.000000,0.002000,-0.066764,-0.028732,-0.199551,0.842392,-1.750414,-2.448985,7.822626,1.280231,10.892134,0.002000,-0.212118,0.000000
289.000000,0.002000,-0.099964,-0.140734,-0.028103,-1.825108,1.085034,-1.034939,8.276136,13.984422,0.929498,0.002000,-0.131092,0.000000
290.000000,0.002000,-0.503245,-0.100573,-0.069298,2.415390,1.602202,0.203614,16.481134,6.638782,2.425223,0.002000,0.665442,0.000000
291.000000,0.002000,0.724104,-1.335293,1.639117,-0.610760,-0.638842,1.631931,-1.108851,1.702697,-2.445355,0.002000,-0.304577,0.000000
292.000000,0.002000,-0.199881,0.397218,-0.383230,1.234329,2.462457,0.708151,3.797280,-9.935602,16.017620,0.002000,0.202374,0.000000
293.000000,0.002000,0.310638,0.085069,-0.109448,1.708952,1.258639,-2.226072,-17.124261,1.754731,3.632371,0.002000,-0.060704,0.000000
294.000000,0.002000,-0.984879,-0.145611,-1.181131,-2.135824,1.381810,-0.607058,3.381576,-0.148676,5.416848,0.002000,0.177974,0.000000
295.000000,0.002000,-0.040584,0.148115,0.218944,0.931752,0.387776,2.439814,-0.117104,-7.258452,-13.392650,0.002000,0.040159,0.000000
296.000000,0.002000,-0.443714,0.398683,0.296683,0.466214,-2.153149,2.335856,11.148206,-9.764595,-7.602362,0.002000,-0.199551,0.000000
297.000000,0.002000,-0.135709,-0.394769,0.261493,-0.596183,-0.216091,0.262029,3.648073,14.879061,-12.904858,0.002000,-0.028103,0.000000
298.000000,0.002000,-0.542706,-0.366103,0.159701,1.631772,3.692042,-1.585930,14.972672,6.477773,-3.243935,0.002000,-0.069298,0.000000
299.000000,0.002000,0.600036,-2.938267,0.715044,0.831717,-0.566242,0.653812,-0.365619,1.700363,-0.409082,0.002000,1.639117,0.000000
300.000000,0.002000,-1.360188,1.939494,-0.734927,0.124556,-2.306454,-1.215134,1.450673,-2.315957,0.818601,0.002000,-0.383230,0.000000
301.000000,0.002000,-0.532253,-0.234890,0.165845,-2.773626,-0.674682,2.332848,15.325826,10.740932,-3.186500,0.002000,-0.109448,0.000000
302.000000,0.002000,-0.187368,-0.080481,1.050001,1.196331,-0.562943,-0.015530,1.597444,1.725584,-9.971619,0.002000,-1.181131,0.000000
303.000000,0.002000,-1.946538,-0.226686,-0.935524,1.048795,-1.033853,1.968251,3.135674,0.482459,1.601068,0.002000,0.218944,0.000000
304.000000,0.002000,0.190454,-0.643792,-0.672901,1.374679,-0.106688,-0.752144,-2.775211,8.673240,7.275589,0.002000,0.296683,0.000000
305.000000,0.002000,-0.240188,0.819300,0.300948,1.028412,4.412816,0.405131,3.613412,-11.598822,-4.629573,0.002000,0.261493,0.000000
306.000000,0.002000,-0.444691,0.399676,0.373206,1.644482,-0.565540,-0.151137,10.250081,-8.263214,-9.001330,0.002000,0.159701,0.000000
307.000000,0.002000,-0.104951,0.220230,0.598980,0.841516,2.942907,-0.950893,1.638705,-4.047652,-16.502466,0.002000,0.715044,0.000000
308.000000,0.002000,-0.272937,-1.189402,-0.459732,2.618446,2.576609,0.502578,1.357792,6.815184,2.338211,0.002000,-0.734927,0.000000
309.000000,0.002000,0.465391,1.846868,-0.286475,-0.406447,2.739351,-0.872292,-1.227784,-4.267501,0.549068,0.002000,0.165845,0.000000
310.000000,0.002000,-0.189160,0.060797,-0.822356,1.467639,-2.476554,1.028348,3.389130,0.320228,13.776730,0.002000,1.050001,0.000000
311.000000,0.002000,-1.162875,-0.066286,0.187071,3.769393,-1.229156,1.072306,8.618729,0.996683,-1.305799,0.002000,-0.935524,0.000000
312.000000,0.002000,0.046050,-0.249065,-1.063427,1.879080,1.436294,3.034813,-0.658289,2.536113,9.250774,0.002000,-0.672901,0.000000
313.000000,0.002000,0.047232,1.127460,0.226698,2.358610,1.900941,2.797619,-0.476060,-9.860354,-2.286358,0.002000,0.300948,0.000000
314.000000,0.002000,0.103323,-0.296509,0.626714,-1.849837,1.917078,0.199183,-2.852956,7.019179,-15.102929,0.002000,0.373206,0.000000
315.000000,0.002000,1.979196,-0.852450,0.158571,1.792020,-1.866329,0.074682,-3.051179,1.415650,-0.372812,0.002000,0.598980,0.000000
316.000000,0.002000,-1.118322,-0.275717,0.484437,-0.038880,0.074324,-2.005765,7.135101,2.332497,-3.395668,0.002000,-0.459732,0.000000
317.000000,0.002000,-0.311377,0.456912,-0.119462,2.946794,-1.824206,-3.001006,10.395946,-13.248020,5.298584,0.002000,-0.286475,0.000000
318.000000,0.002000,-0.188918,-0.047121,-0.830929,0.406103,2.329611,0.211336,2.737313,2.146369,12.785202,0.002000,-0.822356,0.000000
319.000000,0.002000,-0.318380,-0.305455,0.275553,0.278434,-0.750365,-2.904659,9.222929,11.539014,-10.025004,0.002000,0.187071,0.000000
320.000000,0.002000,0.766692,-2.103239,2.366834,0.108079,-1.646083,0.385159,-0.456210,1.011560,-1.172612,0.002000,-1.063427,0.000000
321.000000,0.002000,-0.132814,-0.476343,0.074586,-1.051799,1.177523,0.627400,1.828523,18.316597,-1.042351,0.002000,0.226698,0.000000
322.000000,0.002000,0.562031,-0.067752,-0.122767,0.217828,-2.920533,0.147046,-17.043137,3.894284,3.355618,0.002000,0.626714,0.000000
323.000000,0.002000,-0.305650,0.264355,-0.996687,0.004717,0.633505,0.944352,2.673077,-1.613651,9.973050,0.002000,0.158571,0.000000
324.000000,0.002000,0.294708,-0.082099,0.429647,-2.722444,-0.014426,-0.928605,-10.216233,4.076412,-14.574198,0.002000,0.484437,0.000000
325.000000,0.002000,-0.521641,-1.102853,2.119785,-0.655549,-2.335337,-1.361327,0.554641,1.261793,-2.417225,0.002000,-0.119462,0.000000
326.000000,0.002000,0.239969,-0.114313,0.466305,-1.957001,4.670426,-1.596809,-9.109497,4.108909,-15.672191,0.002000,-0.830929,0.000000
327.000000,0.002000,0.032828,-0.089572,-0.373791,1.324350,-0.895717,0.682165,-0.827535,10.427590,17.840512,0.002000,0.275553,0.000000
328.000000,0.002000,-0.096521,0.488297,-0.438478,2.018493,0.629733,-1.245055,2.208729,-12.446408,11.229391,0.002000,2.366834,0.000000
329.000000,0.002000,-0.071978,0.153030,-0.308691,0.297280,0.047242,-2.749270,3.913819,-8.785507,15.684232,0.002000,0.074586,0.000000
330.000000,0.002000,-0.243292,0.082650,0.175067,-0.120458,2.986204,-2.291219,15.433806,-0.728937,-11.131696,0.002000,-0.122767,0.000000
331.000000,0.002000,0.326121,-0.001021,-0.180948,0.368587,-1.715942,1.021998,-17.073638,3.125085,8.498476,0.002000,-0.996687,0.000000
332.000000,0.002000,0.364036,0.594632,-0.217485,-0.438341,-0.508808,-0.397754,-8.277922,-12.754501,4.915883,0.002000,0.429647,0.000000
333.000000,0.002000,-0.704502,0.059907,-0.071018,-2.569172,0.051011,3.379188,14.364399,0.117029,1.878793,0.002000,2.119785,0.000000
334.000000,0.002000,-0.112944,0.109510,-0.656366,1.863612,-1.694358,-2.818435,3.324371,-1.414652,14.346519,0.002000,0.466305,0.000000
335.000000,0.002000,0.091456,0.077864,0.351590,-2.854633,0.878895,2.653434,-6.441490,-0.478055,-19.123776,0.002000,-0.373791,0.000000
336.000000,0.002000,-0.451947,-0.227892,0.022487,1.938713,0.213131,2.612384,7.040179,13.527110,-1.140885,0.002000,-0.438478,0.000000
337.000000,0.002000,-0.043036,-0.331401,0.681524,-0.237806,-2.109771,-1.459241,1.165838,4.180816,-11.010023,0.002000,-0.308691,0.000000
338.000000,0.002000,-1.204479,0.731872,-3.203149,0.869326,1.068768,-1.199520,0.530682,-0.291839,1.411171,0.002000,0.175067,0.000000
339.000000,0.002000,-0.357265,-0.007907,0.000770,0.748098,-2.142700,1.597647,15.044102,-0.299463,-6.472328,0.002000,-0.180948,0.000000
340.000000,0.002000,-0.149155,2.384561,1.106662,-1.558284,-0.805280,-0.571215,0.117390,-2.291806,-1.151792,0.002000,-0.217485,0.000000
341.000000,0.002000,-0.193382,0.612976,-0.083281,-0.175434,0.286905,-0.508975,4.549898,-16.487887,0.610847,0.002000,-0.071018,0.000000
342.000000,0.002000,2.029673,-3.211416,-0.166766,0.088978,-0.060681,-0.995250,-0.704788,1.114845,0.007207,0.002000,-0.656366,0.000000
343.000000,0.002000,-0.571335,0.280603,0.196333,0.675012,3.069334,-2.168029,14.760323,-7.055548,-5.229089,0.002000,0.351590,0.000000
344.000000,0.002000,-0.382794,-0.167223,-0.032310,-0.967755,0.463177,-0.347117,15.103270,9.727156,0.812855,0.002000,0.022487,0.000000
345.000000,0.002000,-0.978086,1.444005,-0.363417,-0.806046,0.179943,0.150015,2.516334,-3.995494,0.986555,0.002000,0.681524,0.000000
346.000000,0.002000,0.523164,-1.487595,1.045738,0.873732,2.601068,-0.020847,-1.147636,3.284085,-2.197767,0.002000,-3.203149,0.000000
347.000000,0.002000,0.182695,-1.287943,-0.468941,-0.480619,1.459239,-2.125536,-1.087248,6.157293,2.221262,0.002000,0.000770,0.000000
348.000000,0.002000,0.267672,-0.269877,-0.342742,0.086134,-1.187989,-0.922043,-9.933183,10.834991,10.097498,0.002000,1.106662,0.000000
349.000000,0.002000,0.444756,-0.089741,0.482514,-0.652412,-3.224482,2.268225,-9.636112,2.888985,-12.935338,0.002000,-0.083281,0.000000
350.000000,0.002000,0.826113,0.564998,0.700619,-0.686572,-1.304491,1.721983,-5.928253,-3.455057,-4.896750,0.002000,-0.166766,0.000000
351.000000,0.002000,1.011190,1.104784,-0.775438,0.519286,0.002117,1.178581,-3.323187,-3.114318,1.902121,0.002000,0.196333,0.000000
352.000000,0.002000,0.601971,2.608614,0.722153,-1.426814,-1.310192,1.582427,-0.672735,-2.268409,-0.781770,0.002000,-0.032310,0.000000
353.000000,0.002000,0.506436,-1.138863,-0.156816,-3.192627,2.252278,-0.681229,-3.160836,7.106703,0.829834,0.002000,-0.363417,0.000000
354.000000,0.002000,-0.086735,0.298580,0.846047,0.201301,1.019828,-0.529404,0.841842,-3.250186,-11.783220,0.002000,1.045738,0.000000
355.000000,0.002000,-0.053178,0.131747,0.005922,0.214320,-0.709396,-1.987362,8.357857,-11.350793,-0.020288,0.002000,-0.468941,0.000000
356.000000,0.002000,0.667291,0.029221,-0.693287,-0.912949,-0.609111,-1.459504,-8.450955,0.069805,7.876518,0.002000,-0.342742,0.000000
357.000000,0.002000,-0.215496,-0.717237,-2.398329,-0.372985,-0.398510,1.331246,0.221110,0.824208,2.592701,0.002000,0.482514,0.000000
358.000000,0.002000,-0.882325,0.781675,0.220585,2.259587,0.528599,2.761372,6.518815,-5.620415,-1.689822,0.002000,0.700619,0.000000
359.000000,0.002000,-0.226180,-0.385248,-0.490075,-2.201182,3.123568,0.401560,5.379954,10.744579,11.691790,0.002000,-0.775438,0.000000
360.000000,0.002000,2.488769,0.094105,-0.131874,0.368237,1.166639,-0.572270,-2.674657,-0.129028,0.093456,0.002000,0.722153,0.000000
361.000000,0.002000,0.093094,0.025258,0.194924,3.476818,-0.486959,0.050930,-5.037140,0.365806,-18.825855,0.002000,-0.156816,0.000000
362.000000,0.002000,0.001872,0.822698,-0.043578,2.530003,0.066756,1.658426,-0.770680,-13.978137,0.748222,0.002000,0.846047,0.000000
363.000000,0.002000,0.328433,0.425671,0.607151,-0.098101,-0.085275,1.302399,-5.722085,-6.894344,-12.037121,0.002000,0.005922,0.000000
364.000000,0.002000,0.500044,-0.302315,-0.145176,0.590298,-3.249716,-0.663170,-16.477637,10.485806,5.663466,0.002000,-0.693287,0.000000
365.000000,0.002000,-0.261236,0.132177,-0.609512,0.353110,-0.954631,5.786835,6.322310,-1.939912,15.875576,0.002000,-2.398329,0.000000
366.000000,0.002000,-0.025394,-0.004648,-0.104310,-1.517714,1.641343,-0.202650,1.258095,7.515248,13.500518,0.002000,0.220585,0.000000
367.000000,0.002000,-0.266047,-0.236462,0.346210,-0.838258,1.210096,-4.335088,8.012499,9.261325,-12.358962,0.002000,-0.490075,0.000000
368.000000,0.002000,0.840374,0.228900,-0.847322,1.199223,-3.635112,0.897642,-5.384731,-2.795489,8.199500,0.002000,-0.131874,0.000000
369.000000,0.002000,-0.370837,-0.134237,-0.249111,1.420143,1.033560,-0.717828,13.357494,8.100904,8.725237,0.002000,0.194924,0.000000
370.000000,0.002000,0.043247,-0.155512,-0.622641,0.840550,2.094662,-2.468824,-1.763383,5.371832,16.634678,0.002000,-0.043578,0.000000
371.000000,0.002000,-0.435547,-0.029445,-0.289687,-3.513353,-2.136979,-2.949418,14.642292,3.103792,11.165506,0.002000,0.607151,0.000000
372.000000,0.002000,-1.395354,-0.489868,3.253287,-0.455487,-0.423881,1.064053,0.571608,0.224582,-1.309515,0.002000,-0.145176,0.000000
373.000000,0.002000,-1.168199,0.583859,0.665945,-2.204799,0.362050,-1.779406,5.023814,-2.419797,-3.183199,0.002000,-0.609512,0.000000
374.000000,0.002000,0.301389,-0.140820,0.116217,-0.239283,-2.663750,-4.910902,-18.341654,8.418147,-7.905152,0.002000,-0.104310,0.000000
375.000000,0.002000,-1.485971,1.357094,-0.605493,-0.112232,1.469854,-1.258328,2.864606,-2.405459,1.317162,0.002000,0.346210,0.000000
376.000000,0.002000,-0.186928,0.097047,0.263360,0.784322,0.600138,-2.986894,8.997523,-1.463750,-16.010613,0.002000,-0.847322,0.000000
377.000000,0.002000,0.237431,-0.107387,-1.290762,1.281761,1.893245,-2.433942,-1.488490,0.662514,7.603464,0.002000,-0.249111,0.000000
378.000000,0.002000,-0.104083,0.294265,-0.392622,-0.816777,2.052395,-5.225902,3.219644,-11.365484,15.598385,0.002000,-0.622641,0.000000
379.000000,0.002000,-0.202820,-0.082408,-0.169581,-0.415658,-0.781307,-1.023663,12.619856,7.559650,8.873067,0.002000,-0.289687,0.000000
380.000000,0.002000,-0.090280,0.341616,-0.212030,1.656429,2.886127,2.061220,0.668613,-15.167168,7.897157,0.002000,3.253287,0.000000
381.000000,0.002000,-3.889735,2.430285,0.219204,-0.249165,0.392360,-0.165094,0.801328,-0.502487,-0.050574,0.002000,0.665945,0.000000
382.000000,0.002000,0.052703,-0.611177,0.342340,2.119546,0.885441,-0.397691,-1.656096,13.399173,-7.611645,0.002000,0.116217,0.000000
383.000000,0.002000,-0.137188,0.141213,-0.382829,2.090607,2.099852,-2.259063,7.371208,-4.901306,18.174372,0.002000,-0.605493,0.000000
384.000000,0.002000,-0.061800,0.816126,-0.303047,0.061465,-1.148882,-1.189315,0.317497,-12.821390,5.028307,0.002000,0.263360,0.000000
385.000000,0.002000,0.541405,-0.728950,-0.424884,0.665427,-0.994360,0.205420,-4.495898,9.021872,3.777102,0.002000,-1.290762,0.000000
386.000000,0.002000,0.114859,-0.632507,-0.574754,0.106473,-0.859199,-0.859346,-2.512882,10.052574,8.347387,0.002000,-0.392622,0.000000
387.000000,0.002000,-0.057856,4.131514,-1.060912,-0.434862,0.209971,0.287279,0.026754,-1.073811,0.347092,0.002000,-0.169581,0.000000
388.000000,0.002000,-0.593719,0.216044,-0.067676,-0.957189,1.193952,0.215778,17.063424,-4.955871,2.403737,0.002000,-0.212030,0.000000
389.000000,0.002000,0.928975,-1.016472,-0.424398,-1.535074,0.063878,-1.950773,-3.880135,4.613642,1.735116,0.002000,0.219204,0.000000
390.000000,0.002000,-0.068526,-0.287933,-0.576347,0.533471,0.170957,-0.841551,1.369489,8.102947,14.343894,0.002000,0.342340,0.000000
391.000000,0.002000,-0.174348,-0.527379,-0.564380,-0.600439,-1.598305,-0.940270,3.093190,9.515371,9.366400,0.002000,-0.382829,0.000000
392.000000,0.002000,-0.766122,0.377384,-0.044691,-0.592911,2.663709,-0.444317,11.054181,-5.271209,0.133637,0.002000,-0.303047,0.000000
393.000000,0.002000,-0.499025,-0.298370,-0.628956,-1.661362,-1.509360,0.359601,7.127746,5.594510,9.254157,0.002000,-0.424884,0.000000
394.000000,0.002000,0.199984,-0.148585,-0.103815,-1.896032,-3.415061,0.336975,-12.070333,8.320250,5.963856,0.002000,-0.574754,0.000000
395.000000,0.002000,0.247006,0.702693,0.811987,-0.367546,-0.401556,0.173944,-2.639493,-5.875455,-7.313460,0.002000,-1.060912,0.000000
396.000000,0.002000,0.076452,0.397166,0.055200,0.425537,-0.306240,-1.870362,-1.357570,-17.387243,-2.179491,0.002000,-0.067676,0.000000
397.000000,0.002000,0.649935,-0.273897,-0.437099,-0.921905,-1.766108,-0.251252,-9.668504,5.055172,6.638389,0.002000,-0.424398,0.000000
398.000000,0.002000,-0.133619,0.070677,0.011818,-5.412401,-3.049906,-0.047135,8.390330,-2.800384,-2.056212,0.002000,-0.576347,0.000000
399.000000,0.002000,1.811500,0.871555,-0.348666,-1.523000,-1.560481,-0.298941,-3.462327,-1.537465,0.677621,0.002000,-0.564380,0.000000
400.000000,0.002000,-0.616047,1.880031,-1.157383,1.364243,0.672986,0.383650,0.830845,-2.715548,1.670448,0.002000,-0.044691,0.000000
401.000000,0.002000,-1.969898,1.349970,0.078387,-2.053828,1.946860,-0.597403,2.542741,-1.751357,-0.147510,0.002000,-0.628956,0.000000
402.000000,0.002000,0.195938,-0.451139,0.167259,-1.021685,0.286658,3.381989,-7.292034,14.536795,-5.780319,0.002000,-0.103815,0.000000
403.000000,0.002000,1.103064,-0.323387,0.432745,3.496741,-0.175654,-0.762350,-7.445919,2.252962,-2.931762,0.002000,0.811987,0.000000
404.000000,0.002000,1.444260,1.096420,-0.979344,0.409182,0.164293,-1.129235,-2.780836,-1.939630,1.764290,0.002000,0.055200,0.000000
405.000000,0.002000,0.166751,0.192256,-0.439119,-1.315574,-1.795024,-2.072909,-7.699228,-4.242338,17.501545,0.002000,-0.437099,0.000000
406.000000,0.002000,0.143710,-0.028272,0.150565,-0.506814,1.521829,-1.906409,-10.248616,5.231835,-12.986628,0.002000,0.011818,0.000000
407.000000,0.002000,-0.373442,0.126290,0.281076,-1.765156,-0.159996,-0.080559,13.222774,-2.591728,-11.276225,0.002000,-0.348666,0.000000
408.000000,0.002000,-0.229657,0.467705,-0.053504,4.641841,-1.228221,0.956202,7.812466,-16.543486,2.395398,0.002000,-1.157383,0.000000
409.000000,0.002000,0.114325,0.431098,0.219894,-0.495698,-1.082171,-1.081869,-3.599035,-14.875659,-7.986684,0.002000,0.078387,0.000000
410.000000,0.002000,-0.629581,-1.526306,-0.699338,-0.228887,-1.844244,0.635086,1.431687,3.809584,1.827475,0.002000,0.167259,0.000000
411.000000,0.002000,-0.979906,-0.726139,-0.251509,1.590623,0.562935,-1.477356,6.068006,4.764266,1.526232,0.002000,0.432745,0.000000
412.000000,0.002000,-0.888228,2.588758,1.040353,-1.353768,1.185620,1.267099,0.619858,-1.853257,-0.792019,0.002000,-0.979344,0.000000
413.000000,0.002000,0.519793,0.040184,-0.403149,1.211324,-0.388913,0.915309,-14.696669,2.332184,9.924730,0.002000,-0.439119,0.000000
414.000000,0.002000,2.191323,-2.664157,0.908461,1.240544,-0.150922,0.825168,-0.882724,1.064782,-0.390058,0.002000,0.150565,0.000000
415.000000,0.002000,0.386196,0.564300,0.208991,-1.271472,-2.987876,0.401392,-10.136815,-11.848142,-4.680823,0.002000,0.281076,0.000000
416.000000,0.002000,-0.239932,-0.497354,0.880683,-1.600809,-1.187012,0.340354,1.850101,5.030653,-8.886538,0.002000,-0.053504,0.000000
417.000000,0.002000,-0.107705,-1.415610,1.298539,-0.297640,-1.824413,0.560509,0.149729,3.121877,-2.690470,0.002000,0.219894,0.000000
418.000000,0.002000,-0.144282,-0.556770,1.191561,0.633632,1.208197,-0.186841,0.590495,3.144375,-6.401673,0.002000,-0.699338,0.000000
419.000000,0.002000,0.945517,0.615907,-3.612370,-1.111582,-1.500793,0.856484,-0.344562,-0.181253,1.319490,0.002000,-0.251509,0.000000
420.000000,0.002000,-1.149435,1.512314,1.135213,-0.294324,-0.087900,-0.475651,1.882312,-2.451480,-1.767784,0.002000,1.040353,0.000000
421.000000,0.002000,0.009254,0.515550,0.233676,0.146835,1.902956,0.304263,0.714267,-13.670130,-9.814008,0.002000,-0.403149,0.000000
422.000000,0.002000,-0.960634,-1.889241,1.217731,-0.024213,-0.678817,0.394403,1.038245,2.147964,-1.351877,0.002000,0.908461,0.000000
423.000000,0.002000,-1.917958,-5.161394,4.034238,-0.087100,0.555439,-0.396888,0.118113,0.320942,-0.251448,0.002000,0.208991,0.000000
424.000000,0.002000,-2.050311,1.583583,-1.835957,-0.492440,1.235029,-0.076611,1.253733,-0.915191,1.053932,0.002000,0.880683,0.000000
425.000000,0.002000,-0.109957,0.152519,-0.413827,-3.177358,1.205295,2.864879,2.859151,-6.752731,20.882876,0.002000,1.298539,0.000000
426.000000,0.002000,0.184305,-0.058436,0.308699,2.866906,-4.187844,-1.693674,-8.599337,4.848460,-12.118341,0.002000,1.191561,0.000000
427.000000,0.002000,0.519365,0.229312,0.238608,0.657297,-4.644724,-1.535709,-14.907465,-4.308759,-6.320726,0.002000,-3.612370,0.000000
428.000000,0.002000,-0.380180,0.589771,-0.142061,1.148741,-0.245041,-2.827292,10.077793,-13.020962,1.689886,0.002000,1.135213,0.000000
429.000000,0.002000,0.475405,0.352137,-0.101678,0.662261,-1.602664,0.144068,-14.711486,-7.706681,2.739382,0.002000,0.233676,0.000000
430.000000,0.002000,0.282106,-0.401074,1.750955,-0.516365,-0.101207,2.179216,-0.275862,1.227374,-4.079626,0.002000,1.217731,0.000000
431.000000,0.002000,0.124866,0.296739,-0.088725,-1.477083,3.031467,1.513042,-10.180279,-21.534136,2.676068,0.002000,4.034238,0.000000
432.000000,0.002000,0.074512,0.154207,-0.132911,4.535297,-3.622492,1.808170,-7.970489,-6.060564,-0.587049,0.002000,-1.835957,0.000000
433.000000,0.002000,-0.272084,-0.173746,0.059611,1.626478,1.153019,3.190873,13.943291,11.780869,-6.040626,0.002000,-0.413827,0.000000
434.000000,0.002000,-2.908704,-0.073806,0.986530,0.296577,1.739854,1.400915,1.857414,0.028026,-0.557414,0.002000,0.308699,0.000000
435.000000,0.002000,-0.111452,-0.414893,0.202843,-1.195669,2.022111,3.235608,1.116817,16.828297,-8.839561,0.002000,0.238608,0.000000
436.000000,0.002000,0.215092,0.398233,-0.507764,-2.609701,0.708276,-2.901492,-6.482832,-8.168037,13.156241,0.002000,-0.142061,0.000000
437.000000,0.002000,-0.016654,0.529878,0.046377,0.322039,1.038903,1.335776,1.581107,-17.077852,-1.614890,0.002000,-0.101678,0.000000
438.000000,0.002000,-0.045298,0.202838,-0.207381,-1.345751,1.776154,-2.330427,4.601892,-13.081999,14.036954,0.002000,1.750955,0.000000
439.000000,0.002000,0.257324,0.121482,0.601952,0.351031,-2.527680,-0.367272,-6.317325,-1.293220,-14.858977,0.002000,-0.088725,0.000000
440.000000,0.002000,0.305062,0.065819,0.306377,-0.789414,-0.858496,3.719821,-12.470695,-0.429070,-13.925588,0.002000,-0.132911,0.000000
441.000000,0.002000,-0.152350,0.771949,-0.294575,-1.667233,-0.504476,-1.733979,1.539005,-13.296235,5.271807,0.002000,0.059611,0.000000
442.000000,0.002000,0.116107,0.311356,0.348246,-2.578804,-0.003598,1.284693,-6.243045,-9.857142,-13.553799,0.002000,0.986530,0.000000
443.000000,0.002000,0.873368,0.764562,0.282251,0.402042,1.207339,-0.426855,-6.585035,-5.387786,-2.180158,0.002000,0.202843,0.000000
444.000000,0.002000,-0.593567,0.530435,-0.188308,-0.287635,-0.246817,0.726033,10.715656,-8.793971,3.090736,0.002000,-0.507764,0.000000
445.000000,0.002000,0.320198,0.101051,0.286513,-0.258837,-0.458251,-0.080631,-13.176381,-2.526116,-12.519340,0.002000,0.046377,0.000000
446.000000,0.002000,0.150108,0.156408,-0.356392,-3.185956,-2.729952,2.499825,-9.657863,-4.383885,16.863429,0.002000,-0.207381,0.000000
447.000000,0.002000,-0.063622,-0.089368,-0.261720,-1.125327,-1.268963,-3.958749,0.853285,8.644989,16.393425,0.002000,0.601952,0.000000
448.000000,0.002000,-0.635964,0.576038,-1.173273,-1.159225,0.666605,1.180769,2.485033,-2.731592,5.417786,0.002000,0.306377,0.000000
449.000000,0.002000,0.286029,0.219177,0.119970,2.577472,-2.317861,0.290372,-14.276877,-7.137086,-5.878120,0.002000,-0.294575,0.000000
450.000000,0.002000,-0.255738,0.720768,-0.774215,-0.588136,-0.570211,2.133135,2.747763,-6.918707,7.865672,0.002000,0.348246,0.000000
451.000000,0.002000,-1.550591,-4.927309,3.518856,-0.689735,0.920262,0.711752,0.118119,0.393581,-0.278541,0.002000,0.282251,0.000000
452.000000,0.002000,0.125824,2.994328,0.690232,1.168372,-2.073625,-0.896347,-0.085175,-1.967218,-0.464558,0.002000,-0.188308,0.000000
453.000000,0.002000,-0.193990,-0.451408,-2.019855,-1.191211,-0.171164,-2.141558,-0.272808,0.492081,3.563705,0.002000,0.286513,0.000000
454.000000,0.002000,0.021891,-0.540842,-0.439953,-1.196536,0.582835,2.607751,-1.105751,12.463814,8.780623,0.002000,-0.356392,0.000000
455.000000,0.002000,-0.381887,0.254645,-0.267488,-2.025203,4.741059,-1.752196,16.420122,-7.278061,11.894528,0.002000,-0.261720,0.000000
456.000000,0.002000,0.182684,-0.121615,0.044504,0.959525,-1.577703,-2.461247,-13.896495,11.862877,-4.863413,0.002000,-1.173273,0.000000
457.000000,0.002000,-0.019422,-0.092677,0.471605,0.950863,-0.207682,4.950488,0.349141,4.090422,-18.022672,0.002000,0.119970,0.000000
458.000000,0.002000,-0.056322,-0.424404,-0.300603,1.185347,-2.362730,1.977523,2.171191,15.034584,9.424093,0.002000,-0.774215,0.000000
459.000000,0.002000,0.451205,-0.053032,-0.947182,2.331530,-2.220810,1.141166,-4.176875,0.852501,9.757847,0.002000,3.518856,0.000000
460.000000,0.002000,-0.016749,0.144889,0.037025,-1.554243,-1.434389,-1.849034,-0.895482,-12.535248,-6.045877,0.002000,0.690232,0.000000
461.000000,0.002000,-1.216303,0.181072,-0.295448,-1.183702,0.820786,2.090310,8.083185,-0.761349,1.727541,0.002000,-2.019855,0.000000
462.000000,0.002000,-0.426127,-0.624807,-0.839922,-1.640807,-0.251205,-0.302294,3.330234,5.543856,7.020699,0.002000,-0.439953,0.000000
463.000000,0.002000,0.705086,-0.333482,-0.161670,-0.174762,-0.390385,-1.861171,-11.288246,7.582345,2.417818,0.002000,-0.267488,0.000000
464.000000,0.002000,-0.751948,0.180462,-0.513170,0.828483,1.589698,-1.808925,9.906843,-1.458126,6.825824,0.002000,0.044504,0.000000
465.000000,0.002000,0.011345,0.082652,-1.217390,0.116979,2.473713,2.369425,-0.434033,-0.414363,8.848859,0.002000,0.471605,0.000000
466.000000,0.002000,-0.963670,0.911223,0.293235,-0.488558,1.500376,3.379538,5.434589,-5.141525,-1.616912,0.002000,-0.300603,0.000000
467.000000,0.002000,0.301172,0.082497,0.191244,-2.975350,1.519908,-0.617149,-14.682419,-3.782366,-11.489065,0.002000,-0.947182,0.000000
468.000000,0.002000,-0.218285,2.044606,-3.005971,-0.764667,-0.031470,0.248338,0.092921,-0.808224,1.195945,0.002000,0.037025,0.000000
469.000000,0.002000,0.327997,-0.014436,0.177310,1.764081,0.656444,-0.550597,-18.265297,2.892221,-9.805644,0.002000,-0.295448,0.000000
470.000000,0.002000,-1.021423,-3.491213,0.539161,-1.063435,-0.424024,0.145270,0.369305,1.309059,-0.180529,0.002000,-0.839922,0.000000
471.000000,0.002000,-0.862082,0.155950,1.059447,0.896990,1.083805,-1.095157,4.115595,-0.471463,-5.637250,0.002000,-0.161670,0.000000
472.000000,0.002000,-1.406898,3.031843,0.694286,-0.615313,-0.131116,-1.246313,0.693881,-1.470411,-0.339336,0.002000,-0.513170,0.000000
473.000000,0.002000,-11.481820,1.412897,9.144665,-1.496091,-0.294712,0.637229,0.071541,-0.008721,-0.057270,0.002000,-1.217390,0.000000
474.000000,0.002000,0.236801,0.512535,-0.489076,2.110308,0.362347,2.697841,-6.448506,-13.598888,6.420244,0.002000,0.293235,0.000000
475.000000,0.002000,0.545304,-0.782044,-0.770719,-1.740809,-0.570072,-0.063094,-3.500652,5.343994,4.828590,0.002000,0.191244,0.000000
476.000000,0.002000,0.175642,-0.802888,0.227478,2.261555,-1.855626,3.315958,-2.533394,12.225132,-3.387176,0.002000,-3.005971,0.000000
477.000000,0.002000,0.498992,0.296030,-0.292581,0.259053,1.050407,3.209744,-13.426416,-8.224101,6.528764,0.002000,0.177310,0.000000
478.000000,0.002000,0.752128,6.654166,-2.880933,-0.310885,-0.411311,0.193485,-0.039719,-0.346141,0.150145,0.002000,0.539161,0.000000
479.000000,0.002000,0.160352,-0.239284,-0.588580,1.649341,-0.837950,2.026050,-5.220066,7.303074,14.656242,0.002000,1.059447,0.000000
480.000000,0.002000,-0.985845,2.237883,1.933887,0.500126,0.419988,-0.126401,0.564357,-1.353257,-1.235113,0.002000,0.694286,0.000000
481.000000,0.002000,0.329541,-1.088429,1.288447,1.457618,0.372616,0.309766,-0.950814,3.149428,-3.587848,0.002000,9.144665,0.000000
482.000000,0.002000,0.397690,1.748578,-0.332597,0.878698,0.965001,1.036614,-0.946009,-4.390570,0.638389,0.002000,-0.489076,0.000000
483.000000,0.002000,9.593727,-3.619255,-1.736525,0.342009,-0.147977,0.035017,-0.169379,0.064534,0.030719,0.002000,-0.770719,0.000000
484.000000,0.002000,0.239112,-0.286864,0.200920,0.759310,0.366785,1.462788,-10.845674,14.085710,-9.313135,0.002000,0.227478,0.000000
485.000000,0.002000,-0.203335,-0.073249,-0.006538,-1.904215,-0.467970,-0.561787,14.560683,10.382230,2.915549,0.002000,-0.292581,0.000000
486.000000,0.002000,0.792813,0.568096,-1.172766,1.403277,1.875085,1.120212,-3.548751,-2.134852,4.734434,0.002000,-2.880933,0.000000
487.000000,0.002000,1.796201,3.062058,-0.808841,-0.387611,0.414776,0.957723,-0.720805,-1.214680,0.335220,0.002000,-0.588580,0.000000
488.000000,0.002000,-0.581719,0.199874,-2.485073,-0.961847,0.767346,-0.652741,0.603463,-0.129702,2.601157,0.002000,1.933887,0.000000
489.000000,0.002000,-0.072164,0.759712,0.637447,-0.698766,1.729163,-1.138535,-0.085239,-7.693687,-8.270288,0.002000,1.288447,0.000000
490.000000,0.002000,-1.287482,-0.455844,0.409188,0.164410,-0.850776,1.144668,6.130451,2.273156,-1.915008,0.002000,-0.332597,0.000000
491.000000,0.002000,-0.181415,-0.111285,-0.072649,2.561730,1.096091,-0.980150,10.838713,10.169106,1.279737,0.002000,-1.736525,0.000000
492.000000,0.002000,0.179013,0.390864,0.200186,0.117669,0.231521,2.329829,-5.582295,-11.610300,-8.803906,0.002000,0.200920,0.000000
493.000000,0.002000,-0.605331,-0.049631,-0.646531,-2.459628,0.543830,0.421356,9.234406,1.489711,9.614964,0.002000,-0.006538,0.000000
494.000000,0.002000,0.023036,-0.050465,-0.294832,-0.291668,-2.573894,-2.461923,-4.440753,11.416600,19.197214,0.002000,-1.172766,0.000000
495.000000,0.002000,0.092110,-0.474227,-0.079884,0.540024,-0.702155,-1.127980,-4.149042,18.832806,2.291838,0.002000,-0.808841,0.000000
496.000000,0.002000,-0.863155,0.116673,0.356064,2.495551,-1.875864,-2.925005,11.128076,0.428717,-4.793326,0.002000,-2.485073,0.000000
497.000000,0.002000,-1.304370,-13.733371,-5.360360,-0.673694,-1.033114,-0.208893,0.007930,0.084153,0.032636,0.002000,0.637447,0.000000
498.000000,0.002000,-0.463366,0.024452,0.060716,-1.313323,-3.049129,1.333669,18.241170,1.049164,-3.675830,0.002000,0.409188,0.000000
499.000000,0.002000,0.363242,1.774242,-1.491834,1.114919,-1.068766,0.593025,-0.399168,-2.317977,1.994644,0.002000,-0.072649,0.000000
500.000000,0.002000,0.066331,0.583428,-0.320108,1.513331,2.947863,0.775058,-1.675368,-14.921023,9.367189,0.002000,0.200186,0.000000
501.000000,0.002000,-0.115817,-0.041991,0.260461,0.159354,-1.696922,-0.296657,4.941976,4.650295,-16.741511,0.002000,-0.646531,0.000000
502.000000,0.002000,-0.837487,-0.434992,0.211090,1.673713,-0.903660,1.012394,9.347438,6.113221,-2.977230,0.002000,-0.294832,0.000000
503.000000,0.002000,-0.124015,0.161637,0.459081,-0.727495,-2.527432,-0.657172,4.012059,-3.352836,-18.242549,0.002000,-0.079884,0.000000
504.000000,0.002000,-0.184349,-0.497385,0.656778,2.271873,-1.764504,1.854469,1.886619,7.633391,-10.214988,0.002000,0.356064,0.000000
505.000000,0.002000,-0.080084,-0.438464,-0.859457,0.432673,1.541179,2.316224,0.793093,5.656334,9.460260,0.002000,-5.360360,0.000000
506.000000,0.002000,0.137484,0.218575,0.336077,-0.309565,-0.746733,-4.213439,-9.489250,-7.696830,-15.590129,0.002000,0.060716,0.000000
507.000000,0.002000,-1.126289,0.316191,-0.127994,0.977471,-0.774590,-1.902218,8.736741,-2.264229,0.705396,0.002000,-1.491834,0.000000
508.000000,0.002000,1.215936,-1.045105,-0.542550,0.037714,-0.256703,1.309756,-3.437278,3.111295,1.515554,0.002000,-0.320108,0.000000
509.000000,0.002000,-0.172499,-1.235103,-0.569947,-0.504777,-0.129579,-1.129154,0.808877,6.455405,2.376988,0.002000,0.260461,0.000000
510.000000,0.002000,-0.108535,2.561475,-2.902776,-0.493037,0.985750,-0.502458,0.047624,-0.846471,0.977968,0.002000,0.211090,0.000000
511.000000,0.002000,5.461946,-2.637738,4.786092,-0.360962,0.669779,0.716568,-0.231522,0.113380,-0.203491,0.002000,0.459081,0.000000
512.000000,0.002000,-0.231768,-0.143700,-0.511870,-2.564749,0.518924,0.536865,7.283246,6.130706,15.678008,0.002000,0.656778,0.000000
513.000000,0.002000,1.494574,0.668714,-3.146216,-0.794789,-0.276715,-0.656005,-0.764523,-0.268129,1.285090,0.002000,-0.859457,0.000000
514.000000,0.002000,-0.362568,-0.425452,0.171058,-3.738171,1.109923,1.141255,9.381908,12.165089,-4.687733,0.002000,0.336077,0.000000
515.000000,0.002000,-0.024382,0.353230,1.796749,0.167949,-0.206526,2.315084,-0.052047,-0.779836,-4.344433,0.002000,-0.127994,0.000000
516.000000,0.002000,0.259933,0.196886,-0.249247,-0.283591,-0.200271,0.666528,-7.325418,-12.160320,15.529981,0.002000,-0.542550,0.000000
517.000000,0.002000,0.048260,-0.325431,-0.365383,1.009958,-3.339996,1.473536,-1.845301,18.797364,8.232253,0.002000,-0.569947,0.000000
518.000000,0.002000,0.237048,0.199130,-0.203101,-0.105580,2.054324,3.348561,-10.918172,-10.138304,8.376607,0.002000,-2.902776,0.000000
519.000000,0.002000,-0.402799,-0.186965,0.164060,0.011383,-0.846371,-0.262015,14.747023,8.207104,-6.080585,0.002000,4.786092,0.000000
520.000000,0.002000,-0.055390,0.333160,-0.261759,-3.496172,-2.611349,0.794134,1.596228,-14.612370,11.904226,0.002000,-0.511870,0.000000
521.000000,0.002000,0.523946,-0.695692,-0.668155,1.504397,1.773818,-0.496999,-4.468769,5.999434,5.286014,0.002000,-3.146216,0.000000
522.000000,0.002000,-0.296658,0.037820,-0.084597,1.149162,-2.703393,0.807189,13.745282,0.427826,2.732304,0.002000,0.171058,0.000000
523.000000,0.002000,0.643908,-0.640587,-0.463248,1.654198,-1.011174,1.260161,-6.591905,6.448251,4.306612,0.002000,1.796749,0.000000
524.000000,0.002000,1.965356,1.727978,0.307474,0.117864,0.048131,0.141468,-1.949272,-1.595518,-0.341028,0.002000,-0.249247,0.000000
525.000000,0.002000,-0.086738,-0.046791,0.589447,-1.221347,-0.551633,-5.119928,2.201965,1.669019,-16.675732,0.002000,-0.365383,0.000000
526.000000,0.002000,0.391803,-0.068857,0.762112,1.758100,1.509207,1.438455,-4.174772,1.978598,-10.114365,0.002000,-0.203101,0.000000
527.000000,0.002000,0.293945,-0.132542,-0.699485,-2.089494,0.163066,-0.144618,-5.471130,4.267890,12.815419,0.002000,0.164060,0.000000
528.000000,0.002000,1.201918,-0.259883,-0.145930,-1.425306,1.416365,-3.486964,-7.931460,1.811559,0.720251,0.002000,-0.261759,0.000000
529.000000,0.002000,-0.496950,0.377402,0.209720,-1.210391,-1.188551,2.461387,14.104144,-8.653347,-6.073391,0.002000,-0.668155,0.000000
530.000000,0.002000,-0.811055,0.680673,0.226604,-4.738479,-1.187136,-0.647565,7.595407,-6.291338,-2.349221,0.002000,-0.084597,0.000000
531.000000,0.002000,-0.247288,0.339773,-1.619655,0.991590,0.228634,-0.778512,0.711271,-1.093718,5.071079,0.002000,-0.463248,0.000000
532.000000,0.002000,-1.902460,0.090652,0.184731,0.278468,1.420707,1.776123,4.300360,-0.081477,-0.457646,0.002000,0.307474,0.000000
533.000000,0.002000,0.332848,0.449162,-0.653956,-3.601552,2.599998,-0.991804,-5.403482,-6.656548,10.203953,0.002000,0.589447,0.000000
534.000000,0.002000,-0.123010,-0.137757,-0.422817,-1.941028,-0.147690,-1.015352,4.507850,7.721740,17.441789,0.002000,0.762112,0.000000
535.000000,0.002000,0.909838,1.964522,0.237445,0.720388,1.751209,0.016643,-1.591726,-2.931684,-0.225171,0.002000,-0.699485,0.000000
536.000000,0.002000,0.046730,0.192880,0.030040,5.761382,0.606425,2.933311,-5.562597,-11.268549,-4.843101,0.002000,-0.145930,0.000000
537.000000,0.002000,0.747869,0.531636,0.746527,-1.144611,-2.493516,0.660305,-5.650931,-3.460434,-5.993730,0.002000,0.209720,0.000000
538.000000,0.002000,-0.868041,-3.464891,1.033078,-0.294064,0.288792,0.157719,0.310051,1.252717,-0.362049,0.002000,0.226604,0.000000
539.000000,0.002000,1.181381,0.445448,-1.806640,0.906280,1.055844,0.520369,-1.860927,-0.612514,2.832664,0.002000,-1.619655,0.000000
540.000000,0.002000,-0.297320,0.355197,-0.099317,-3.660418,-0.439972,-1.499344,11.570468,-16.138209,3.347822,0.002000,0.184731,0.000000
541.000000,0.002000,1.328223,-0.718297,-1.467232,0.971824,-0.092370,-0.595718,-2.252757,1.421239,2.374676,0.002000,-0.653956,0.000000
542.000000,0.002000,0.696242,-0.000397,0.266274,-0.750349,0.520054,3.480110,-10.741981,1.078442,-6.271812,0.002000,-0.422817,0.000000
543.000000,0.002000,-0.238905,-0.202604,0.060233,2.801321,1.436625,2.744960,11.810268,14.733227,2.552057,0.002000,0.237445,0.000000
544.000000,0.002000,-0.287303,0.362051,-0.181385,-0.540721,-2.708577,2.356132,11.265552,-12.299889,6.433919,0.002000,0.030040,0.000000
545.000000,0.002000,0.080370,0.640453,-0.113294,-2.896127,-3.614962,2.495900,-2.637774,-15.497302,4.062778,0.002000,0.746527,0.000000
546.000000,0.002000,0.171900,-0.204887,0.247044,-3.014333,0.857709,0.671832,-8.329921,13.446834,-12.885233,0.002000,1.033078,0.000000
547.000000,0.002000,-0.221296,0.078848,0.034627,-2.027504,-0.688649,3.636361,14.612252,-2.179213,-6.196955,0.002000,-1.806640,0.000000
548.000000,0.002000,2.271413,1.187347,-0.357409,-0.581148,-0.744954,-0.228932,-2.316975,-1.104932,0.348104,0.002000,-0.099317,0.000000
549.000000,0.002000,-0.366659,1.150782,-0.701588,3.683767,-0.463259,-0.164204,1.905930,-6.126254,3.803544,0.002000,-1.467232,0.000000
550.000000,0.002000,0.235298,-0.757608,0.380288,-0.426515,-1.369011,-1.425712,-3.247649,12.946591,-5.930997,0.002000,0.266274,0.000000
551.000000,0.002000,-0.064142,1.368569,3.682666,0.873360,0.675518,0.506646,0.008824,-0.404277,-1.162251,0.002000,0.060233,0.000000
552.000000,0.002000,-0.204874,0.373590,-0.711083,1.184411,-0.494049,-2.290216,3.031912,-5.995390,12.163624,0.002000,-0.181385,0.000000
553.000000,0.002000,-0.109029,0.067020,0.989650,-2.825210,1.945695,2.456335,0.826191,-0.651158,-10.202277,0.002000,-0.113294,0.000000
554.000000,0.002000,-0.129110,-0.085906,-0.285740,-0.368097,1.584001,0.254224,9.616032,9.581986,18.217129,0.002000,0.247044,0.000000
555.000000,0.002000,-0.371114,0.628932,0.207994,-2.916898,1.397312,0.993894,8.782607,-12.909034,-5.016352,0.002000,0.034627,0.000000
556.000000,0.002000,-0.469401,0.437893,0.569103,-2.006231,0.480017,3.160863,6.655627,-5.086465,-11.973924,0.002000,-0.357409,0.000000
557.000000,0.002000,0.764367,0.134050,0.367425,-1.089710,0.059081,1.251759,-11.294860,-1.193375,-5.627951,0.002000,-0.701588,0.000000
558.000000,0.002000,0.247738,-0.643561,0.109673,-2.419593,-1.719232,-4.268443,-5.585119,14.283104,-1.523937,0.002000,0.380288,0.000000
559.000000,0.002000,-1.176902,-0.769352,-0.128009,-1.227990,0.901923,-2.716735,5.337940,3.846920,0.476745,0.002000,3.682666,0.000000
560.000000,0.002000,0.035026,1.503505,-1.976324,0.074102,1.120116,1.877952,-0.008087,-1.686328,2.245557,0.002000,-0.711083,0.000000
561.000000,0.002000,-0.527340,-0.018373,0.462275,1.025459,-1.472106,-1.856546,11.075110,1.924449,-10.826187,0.002000,0.989650,0.000000
562.000000,0.002000,-1.752022,-0.821920,0.009617,-2.207860,2.291719,0.088681,3.758303,1.904248,-0.145142,0.002000,-0.285740,0.000000
563.000000,0.002000,-1.607052,0.922137,1.160591,0.281106,0.220295,-1.592246,2.598975,-1.369799,-1.970527,0.002000,0.207994,0.000000
564.000000,0.002000,-0.598134,1.623544,-1.235090,1.739535,-0.274383,-0.454389,0.926481,-2.740221,2.207436,0.002000,0.569103,0.000000
565.000000,0.002000,-3.460046,-0.058175,0.151643,-0.423487,0.769124,0.482796,1.598226,0.032837,-0.085991,0.002000,0.367425,0.000000
566.000000,0.002000,0.726315,0.297742,-0.971233,2.198595,-0.686354,-1.215990,-5.083420,-1.429415,6.005938,0.002000,0.109673,0.000000
567.000000,0.002000,1.057509,0.585253,-1.348973,0.809610,0.943688,-2.501395,-2.835707,-1.370555,3.488438,0.002000,-0.128009,0.000000
568.000000,0.002000,0.222040,0.211227,0.032817,2.787833,1.734752,2.279334,-13.507676,-9.531765,-3.870680,0.002000,-1.976324,0.000000
569.000000,0.002000,-0.510495,0.914265,1.283812,0.693075,-1.654848,1.067891,1.489435,-2.928915,-4.082569,0.002000,0.462275,0.000000
570.000000,0.002000,-3.576940,-0.475514,-2.057032,-0.126157,-0.535105,0.267245,0.961129,0.144297,0.571129,0.002000,0.009617,0.000000
571.000000,0.002000,-0.293876,-0.481570,0.163310,1.017321,-0.672230,-3.315055,7.690047,15.236149,-4.670002,0.002000,1.160591,0.000000
572.000000,0.002000,-2.381145,0.652776,0.007047,0.428232,0.755052,0.779581,2.817462,-0.741387,-0.014366,0.002000,-1.235090,0.000000
573.000000,0.002000,0.016794,-0.336650,0.175881,-0.257798,-0.466973,-0.740051,-3.128308,16.749728,-9.398204,0.002000,0.151643,0.000000
574.000000,0.002000,-0.408861,0.411035,0.477325,4.040532,0.593680,2.210776,7.120574,-7.104575,-11.115622,0.002000,-0.971233,0.000000
575.000000,0.002000,-0.345968,0.470329,0.184428,5.260943,-0.133918,-2.122967,9.921095,-13.496087,-6.482708,0.002000,-1.348973,0.000000
576.000000,0.002000,0.383812,0.068905,0.495166,0.162910,-2.331862,2.180749,-8.802826,-0.151238,-14.041273,0.002000,0.032817,0.000000
577.000000,0.002000,0.642940,-0.073833,-0.053123,-0.464913,1.246790,3.340034,-16.750636,2.334672,0.392833,0.002000,1.283812,0.000000
578.000000,0.002000,0.631984,1.662084,3.622775,0.442383,0.506622,-1.147296,-0.190966,-0.473694,-1.065614,0.002000,-2.057032,0.000000
579.000000,0.002000,0.097703,2.325561,0.366152,-0.062844,-1.145667,-1.188655,-0.148105,-3.115475,-0.487123,0.002000,0.163310,0.000000
580.000000,0.002000,-0.707390,0.493999,-0.526584,2.324276,-2.515177,0.527506,7.757153,-5.067568,6.753168,0.002000,0.007047,0.000000
581.000000,0.002000,-0.374160,0.937598,-0.166242,2.354653,-1.016720,-1.373354,4.463556,-11.080158,1.819502,0.002000,0.175881,0.000000
582.000000,0.002000,1.907234,-1.675236,-0.263407,-1.008426,1.352643,0.794415,-1.983384,1.743477,0.193379,0.002000,0.477325,0.000000
583.000000,0.002000,-0.102517,-1.106470,-2.698623,-1.822115,-1.893658,0.923344,0.056751,0.828005,1.953521,0.002000,0.184428,0.000000
584.000000,0.002000,0.253026,-0.109627,-0.484390,-0.952744,1.319930,-2.872414,-9.546357,5.505177,14.424436,0.002000,0.495166,0.000000
585.000000,0.002000,-0.123652,0.636014,-0.430958,-3.641257,-2.037063,2.581215,2.071945,-12.800319,8.709872,0.002000,-0.053123,0.000000
586.000000,0.002000,0.010761,-0.092871,0.107685,-2.173042,-0.103227,3.451010,-0.916866,7.376918,-14.861211,0.002000,3.622775,0.000000
587.000000,0.002000,0.170424,-1.009550,0.705838,-2.103274,2.119451,-1.600548,-0.784646,6.653208,-4.571270,0.002000,0.366152,0.000000
588.000000,0.002000,-0.284657,0.875816,-0.555932,0.033631,-2.513890,0.011842,1.484196,-10.778144,9.159007,0.002000,-0.526584,0.000000
589.000000,0.002000,0.383351,-1.136094,-0.084399,1.456597,-1.763432,1.753058,-2.301777,7.714789,0.539174,0.002000,-0.166242,0.000000
590.000000,0.002000,-0.894692,-1.621696,-0.091551,-1.444933,-1.277235,-1.549542,1.853852,3.890026,0.142692,0.002000,-0.263407,0.000000
591.000000,0.002000,0.019541,0.038638,-0.091637,-1.720230,-2.849357,2.784055,-4.163711,1.028551,7.009013,0.002000,-2.698623,0.000000
592.000000,0.002000,0.606519,0.046270,0.166739,0.738920,0.416943,-0.346052,-15.207018,-1.275657,-5.496078,0.002000,-0.484390,0.000000
593.000000,0.002000,0.077218,1.696700,0.150783,0.852254,3.145711,-0.084029,-0.162198,-5.236897,-0.330521,0.002000,-0.430958,0.000000
594.000000,0.002000,0.226788,0.554222,0.545738,1.169294,4.119016,-2.438520,-6.175559,-7.393478,-8.623649,0.002000,0.107685,0.000000
595.000000,0.002000,-0.609664,0.202672,-0.016867,-1.568373,-1.145709,-0.319881,17.567519,-3.397087,-0.313890,0.002000,0.705838,0.000000
596.000000,0.002000,1.049209,1.330068,-1.256774,-1.931663,-0.728651,1.439160,-1.855703,-2.321564,2.185318,0.002000,-0.555932,0.000000
597.000000,0.002000,-0.557936,-0.143387,-0.355020,0.875321,-5.019690,-0.520334,13.043678,5.963456,9.885741,0.002000,-0.084399,0.000000
598.000000,0.002000,-0.332058,0.261192,-0.533831,-0.588846,-1.513048,-2.253307,7.811020,-6.936737,13.804247,0.002000,-0.091551,0.000000
599.000000,0.002000,-0.296472,-0.596905,-1.232877,-1.380187,-0.266762,1.449684,1.476507,3.212406,5.872131,0.002000,-0.091637,0.000000
600.000000,0.002000,-0.404198,-0.594102,-0.167211,2.060169,1.890971,1.851513,7.003136,12.947805,3.140145,0.002000,0.166739,0.000000
601.000000,0.002000,-0.266774,0.174312,-0.985983,1.738662,-2.427849,-0.886319,2.977543,-1.403114,10.855333,0.002000,0.150783,0.000000
602.000000,0.002000,0.585138,-0.234222,-0.260147,-2.524477,0.692963,2.114797,-13.555604,6.302543,5.507270,0.002000,0.545738,0.000000
603.000000,0.002000,-0.199989,0.860677,0.621077,3.520593,1.582776,1.931587,2.050273,-8.046382,-6.193787,0.002000,-0.016867,0.000000
604.000000,0.002000,-0.366898,0.532037,0.152274,2.584007,-1.008893,0.270142,9.130011,-12.496500,-1.875254,0.002000,-1.256774,0.000000
605.000000,0.002000,-0.180333,0.448975,0.402229,2.159546,1.948898,1.562580,6.475489,-12.181242,-10.007038,0.002000,-0.355020,0.000000
606.000000,0.002000,-0.766247,-0.234841,0.449056,1.796970,-4.698867,1.133969,9.327615,3.917961,-6.589481,0.002000,-0.533831,0.000000
607.000000,0.002000,-0.038062,0.531634,-0.902088,1.634848,1.826642,0.094572,0.107871,-5.003005,9.507518,0.002000,-1.232877,0.000000
608.000000,0.002000,-0.291213,0.458607,-0.069466,0.499167,-1.573774,1.951556,9.761743,-15.187962,0.438203,0.002000,-0.167211,0.000000
609.000000,0.002000,-0.077347,-1.707071,0.326697,-0.769144,1.163096,-0.763586,0.026654,4.559490,-0.677523,0.002000,-0.985983,0.000000
610.000000,0.002000,-0.528950,-0.025725,-0.300227,-0.379858,2.241430,1.029467,14.383004,3.121270,8.604655,0.002000,-0.260147,0.000000
611.000000,0.002000,-0.169176,-0.498107,-0.486858,0.375687,2.517983,-0.678753,3.552795,11.871499,9.494379,0.002000,0.621077,0.000000
612.000000,0.002000,-0.334836,0.123907,-0.329479,-1.878014,-0.743163,1.025315,14.887955,-1.634589,17.770172,0.002000,0.152274,0.000000
613.000000,0.002000,-0.129188,-0.021408,-0.010166,2.889282,2.290347,0.424322,6.084560,0.446731,-4.078939,0.002000,0.402229,0.000000
614.000000,0.002000,0.200591,0.341493,0.571752,1.752657,-0.885291,-2.141109,-4.814750,-5.815962,-13.156640,0.002000,0.449056,0.000000
615.000000,0.002000,0.008086,0.384698,0.147436,2.894287,0.087559,3.949611,-0.263565,-15.992118,-7.556095,0.002000,-0.902088,0.000000
616.000000,0.002000,0.731349,0.202748,0.250876,-1.239338,0.059976,2.449744,-12.293372,-2.228268,-4.372584,0.002000,-0.069466,0.000000
617.000000,0.002000,-0.143869,-0.162111,-0.403178,-1.572064,0.421518,-2.780057,6.485067,10.513537,15.760819,0.002000,0.326697,0.000000
618.000000,0.002000,-0.151293,0.113172,0.066217,-0.545531,0.515689,-3.125716,11.537964,-7.374910,-4.571451,0.002000,-0.300227,0.000000
619.000000,0.002000,0.703998,0.291581,-1.038939,2.420554,0.688418,-2.983154,-4.435634,-1.019605,6.668840,0.002000,-0.486858,0.000000
620.000000,0.002000,-0.220807,0.231439,-0.098251,-3.308802,2.736079,-2.933956,10.534656,-11.434080,6.046358,0.002000,-0.329479,0.000000
621.000000,0.002000,0.423956,0.903755,0.176269,-0.956715,0.564648,-1.662098,-5.698988,-9.963536,-2.300466,0.002000,-0.010166,0.000000
622.000000,0.002000,-0.926046,0.707989,-0.270648,0.410393,0.831552,-2.043365,7.087078,-5.284518,1.859735,0.002000,0.571752,0.000000
623.000000,0.002000,0.279426,-0.030146,-0.199829,-1.328368,0.376200,1.234701,-14.553930,5.108700,10.191142,0.002000,0.147436,0.000000
624.000000,0.002000,0.454157,0.084642,-0.002509,-1.144171,1.575510,-0.185252,-17.804837,-3.208247,-2.598023,0.002000,0.250876,0.000000
625.000000,0.002000,0.646142,-0.850941,-1.976744,-0.380278,1.435360,1.920021,-0.923965,1.326839,2.881046,0.002000,-0.403178,0.000000
626.000000,0.002000,0.290209,0.165199,-0.083428,-2.594533,2.287406,-3.165641,-14.923918,-2.546157,1.642870,0.002000,0.066217,0.000000
627.000000,0.002000,0.381620,0.344543,-0.127227,1.586691,0.062307,1.873272,-15.047613,-12.113338,3.647662,0.002000,-1.038939,0.000000
628.000000,0.002000,0.121770,-0.078124,0.633015,-1.336755,1.730716,0.706469,-3.760474,0.937420,-16.357565,0.002000,-0.098251,0.000000
629.000000,0.002000,0.522652,-0.167825,0.912112,2.044365,-0.973464,-1.104232,-5.429636,1.883053,-7.667713,0.002000,0.176269,0.000000
630.000000,0.002000,0.726730,0.236667,-0.347666,-1.059589,-0.156035,0.049409,-12.416143,-4.061013,4.895424,0.002000,-0.270648,0.000000
631.000000,0.002000,0.037006,2.762848,0.773314,-0.540108,-0.033181,-0.206043,0.000094,-2.148905,-0.655024,0.002000,-0.199829,0.000000
632.000000,0.002000,-0.635309,-0.026925,0.008331,0.665028,1.716561,-0.535417,17.250531,1.974159,-0.762557,0.002000,-0.002509,0.000000
633.000000,0.002000,-2.274946,2.799307,-1.066209,0.307722,0.696915,-0.811615,0.837450,-1.027761,0.396694,0.002000,-1.976744,0.000000
634.000000,0.002000,0.203957,0.323902,-0.326484,-2.852281,2.244289,-1.636353,-9.986869,-14.330813,12.571253,0.002000,-0.083428,0.000000
635.000000,0.002000,-0.692279,0.104542,-0.637401,0.621896,1.312043,0.230798,8.983313,-0.333031,8.848197,0.002000,-0.127227,0.000000
636.000000,0.002000,0.310019,-0.371572,-0.330528,-0.352905,-0.169933,1.574603,-9.072552,11.505811,8.399237,0.002000,0.633015,0.000000
637.000000,0.002000,0.426985,0.574299,-1.884504,0.789361,0.964400,-1.147202,-0.866992,-1.031686,3.675886,0.002000,0.912112,0.000000
638.000000,0.002000,-0.695823,-0.786872,-0.567431,-1.456412,-2.761653,-1.226918,4.321721,6.117738,3.726643,0.002000,-0.347666,0.000000
639.000000,0.002000,-0.592103,0.095144,-0.152754,3.935950,-0.821209,-2.412199,17.622816,-2.498078,3.454713,0.002000,0.773314,0.000000
640.000000,0.002000,-0.262945,-0.097481,-0.319971,-1.893892,-1.715097,-2.810899,12.094403,7.992400,13.362869,0.002000,0.008331,0.000000
641.000000,0.002000,-0.397711,0.367838,-0.430855,-0.132295,-0.760583,-3.815008,6.367282,-8.944988,9.471794,0.002000,-1.066209,0.000000
642.000000,0.002000,0.129694,-0.214246,0.416783,-0.056940,1.288236,-1.157875,-3.315416,7.926050,-14.973855,0.002000,-0.326484,0.000000
643.000000,0.002000,0.263173,0.876714,0.363389,4.513158,-0.739613,-0.769316,-4.086005,-11.461280,-4.922373,0.002000,-0.637401,0.000000
644.000000,0.002000,0.215156,-0.203032,-0.257723,2.320854,3.860931,-2.477534,-13.191492,13.052331,12.243403,0.002000,-0.330528,0.000000
645.000000,0.002000,-0.136476,-0.236420,-0.062586,-1.981167,0.763176,1.561686,11.798586,12.719986,0.389310,0.002000,-1.884504,0.000000
646.000000,0.002000,0.651051,0.919314,1.328430,1.501261,1.371703,1.915993,-1.944015,-2.376370,-3.729304,0.002000,-0.567431,0.000000
647.000000,0.002000,1.088279,-1.081052,0.763220,0.102956,0.088597,1.773988,-2.873711,2.993880,-2.150963,0.002000,-0.152754,0.000000
648.000000,0.002000,0.744269,0.576350,-0.240672,2.429111,-1.116312,-0.045689,-9.231819,-5.940939,2.414419,0.002000,-0.319971,0.000000
649.000000,0.002000,-0.026878,0.094764,-0.283179,0.071026,1.369054,-1.647314,-0.695201,2.614207,17.469716,0.002000,-0.430855,0.000000
650.000000,0.002000,-1.563646,1.059656,0.657662,-2.634109,-1.493451,1.029766,2.983375,-2.294220,-1.453991,0.002000,0.416783,0.000000
651.000000,0.002000,1.349693,0.938904,3.434490,-0.593524,0.476859,0.850150,-0.464665,-0.294565,-1.172482,0.002000,0.363389,0.000000
652.000000,0.002000,0.644172,0.212461,-0.454869,0.097750,2.183089,1.350638,-11.325567,-3.070911,7.328348,0.002000,-0.257723,0.000000
653.000000,0.002000,-0.591228,0.634411,-2.129298,-0.035597,0.248498,2.133066,0.803014,-0.835438,2.951537,0.002000,-0.062586,0.000000
654.000000,0.002000,-0.471681,-0.522877,-1.454736,-1.631509,0.348838,-1.324259,1.655670,2.011302,4.954810,0.002000,1.328430,0.000000
655.000000,0.002000,-1.289827,-0.225023,-0.628266,-0.076500,-3.102253,-1.241746,5.856036,1.746350,3.111888,0.002000,0.763220,0.000000
656.000000,0.002000,1.538079,-0.103652,-0.403543,0.363100,-0.040214,0.591786,-5.265370,0.566932,1.231496,0.002000,-0.240672,0.000000
657.000000,0.002000,0.550018,0.147693,-0.226908,0.620369,-0.672916,2.085585,-17.202561,-1.240944,4.789308,0.002000,-0.283179,0.000000
658.000000,0.002000,-0.182187,-0.123436,0.680780,-0.179456,0.061560,-1.218396,3.816063,3.589740,-14.143001,0.002000,0.657662,0.000000
659.000000,0.002000,-0.116023,0.404560,1.375988,1.352002,0.278774,-2.618508,0.440266,-1.622359,-6.501401,0.002000,3.434490,0.000000
660.000000,0.002000,-0.419956,-0.403465,-0.246129,-0.174214,0.679730,2.279341,9.880312,11.613061,5.878321,0.002000,-0.454869,0.000000
661.000000,0.002000,-0.325373,-0.054241,-0.132648,-2.804375,3.430454,2.487750,12.362003,11.224138,8.824165,0.002000,-2.129298,0.000000
662.000000,0.002000,2.071434,0.102187,0.304442,0.552610,0.741257,1.561619,-3.533118,-0.026047,-0.648794,0.002000,-1.454736,0.000000
663.000000,0.002000,-1.264140,-0.207771,-0.006711,2.371411,0.584534,1.544378,7.716239,1.769413,-0.106094,0.002000,-0.628266,0.000000
664.000000,0.002000,-0.530720,0.084355,0.478341,0.534672,-0.994291,-0.592195,12.166875,-0.269283,-11.550969,0.002000,-0.403543,0.000000
665.000000,0.002000,-0.657638,-0.477319,-0.326753,-0.945873,1.154964,0.587238,9.084781,7.860090,4.364242,0.002000,-0.226908,0.000000
666.000000,0.002000,-0.190130,-0.046502,0.758171,-0.682673,0.755095,2.371569,2.836809,1.519642,-13.692384,0.002000,0.680780,0.000000
667.000000,0.002000,0.100862,-0.073948,0.437420,-1.812870,-1.909534,-2.835339,-3.222947,4.574571,-18.709821,0.002000,1.375988,0.000000
668.000000,0.002000,-1.231899,0.105174,-0.787698,1.452790,-0.566681,0.252487,5.463955,-0.407016,3.744694,0.002000,-0.246129,0.000000
669.000000,0.002000,-0.098755,0.420549,0.314962,4.821958,-1.045747,0.242307,2.004102,-12.899621,-12.607563,0.002000,-0.132648,0.000000
670.000000,0.002000,0.119671,0.006323,-0.127969,-1.852822,-2.351340,-0.135182,-11.382669,4.556533,9.839224,0.002000,0.304442,0.000000
671.000000,0.002000,-0.063837,-1.453243,0.011230,0.517142,-0.244801,0.930320,0.264073,6.181901,-0.132064,0.002000,-0.006711,0.000000
672.000000,0.002000,0.062546,-0.479408,-0.094517,-1.172217,0.174280,0.194920,-1.543401,19.471182,3.062292,0.002000,0.478341,0.000000
673.000000,0.002000,-1.781740,2.021670,1.567616,-0.064514,1.290006,-2.397744,1.122055,-1.207677,-0.982516,0.002000,-0.326753,0.000000
674.000000,0.002000,-1.132363,2.831774,-1.174247,0.601088,-0.079950,0.928962,0.599265,-1.568639,0.628075,0.002000,0.758171,0.000000
675.000000,0.002000,-0.086655,1.865448,-0.391767,-1.359233,0.711147,-1.090302,0.232326,-4.573221,1.110920,0.002000,0.437420,0.000000
676.000000,0.002000,-0.276964,-0.096717,0.120825,-1.825053,-1.617670,-2.317803,13.756166,6.143401,-8.063218,0.002000,-0.787698,0.000000
677.000000,0.002000,-0.236915,0.032823,-0.384591,1.156735,0.213348,-1.644766,9.882155,0.097606,17.805198,0.002000,0.314962,0.000000
678.000000,0.002000,0.087615,-0.205055,0.195467,-0.589333,1.216834,2.976782,-4.538507,10.069190,-14.385224,0.002000,-0.127969,0.000000
679.000000,0.002000,1.330841,2.127083,0.923178,0.866880,0.628742,-0.037617,-1.300451,-1.892104,-0.928419,0.002000,0.011230,0.000000
680.000000,0.002000,-1.081964,0.598315,-2.507423,0.012182,-0.831101,1.368679,0.835656,-0.446639,2.106442,0.002000,-0.094517,0.000000
681.000000,0.002000,0.786101,-0.433921,0.842386,-1.495943,0.124632,-0.911156,-4.993467,3.060400,-5.451124,0.002000,1.567616,0.000000
682.000000,0.002000,-0.183697,-0.065337,0.002143,1.255317,2.175634,1.053891,6.210751,7.492319,-1.681811,0.002000,-1.174247,0.000000
683.000000,0.002000,2.560173,0.374225,-1.490079,-0.989987,-0.207946,0.920265,-1.709652,-0.177812,0.999377,0.002000,-0.391767,0.000000
684.000000,0.002000,-1.498506,0.908845,-0.556214,-1.238020,0.525220,-0.299922,3.898365,-2.276556,1.567288,0.002000,0.120825,0.000000
685.000000,0.002000,0.480919,-0.278278,-0.119547,1.922767,2.615665,1.518208,-13.049021,6.300979,1.009014,0.002000,-0.384591,0.000000
686.000000,0.002000,0.151805,0.552047,0.065262,-0.617772,-1.229225,2.888284,-5.104076,-14.867645,-1.607809,0.002000,0.195467,0.000000
687.000000,0.002000,-0.128867,0.748946,-4.419942,-0.082407,-0.632369,-0.784464,0.030263,-0.147004,0.969138,0.002000,0.923178,0.000000
688.000000,0.002000,0.394142,1.303670,0.005554,0.763483,0.256307,1.811298,-2.360903,-7.252748,0.015143,0.002000,-2.507423,0.000000
689.000000,0.002000,1.928849,-0.944572,0.826593,-1.578910,1.557194,-0.313361,-2.506371,1.246548,-1.151085,0.002000,0.842386,0.000000
690.000000,0.002000,1.839838,-0.527204,1.243892,0.756397,0.129633,1.344659,-2.456636,0.719584,-1.645205,0.002000,0.002143,0.000000
691.000000,0.002000,0.290295,-1.019866,0.592509,1.899979,-2.807246,1.976343,-2.196184,6.706957,-3.569205,0.002000,-1.490079,0.000000
692.000000,0.002000,-0.210749,0.287888,-0.154155,-0.517143,-2.784590,0.631645,7.040248,-13.073942,7.891047,0.002000,-0.556214,0.000000
693.000000,0.002000,0.110099,0.159088,-0.351498,-1.366972,-0.886536,-3.601799,-6.707274,-5.251536,16.627983,0.002000,-0.119547,0.000000
694.000000,0.002000,-0.507993,-0.276162,-0.128644,-4.048200,0.785870,-1.713915,13.041826,9.624544,4.485535,0.002000,0.065262,0.000000
695.000000,0.002000,-1.292030,-0.674175,0.322114,-0.828903,-2.937966,0.341774,5.309279,3.140336,-1.270851,0.002000,-4.419942,0.000000
696.000000,0.002000,1.357575,-1.338238,1.189922,-0.235476,-0.343678,0.388305,-1.866589,1.860953,-1.639571,0.002000,0.005554,0.000000
697.000000,0.002000,-1.658587,1.975474,-1.590973,0.042628,1.756837,-0.577756,1.085838,-1.337820,1.021873,0.002000,0.826593,0.000000
698.000000,0.002000,-0.027331,0.403698,-0.037491,0.938189,1.359827,0.288208,2.763096,-18.054604,0.378407,0.002000,1.243892,0.000000
699.000000,0.002000,-0.462445,0.185139,0.022990,4.379918,0.343057,-0.914226,19.288850,-6.230953,-2.652133,0.002000,0.592509,0.000000
700.000000,0.002000,-1.120537,0.013414,0.294749,-0.525781,1.499237,2.778003,8.880608,0.490584,-2.171140,0.002000,-0.154155,0.000000
701.000000,0.002000,-0.116241,0.018789,-0.114627,-1.842680,1.018278,-0.178515,9.656867,3.335693,7.076007,0.002000,-0.351498,0.000000
702.000000,0.002000,1.769277,-0.704041,0.686840,1.347093,-1.488586,-1.052214,-3.186212,1.281089,-1.291819,0.002000,-0.128644,0.000000
703.000000,0.002000,-0.299552,0.528120,-0.828064,2.115726,-0.517198,0.482631,6.299020,-3.550238,6.144110,0.002000,0.322114,0.000000
704.000000,0.002000,0.263306,1.602638,0.979115,-0.531108,1.880099,1.762053,-0.685773,-3.604520,-2.316356,0.002000,1.189922,0.000000
705.000000,0.002000,3.221812,-2.422315,10.248564,0.206199,-0.272398,0.485253,-0.047684,0.036460,-0.151845,0.002000,-1.590973,0.000000
706.000000,0.002000,-0.579118,-0.206574,1.983788,0.566587,-0.359147,2.743926,0.824040,0.480189,-3.524893,0.002000,-0.037491,0.000000
707.000000,0.002000,-2.063372,-0.058808,-1.467055,0.570039,-0.495166,-0.857447,2.221088,0.149223,1.617497,0.002000,0.022990,0.000000
708.000000,0.002000,0.240940,0.266796,-0.168031,-1.074717,-0.044161,-5.131681,-11.937362,-12.807883,5.829858,0.002000,0.294749,0.000000
709.000000,0.002000,0.114107,0.196749,0.088609,-2.971326,0.160881,-2.967263,-11.341853,-5.487338,-9.193357,0.002000,-0.114627,0.000000
710.000000,0.002000,0.157521,-0.377622,0.200174,-1.707498,0.874416,-1.304613,-6.453291,15.368294,-8.616561,0.002000,0.686840,0.000000
711.000000,0.002000,-1.363857,0.855344,-2.371538,-2.117676,0.310100,0.265646,1.063376,-0.626272,1.814936,0.002000,-0.828064,0.000000
712.000000,0.002000,0.083021,0.463691,-0.017691,0.640222,-0.031026,0.942461,-4.208125,-16.151386,0.882192,0.002000,0.979115,0.000000
713.000000,0.002000,0.715105,-0.224709,0.256105,-3.188142,-2.462760,0.781863,-11.397799,4.034189,-4.881283,0.002000,10.248564,0.000000
714.000000,0.002000,0.713477,0.861056,-0.283203,-0.224732,0.386861,0.737391,-5.916211,-6.880185,2.394360,0.002000,1.983788,0.000000
715.000000,0.002000,1.184625,1.665939,0.664395,1.402462,1.784742,2.177419,-2.018194,-2.702998,-1.127790,0.002000,-1.467055,0.000000
716.000000,0.002000,-0.156854,-1.190560,-0.621848,-1.362543,1.226611,1.192484,0.555730,5.945490,3.264485,0.002000,-0.168031,0.000000
717.000000,0.002000,-0.948950,0.705845,1.410341,-1.069733,-0.269022,0.825640,2.520301,-1.783245,-3.749117,0.002000,0.088609,0.000000
718.000000,0.002000,1.253453,2.333206,0.146342,0.143869,-1.597237,0.944000,-1.264708,-2.271759,-0.079847,0.002000,0.200174,0.000000
719.000000,0.002000,0.449947,1.681657,0.943389,-2.057050,-0.836191,-0.197666,-1.041731,-3.392408,-2.056145,0.002000,-2.371538,0.000000
720.000000,0.002000,-1.871771,-1.311018,-1.113102,-0.427975,0.098140,0.806742,1.946646,1.420464,1.183734,0.002000,-0.017691,0.000000
721.000000,0.002000,0.130201,-0.350201,0.141090,-2.442141,-0.689813,-2.398631,-6.574417,17.452363,-7.901418,0.002000,0.256105,0.000000
722.000000,0.002000,0.100785,0.235199,0.514159,0.069618,0.913998,3.544854,-4.482806,-4.377854,-16.800473,0.002000,-0.283203,0.000000
723.000000,0.002000,-0.401849,-0.233123,-0.185107,-0.550794,-2.799271,0.180135,13.501079,10.184624,7.550909,0.002000,0.664395,0.000000
724.000000,0.002000,-1.011299,-0.199579,-2.656324,0.652951,-0.150573,-2.273343,0.753161,0.209339,2.054009,0.002000,-0.621848,0.000000
725.000000,0.002000,-0.199940,-0.286364,-0.326424,1.518987,-0.114658,3.971600,7.459730,12.657961,11.614148,0.002000,1.410341,0.000000
726.000000,0.002000,-0.840714,-0.689407,1.071623,-1.791927,-1.871168,1.092636,3.111690,2.719124,-4.259580,0.002000,0.146342,0.000000
727.000000,0.002000,0.537522,-0.287465,-0.370181,-2.020943,3.105171,-1.743386,-11.081356,7.054128,7.732955,0.002000,0.943389,0.000000
728.000000,0.002000,-0.259149,0.724890,0.586181,1.807240,1.876370,0.163737,3.382746,-8.726778,-7.064013,0.002000,-1.113102,0.000000
729.000000,0.002000,-0.548039,0.056431,-0.190099,-0.611513,-3.746468,1.059377,17.362679,-6.335808,12.159437,0.002000,0.141090,0.000000
730.000000,0.002000,-0.121640,0.648545,-0.130396,-3.353063,-1.985560,-0.014635,3.459194,-16.391566,2.130624,0.002000,0.514159,0.000000
731.000000,0.002000,0.749052,-0.289672,-0.164409,0.108100,0.781180,0.774847,-14.509530,5.528510,3.390027,0.002000,-0.185107,0.000000
732.000000,0.002000,0.423078,-0.378235,-0.102817,0.879581,1.739908,-1.043182,-12.067804,10.363562,2.799459,0.002000,-2.656324,0.000000
733.000000,0.002000,1.639191,-0.078724,3.001118,-0.098487,1.300218,-0.019670,-0.736997,0.071375,-1.352620,0.002000,-0.326424,0.000000
734.000000,0.002000,-0.337793,0.045586,-0.103091,-1.612814,2.391577,1.335934,22.734208,-6.232587,7.058444,0.002000,1.071623,0.000000
735.000000,0.002000,1.219926,-0.470955,-0.131336,-0.592130,-0.265492,-1.501561,-6.619795,2.839491,0.601475,0.002000,-0.370181,0.000000
736.000000,0.002000,0.310487,0.034974,-0.370545,-2.289368,1.722462,1.247812,-12.535051,1.035556,16.505775,0.002000,0.586181,0.000000
737.000000,0.002000,0.221319,-0.473101,-0.179301,-0.256471,1.102707,0.199682,-7.344761,15.171439,5.769048,0.002000,-0.190099,0.000000
738.000000,0.002000,1.287858,0.389970,-2.356881,-1.141495,0.118615,1.498846,-1.154564,-0.301295,2.031699,0.002000,-0.130396,0.000000
739.000000,0.002000,-1.054157,-1.725250,0.584114,1.711716,2.016187,0.922382,1.638741,2.956447,-1.063974,0.002000,-0.164409,0.000000
740.000000,0.002000,0.105344,0.212773,0.081728,0.907388,-1.094902,1.408209,-5.832914,-10.267422,-7.620377,0.002000,-0.102817,0.000000
741.000000,0.002000,-0.052244,0.197686,-0.877596,2.211040,-0.553104,-1.270558,0.312995,-1.741772,12.336181,0.002000,3.001118,0.000000
742.000000,0.002000,-0.051250,-0.284464,0.215299,-1.559826,-2.421244,-1.456459,1.927594,13.600445,-14.059270,0.002000,-0.103091,0.000000
743.000000,0.002000,0.259139,0.093708,-1.075329,-1.667480,1.404845,0.809792,-2.806561,-0.910598,9.611850,0.002000,-0.131336,0.000000
744.000000,0.002000,0.399123,-0.397864,0.378681,-0.454344,0.642199,2.330711,-9.624459,8.891639,-8.366589,0.002000,-0.370545,0.000000
745.000000,0.002000,-0.212535,1.373703,-2.520546,-2.029101,-0.104142,1.860232,0.164200,-1.025159,1.850427,0.002000,-0.179301,0.000000
746.000000,0.002000,0.767298,0.695014,0.067726,2.931696,2.744779,0.414787,-8.396510,-6.789179,-0.862423,0.002000,-2.356881,0.000000
747.000000,0.002000,1.158096,-2.951296,0.012151,-0.213332,-0.113641,-1.403929,-0.543611,1.581264,-0.040422,0.002000,0.584114,0.000000
748.000000,0.002000,0.374367,-0.325298,-0.024183,5.086351,-2.396390,0.537671,-13.942270,12.712768,0.134553,0.002000,0.081728,0.000000
749.000000,0.002000,-2.012081,-0.459026,-2.142044,1.216041,0.367237,1.007454,1.363390,0.368124,1.477823,0.002000,-0.877596,0.000000
750.000000,0.002000,0.060210,-0.030815,-0.032263,1.305748,-0.905608,-1.859724,-7.472062,5.728082,3.063915,0.002000,0.215299,0.000000
751.000000,0.002000,-0.639940,-0.269471,-0.577960,-1.574020,1.825086,-2.413905,8.350233,4.577150,7.432346,0.002000,-1.075329,0.000000
752.000000,0.002000,-0.139605,1.160018,0.536193,-3.104272,2.234907,-1.597209,0.919806,-7.182734,-3.696639,0.002000,0.378681,0.000000
753.000000,0.002000,0.302706,-1.128619,0.669417,0.274130,0.381839,-0.239185,-1.730020,5.974709,-3.293581,0.002000,-2.520546,0.000000
754.000000,0.002000,-0.069672,1.729095,0.548976,-0.111067,0.029647,0.191955,0.119813,-4.437883,-1.501803,0.002000,0.067726,0.000000
755.000000,0.002000,1.075871,-0.286210,1.256284,-1.633343,2.053207,0.137490,-3.168137,0.900733,-3.684904,0.002000,0.012151,0.000000
756.000000,0.002000,1.180650,-1.104531,-2.494043,0.102758,0.328097,-0.441936,-0.788483,0.790252,1.697817,0.002000,-0.024183,0.000000
757.000000,0.002000,-0.699706,0.566039,-1.185001,0.471980,-0.100115,0.020869,3.429455,-2.392870,5.385036,0.002000,-2.142044,0.000000
758.000000,0.002000,-0.028559,-0.156733,-0.152088,-1.886323,0.434989,-3.318442,-0.849866,13.605492,9.496648,0.002000,-0.032263,0.000000
759.000000,0.002000,-0.846461,0.184291,0.347892,-0.723202,-1.524416,-0.282516,17.121539,-4.465401,-2.239933,0.002000,-0.577960,0.000000
760.000000,0.002000,-0.232781,-0.854690,-0.066489,-3.019415,0.911161,1.279792,2.604026,11.703664,0.700737,0.002000,0.536193,0.000000
761.000000,0.002000,0.366416,0.169071,-0.324218,-3.724499,-0.406382,-0.436717,-12.931209,-5.105901,12.473825,0.002000,0.669417,0.000000
762.000000,0.002000,0.663919,0.682036,0.557207,0.496068,-1.915738,-0.040246,-6.003471,-5.251008,-5.328957,0.002000,0.548976,0.000000
763.000000,0.002000,-0.562973,-0.215217,0.188982,-2.099391,0.642949,0.527931,16.115767,6.913492,-5.752486,0.002000,1.256284,0.000000
764.000000,0.002000,0.241857,0.028684,0.136684,0.110729,0.902718,1.912217,-15.082887,5.933207,-8.392798,0.002000,-2.494043,0.000000
765.000000,0.002000,1.108521,0.860665,-2.116619,2.126228,0.917942,-0.043926,-1.226108,-0.860045,2.252586,0.002000,-1.185001,0.000000
766.000000,0.002000,0.052876,0.522705,0.350243,0.599674,-2.629277,2.263538,-1.972279,-12.564384,-10.780279,0.002000,-0.152088,0.000000
767.000000,0.002000,-0.459520,-0.720649,-0.461783,2.054977,-1.084807,-1.188465,4.387518,7.952147,3.862072,0.002000,0.347892,0.000000
768.000000,0.002000,0.303249,-0.512300,0.096369,1.029901,-0.069679,1.827113,-9.553908,13.175092,-2.804872,0.002000,-0.066489,0.000000
769.000000,0.002000,-0.190213,-0.078788,-0.119439,-0.976048,-2.128455,-0.337997,12.703630,5.990139,5.535669,0.002000,-0.324218,0.000000
770.000000,0.002000,-0.733465,0.070444,-0.064345,-1.467064,-2.914677,1.312556,16.800250,-1.182621,1.154058,0.002000,0.557207,0.000000
771.000000,0.002000,1.606117,1.512445,-0.567623,1.112097,0.430765,-0.433646,-2.322624,-2.141421,0.948541,0.002000,0.188982,0.000000
772.000000,0.002000,0.056557,-0.194872,1.352102,-0.094361,-2.721669,1.478419,-0.380503,1.332698,-6.821218,0.002000,0.136684,0.000000
773.000000,0.002000,0.210057,-1.539600,0.572640,0.710454,-1.146805,-1.102013,-0.701648,4.616829,-1.686730,0.002000,-2.116619,0.000000
774.000000,0.002000,-0.252039,0.070835,-0.044891,0.391081,1.460870,-1.633436,15.596270,-2.561848,0.398545,0.002000,0.350243,0.000000
775.000000,0.002000,-0.328311,1.756845,-3.348837,0.443964,-0.327828,0.380300,0.127696,-0.597276,1.200886,0.002000,-0.461783,0.000000
776.000000,0.002000,-1.315272,-3.043812,1.871442,0.390302,-0.886229,-0.279373,0.427465,1.024084,-0.656633,0.002000,0.096369,0.000000
777.000000,0.002000,-0.207052,-0.182627,0.469442,2.632540,-0.053931,0.713560,6.691275,6.894674,-15.957546,0.002000,-0.119439,0.000000
778.000000,0.002000,-0.116132,0.147774,0.564349,-1.781811,-3.200250,-1.333998,2.335017,-0.837766,-17.609706,0.002000,-0.064345,0.000000
779.000000,0.002000,-0.155049,0.574543,0.319775,-1.456621,-2.319039,-1.641515,3.969260,-12.158186,-8.095931,0.002000,-0.567623,0.000000
780.000000,0.002000,-1.942980,-0.060800,-0.449629,1.925427,-0.786752,0.827337,3.907813,0.362372,0.874502,0.002000,1.352102,0.000000
781.000000,0.002000,-0.342257,-0.528616,-0.496510,-0.849009,0.496111,3.960021,5.480094,9.046384,7.595578,0.002000,0.572640,0.000000
782.000000,0.002000,-0.091010,0.719637,-0.608166,2.197200,1.049053,0.954135,0.589201,-9.087247,7.811309,0.002000,-0.044891,0.000000
783.000000,0.002000,-2.246729,0.313020,2.797425,-0.058132,-0.073991,-0.375441,0.894441,-0.081749,-1.140222,0.002000,-3.348837,0.000000
784.000000,0.002000,0.850894,-0.165650,0.102719,-1.913339,0.662971,-1.987739,-11.987815,2.754255,-1.377704,0.002000,1.871442,0.000000
785.000000,0.002000,-0.423810,0.178434,2.891570,0.613573,-1.030830,1.309909,0.291972,-0.038125,-2.089327,0.002000,0.469442,0.000000
786.000000,0.002000,1.380113,-0.743011,0.887980,1.567323,-0.317392,-0.974299,-3.351016,1.877919,-2.205730,0.002000,0.564349,0.000000
787.000000,0.002000,-0.457994,1.317691,2.444938,-0.152399,1.767951,0.645297,0.346029,-1.073012,-2.045690,0.002000,0.319775,0.000000
788.000000,0.002000,0.105761,0.715308,0.245448,-2.190005,1.499619,-2.415915,-2.624842,-15.330493,-5.329444,0.002000,-0.449629,0.000000
789.000000,0.002000,-0.627318,-0.068107,-0.283190,-0.267991,-0.379443,0.486315,17.032213,4.369770,6.825894,0.002000,-0.496510,0.000000
790.000000,0.002000,-0.024903,-0.250717,1.094068,0.205999,1.981376,-0.756416,0.125628,2.331548,-8.619570,0.002000,-0.608166,0.000000
791.000000,0.002000,-0.163174,-1.420512,1.600144,-0.705551,1.767716,-1.414739,0.192851,2.363672,-2.439361,0.002000,2.797425,0.000000
792.000000,0.002000,-0.044304,0.598639,-0.300888,-2.909928,0.180743,-2.152302,0.339841,-14.211450,7.968945,0.002000,0.102719,0.000000
793.000000,0.002000,-0.612327,0.705514,0.445559,-1.665987,1.108708,0.135526,6.591898,-7.351327,-4.601528,0.002000,2.891570,0.000000
794.000000,0.002000,-0.878781,0.099355,-0.714674,-0.706913,-1.313017,0.463292,7.634657,-0.330150,6.558598,0.002000,0.887980,0.000000
795.000000,0.002000,-0.177895,0.337106,0.351504,-1.899228,5.790005,-0.435085,7.253538,-13.423176,-11.990712,0.002000,2.444938,0.000000
796.000000,0.002000,0.583588,-0.351789,-0.937710,-2.493512,-0.499540,2.114474,-4.612601,2.897545,6.732725,0.002000,0.245448,0.000000
797.000000,0.002000,-0.059659,-0.352637,0.254397,-0.023590,0.274379,1.342475,0.058538,13.899567,-12.381798,0.002000,-0.283190,0.000000
798.000000,0.002000,-0.439775,0.173888,0.163516,-0.016327,2.574296,-1.494425,18.492914,-3.257552,-5.765968,0.002000,1.094068,0.000000
799.000000,0.002000,0.087345,-2.600981,-1.324419,-0.656145,0.455799,-0.661442,-0.038370,1.809024,0.898346,0.002000,1.600144,0.000000
800.000000,0.002000,-0.236780,0.123786,0.503724,0.205343,2.038956,0.527681,6.285841,-1.931103,-16.373618,0.002000,-0.300888,0.000000
801.000000,0.002000,-0.257962,0.120016,0.799339,-0.102016,1.370129,-1.427583,4.601969,-0.022283,-13.399450,0.002000,0.445559,0.000000
802.000000,0.002000,-0.404389,0.003019,-0.188567,-1.770255,-1.823364,0.030413,15.534425,0.860061,8.273769,0.002000,-0.714674,0.000000
803.000000,0.002000,1.205060,-0.252772,-0.420231,-1.640536,-0.834201,-0.526152,-6.648302,1.702281,2.132694,0.002000,0.351504,0.000000
804.000000,0.002000,0.234960,0.003289,-0.025347,-2.659835,0.862454,-2.998441,-14.725276,7.177038,-0.351837,0.002000,-0.937710,0.000000
805.000000,0.002000,-0.683322,0.054791,-0.858354,0.823422,-1.507384,-0.407131,5.186589,1.540686,8.087266,0.002000,0.254397,0.000000
806.000000,0.002000,-0.036996,0.829322,2.403311,-0.435697,0.670368,2.548801,-0.116893,-0.728362,-2.494403,0.002000,0.163516,0.000000
807.000000,0.002000,0.711555,-0.284309,-0.151763,-0.410755,2.169582,-0.689582,-8.562271,7.536838,4.118741,0.002000,-1.324419,0.000000
808.000000,0.002000,0.143289,0.039770,0.473138,-0.928306,0.862341,1.153784,-7.836232,-0.665395,-18.333348,0.002000,0.503724,0.000000
809.000000,0.002000,-0.131341,0.319105,0.271780,3.592865,-1.936281,-0.253623,6.201703,-11.050302,-9.962774,0.002000,0.799339,0.000000
810.000000,0.002000,0.376612,0.006248,0.051295,-0.282586,0.478191,-0.717785,-19.936522,1.124408,-3.515128,0.002000,-0.188567,0.000000
811.000000,0.002000,-0.007425,-0.343290,-0.293683,0.241185,0.771772,-4.951545,-3.609802,16.914036,16.915093,0.002000,-0.420231,0.000000
812.000000,0.002000,0.086059,-0.075423,-0.336373,-4.533142,-0.743011,1.316557,-10.777794,7.453702,16.505442,0.002000,-0.025347,0.000000
813.000000,0.002000,-1.472545,0.660953,0.095462,-0.146570,0.413354,-0.194842,5.110884,-2.351915,-0.502096,0.002000,-0.858354,0.000000
814.000000,0.002000,-0.213293,-0.643432,-0.238444,0.860809,3.745228,-0.980007,4.047234,13.785182,4.487022,0.002000,2.403311,0.000000
815.000000,0.002000,0.974556,0.626873,-0.701713,-1.709532,0.074731,0.812451,-5.424314,-3.176626,3.827130,0.002000,-0.151763,0.000000
816.000000,0.002000,0.157364,-0.222743,0.583385,1.066456,-0.372892,-1.167692,-5.572981,6.626103,-16.030153,0.002000,0.473138,0.000000
817.000000,0.002000,-0.041010,0.644097,0.678214,0.994549,1.449498,3.658727,-0.071953,-7.631718,-9.588662,0.002000,0.271780,0.000000
818.000000,0.002000,-3.493790,1.318783,0.611141,-0.073879,1.166769,-0.677173,1.262812,-0.471114,-0.217894,0.002000,0.051295,0.000000
819.000000,0.002000,-0.610521,-0.159993,0.588524,-1.196341,0.589655,-0.401438,7.932130,2.116291,-9.602474,0.002000,-0.293683,0.000000
820.000000,0.002000,0.368780,0.135362,0.407608,4.842797,0.160953,2.377181,-10.991475,-1.709278,-11.721315,0.002000,-0.336373,0.000000
821.000000,0.002000,1.240807,1.570446,0.028985,-0.218771,1.107087,0.476566,-2.472971,-3.055331,-0.068707,0.002000,0.095462,0.000000
822.000000,0.002000,-3.399320,0.868871,1.249884,0.011369,-0.110151,0.276708,1.274594,-0.333236,-0.512436,0.002000,-0.238444,0.000000
823.000000,0.002000,-0.374719,0.972980,-0.515589,-1.220551,1.868601,-3.215306,3.462531,-8.409452,4.323271,0.002000,-0.701713,0.000000
824.000000,0.002000,-0.111699,-0.555953,0.597871,-0.282336,2.155071,0.055778,0.612567,8.883306,-9.457494,0.002000,0.583385,0.000000
825.000000,0.002000,-1.661799,-1.117210,-2.491274,-1.462086,0.794574,1.780255,0.913682,0.669140,1.376736,0.002000,0.678214,0.000000
826.000000,0.002000,0.802699,-0.232844,0.100093,0.555359,1.161828,1.847185,-15.592381,9.060222,1.198146,0.002000,0.611141,0.000000
827.000000,0.002000,-0.136209,-0.028834,-0.015512,0.399505,3.608962,1.335683,13.364782,9.487432,1.919896,0.002000,0.588524,0.000000
828.000000,0.002000,-0.410316,-0.223751,0.373849,-2.035963,0.179281,0.796033,10.368024,5.286755,-10.531578,0.002000,0.407608,0.000000
829.000000,0.002000,0.648918,0.377810,1.948995,1.233311,0.711913,-0.148945,-1.105525,-0.509095,-3.564957,0.002000,0.028985,0.000000
830.000000,0.002000,0.293718,0.094149,-0.281971,-3.828230,-1.542017,3.443042,-13.270630,-2.395870,10.815834,0.002000,1.249884,0.000000
831.000000,0.002000,0.612078,-0.882317,-0.476798,-1.423375,0.795028,-1.506688,-4.538860,6.540329,2.961624,0.002000,-0.515589,0.000000
832.000000,0.002000,-0.261607,-0.908637,-0.213075,0.086530,2.587556,0.177707,2.382314,9.739016,2.623130,0.002000,0.597871,0.000000
833.000000,0.002000,0.083720,0.359103,-0.226465,-0.250578,-0.881468,4.213929,-5.044147,-14.516252,8.254038,0.002000,-2.491274,0.000000
834.000000,0.002000,0.211615,-0.142727,-0.149391,-1.061170,-4.077963,1.797949,-13.194027,7.332482,9.518075,0.002000,0.100093,0.000000
835.000000,0.002000,0.417316,-0.898963,-0.665135,-1.838955,-2.752785,-2.309672,-2.782351,6.628671,4.528041,0.002000,-0.015512,0.000000
836.000000,0.002000,2.061895,2.300643,1.091652,0.546821,0.169258,0.683928,-1.104894,-1.168869,-0.610519,0.002000,0.373849,0.000000
837.000000,0.002000,-1.097905,0.235260,0.477148,0.681847,-0.146282,-2.137184,7.331888,-1.405753,-2.490164,0.002000,1.948995,0.000000
838.000000,0.002000,-0.096493,-0.227743,0.793891,-2.217139,-0.560745,0.274632,1.546076,3.983386,-12.691010,0.002000,-0.281971,0.000000
839.000000,0.002000,0.021493,0.646458,0.188385,1.121726,-2.866344,-1.113983,0.164279,-16.441568,-5.202925,0.002000,-0.476798,0.000000
840.000000,0.002000,-0.028385,-0.325867,0.588231,-1.453009,0.314017,3.661171,1.133700,7.879887,-13.974022,0.002000,-0.213075,0.000000
841.000000,0.002000,-0.874142,0.488938,0.473047,0.118277,-1.017049,-2.490998,8.007447,-4.706038,-4.688671,0.002000,-0.226465,0.000000
842.000000,0.002000,-0.151452,-0.020460,-0.293674,1.039917,0.822250,1.184982,4.974044,6.408028,16.682669,0.002000,-0.149391,0.000000
843.000000,0.002000,0.030957,-0.097167,0.166497,-1.064462,0.164055,0.608012,-5.251053,7.308922,-10.226701,0.002000,-0.665135,0.000000
844.000000,0.002000,1.040545,0.686952,0.144911,-0.256919,-0.321791,0.858752,-7.114036,-4.796110,-0.974188,0.002000,1.091652,0.000000
845.000000,0.002000,0.904648,-2.285760,0.231541,-1.565036,0.130363,-1.195594,-0.967490,2.439918,-0.259296,0.002000,0.477148,0.000000
846.000000,0.002000,0.048257,0.108874,0.033399,2.608861,-0.149177,-1.289262,-6.344716,-7.089045,-5.130913,0.002000,0.793891,0.000000
847.000000,0.002000,-0.795815,-1.211011,1.624940,-0.166297,-1.657316,1.437442,1.235440,1.930209,-2.496658,0.002000,0.188385,0.000000
848.000000,0.002000,0.014036,-0.436566,-0.186188,-1.054105,-1.410743,-3.813365,2.844168,16.307475,7.558589,0.002000,0.588231,0.000000
849.000000,0.002000,-2.499560,1.424771,-2.190765,0.569082,0.651502,-0.499493,1.033447,-0.572580,0.913353,0.002000,0.473047,0.000000
850.000000,0.002000,-0.181140,-0.189879,0.390466,1.032907,0.706750,-1.534853,6.314312,7.513060,-14.651042,0.002000,-0.293674,0.000000
851.000000,0.002000,-0.556414,-0.266047,-0.896195,-2.147020,-1.246756,-0.998876,4.720895,2.616181,7.874201,0.002000,0.166497,0.000000
852.000000,0.002000,0.477962,-0.385112,-0.083115,0.785918,1.291324,1.872442,-12.679029,11.242900,0.009207,0.002000,0.144911,0.000000
853.000000,0.002000,0.590749,0.075538,-0.122509,-0.727121,-2.466355,-0.028678,-17.922851,-1.064734,2.372152,0.002000,0.231541,0.000000
854.000000,0.002000,-0.346648,-0.047850,-0.120183,1.179939,-0.587791,-3.177727,20.218329,7.918767,0.510392,0.002000,0.033399,0.000000
855.000000,0.002000,-0.171130,0.675698,0.253044,3.911245,0.815440,0.989657,4.538310,-14.977002,-5.998358,0.002000,1.624940,0.000000
856.000000,0.002000,-0.018447,-0.319418,-0.077428,-1.113691,1.103561,-2.547442,-0.500665,19.184791,4.845944,0.002000,-0.186188,0.000000
857.000000,0.002000,0.468076,-0.401962,0.588357,-0.174993,0.022220,-2.183805,-7.075076,5.984246,-8.610110,0.002000,-2.190765,0.000000
858.000000,0.002000,-0.424565,-0.152704,0.546658,-0.845854,-0.223939,-3.976424,8.955510,4.297396,-12.938429,0.002000,0.390466,0.000000
859.000000,0.002000,-0.201563,0.801253,-0.526184,-3.319029,2.637639,-0.494103,2.110921,-10.127205,6.969470,0.002000,-0.896195,0.000000
860.000000,0.002000,0.044350,0.079414,0.494434,-1.834895,2.505264,0.812684,-2.574794,-3.087096,-19.448120,0.002000,-0.083115,0.000000
861.000000,0.002000,-1.256652,1.429723,-0.883892,2.211016,2.262298,-0.166455,2.275191,-2.565246,1.649565,0.002000,-0.122509,0.000000
862.000000,0.002000,-0.092100,0.246490,-0.241736,-2.423650,-1.848589,2.078907,5.717762,-12.828615,12.822913,0.002000,-0.120183,0.000000
863.000000,0.002000,1.343977,1.465419,-0.934004,0.283120,-1.728142,0.765115,-2.199599,-2.321948,1.479156,0.002000,0.253044,0.000000
864.000000,0.002000,-1.433508,1.136818,1.762073,-1.819500,-0.057308,2.003259,1.545446,-1.130391,-1.947797,0.002000,-0.077428,0.000000
865.000000,0.002000,0.141101,-0.723170,0.462635,-1.063268,0.201969,4.408222,-1.435318,10.594193,-7.875048,0.002000,0.588357,0.000000
866.000000,0.002000,0.169418,-0.121840,-0.361458,3.110061,1.183038,-3.744058,-10.415965,7.039802,15.291936,0.002000,0.546658,0.000000
867.000000,0.002000,2.146839,-0.515549,1.518548,0.551596,-0.574990,0.708420,-1.871798,0.494551,-1.303448,0.002000,-0.526184,0.000000
868.000000,0.002000,0.280640,-0.521995,0.718729,1.457596,-3.151284,-0.873460,-3.428560,6.721325,-8.634269,0.002000,0.494434,0.000000
869.000000,0.002000,-0.173214,0.159091,-0.856672,0.505841,-1.391439,-1.187462,2.573973,-1.891256,12.663841,0.002000,-0.883892,0.000000
870.000000,0.002000,-0.372873,-0.386190,0.317806,1.920880,-0.445175,-3.436217,13.316954,9.158351,-9.146574,0.002000,-0.241736,0.000000
871.000000,0.002000,-0.065262,-0.004634,-0.253843,-0.439280,-1.982987,3.112907,5.758128,1.443639,16.242068,0.002000,-0.934004,0.000000
872.000000,0.002000,0.334391,1.073141,1.520888,-0.744461,-1.790454,-1.823535,-0.942274,-2.337610,-3.583726,0.002000,1.762073,0.000000
873.000000,0.002000,-0.647708,-0.981761,-2.242635,0.449392,0.778905,1.610433,0.612776,0.972571,2.232493,0.002000,0.462635,0.000000
874.000000,0.002000,3.279940,2.838692,0.844981,0.095787,0.062174,-0.294865,-0.760280,-0.637365,-0.203237,0.002000,-0.361458,0.000000
875.000000,0.002000,0.209424,0.749886,0.218867,-0.486792,-4.715402,-2.321538,-1.756214,-12.848444,-5.399676,0.002000,1.518548,0.000000
876.000000,0.002000,-0.087915,0.574600,0.564109,0.665316,2.291424,2.890150,1.165058,-9.143380,-11.168991,0.002000,0.718729,0.000000
877.000000,0.002000,-1.691161,-0.164866,-0.401430,2.368840,0.314737,1.985982,4.872443,0.752764,1.219342,0.002000,-0.856672,0.000000
878.000000,0.002000,-1.140274,-0.411212,-1.246853,-0.391142,0.305194,1.148479,3.117622,1.498836,3.560563,0.002000,0.317806,0.000000
879.000000,0.002000,-0.158211,0.127951,-0.362607,0.191046,-0.308026,3.617366,9.990901,-3.693793,16.722876,0.002000,-0.253843,0.000000
880.000000,0.002000,-0.905297,0.531970,-1.877687,-0.062428,0.329396,-2.091774,1.463986,-0.842642,3.186839,0.002000,1.520888,0.000000
881.000000,0.002000,-0.095044,-0.099343,0.308107,0.287135,0.169389,-0.537368,4.671790,7.548442,-16.740402,0.002000,-2.242635,0.000000
882.000000,0.002000,0.593606,1.214341,1.654721,-0.156909,2.130152,-0.115057,-1.056238,-1.890728,-2.693687,0.002000,0.844981,0.000000
883.000000,0.002000,0.244532,-0.073690,0.225767,1.891414,-0.547747,-3.934740,-9.741617,3.459131,-15.939093,0.002000,0.218867,0.000000
884.000000,0.002000,-0.257839,-0.516542,-0.150915,-0.898706,-0.742136,-0.964007,4.771092,17.555025,2.894356,0.002000,0.564109,0.000000
885.000000,0.002000,1.350884,0.067247,-1.419379,2.346547,0.545802,-0.740284,-2.897302,-0.043355,2.919214,0.002000,-0.401430,0.000000
886.000000,0.002000,0.487412,-0.295240,-0.130995,1.360292,-3.775866,-1.263025,-12.650430,10.417560,2.333430,0.002000,-1.246853,0.000000
887.000000,0.002000,-0.482692,-0.838912,0.440553,1.414894,-0.324966,0.338804,4.114527,8.425564,-4.098317,0.002000,-0.362607,0.000000
888.000000,0.002000,-1.418136,1.931660,0.979592,0.800788,-0.089398,-0.475916,1.481706,-1.973976,-0.996383,0.002000,-1.877687,0.000000
889.000000,0.002000,-0.035345,0.108368,-0.164018,-0.903593,-1.198756,2.908176,0.707399,0.686868,7.536545,0.002000,0.308107,0.000000
890.000000,0.002000,1.091920,-1.617777,-3.021674,1.068349,-0.322361,-0.541354,-0.371111,0.654628,1.180465,0.002000,1.654721,0.000000
891.000000,0.002000,-0.426536,0.255243,-0.500452,-1.672461,4.061894,0.406046,11.015828,-5.198790,11.939564,0.002000,0.225767,0.000000
892.000000,0.002000,0.064025,0.111726,-0.506582,-1.975418,-1.918751,-2.204224,-6.605556,-0.798555,20.543928,0.002000,-0.150915,0.000000
893.000000,0.002000,0.203848,3.668289,-0.477235,1.111863,0.257122,-0.780560,-0.074806,-1.405320,0.187271,0.002000,-1.419379,0.000000
894.000000,0.002000,0.049549,0.325454,0.383716,-0.260445,3.357528,-1.522420,-3.039957,-9.839414,-14.809909,0.002000,-0.130995,0.000000
895.000000,0.002000,-1.280116,-0.052993,-0.759087,-2.180143,-1.649929,0.429564,5.625069,0.279705,3.596649,0.002000,0.440553,0.000000
896.000000,0.002000,0.541961,0.783443,0.088658,0.994492,-1.308661,-0.437061,-8.101619,-9.491880,-1.592002,0.002000,0.979592,0.000000
897.000000,0.002000,0.192762,-0.007689,0.102871,0.584726,-0.474771,0.979759,-17.330822,1.831290,-5.195604,0.002000,-0.164018,0.000000
