# 
#                 columns are tag, mass, x, y, z, vx, vy, vz, ax, ay, az, EK, EU, E
#                 Time=6.000000
# 
1.000000,0.002000,-0.743068,-0.739579,-1.370198,-2.732296,-0.670801,-1.688565,2.082014,2.245645,3.996888,87.221711,-170.874691,-83.652980
2.000000,0.002000,-2.075366,-2.250925,1.623512,1.829476,0.057334,1.481664,1.035676,0.999768,-0.690193,0.000000,0.000000,0.000000
3.000000,0.002000,-0.291911,-0.045791,0.166327,2.666981,3.535649,-3.246095,12.157737,-1.227799,-14.162512,0.000000,0.000000,0.000000
4.000000,0.002000,0.029116,-0.753015,0.427836,0.754249,0.701663,2.710861,-1.407433,10.524661,-5.665176,0.000000,0.000000,0.000000
5.000000,0.002000,0.278907,0.243866,-0.392298,1.114703,-0.894291,2.568669,-11.009845,-9.276331,13.715517,0.000000,0.000000,0.000000
6.000000,0.002000,0.401426,0.276107,0.270179,1.262405,3.239365,-0.530980,-12.456133,-8.069614,-10.406883,0.000000,0.000000,0.000000
7.000000,0.002000,-0.098414,1.387503,-0.095381,-0.267645,3.694415,1.445286,0.404380,-7.382328,0.634254,0.000000,-0.743068,0.000000
8.000000,0.002000,0.303629,1.174646,-0.723343,0.085669,-0.225989,0.751618,-1.537196,-5.762271,3.700552,0.000000,-2.075366,0.000000
9.000000,0.002000,1.306680,-0.776144,-0.670898,2.410833,-1.477006,-1.539504,-4.107132,2.578844,1.946302,0.002000,-0.291911,0.000000
10.000000,0.002000,-1.650728,-1.910490,-1.466384,0.885029,0.200486,-0.334624,1.184147,1.408560,1.108412,0.002000,0.029116,0.000000
11.000000,0.002000,0.090220,0.320575,-0.641893,-1.442200,-1.312790,-1.231639,-7.292949,-7.559075,17.551974,0.002000,0.278907,0.000000
12.000000,0.002000,-1.002206,-2.524115,-0.679293,0.387550,0.087471,-0.047007,0.803642,2.059385,0.528561,0.002000,0.401426,0.000000
13.000000,0.002000,-0.625003,-0.072548,0.748029,-1.410556,-2.287176,-1.408782,6.866833,1.580478,-8.743599,0.002000,-0.098414,0.000000
14.000000,0.002000,-0.507040,-1.099062,-1.491354,0.679566,-0.239427,-1.073949,1.001255,2.516587,3.196825,0.002000,0.303629,0.000000
15.000000,0.002000,-1.346893,-2.507081,-1.306934,0.076542,1.641222,0.440797,0.789370,1.584416,0.762531,0.002000,1.306680,0.000000
16.000000,0.002000,0.607516,1.512444,-1.934007,0.114640,-1.141569,-0.466947,-0.676999,-1.656840,2.143101,0.002000,-1.650728,0.000000
17.000000,0.002000,-0.585432,-0.415413,-0.516071,-0.588889,0.329702,-0.311996,9.493435,5.563753,7.258454,0.002000,0.090220,0.000000
18.000000,0.002000,0.249656,0.928108,-0.002210,0.266124,-2.102768,-1.018668,-3.267160,-11.775755,0.688664,0.002000,-1.002206,0.000000
19.000000,0.002000,-0.028284,0.292486,0.160627,-0.859527,0.244497,0.676371,1.814379,-16.641949,-10.327289,0.002000,-0.625003,0.000000
20.000000,0.002000,0.376942,-0.129695,0.019580,0.058036,2.843127,0.753672,-15.808471,8.339708,-2.118397,0.002000,-0.507040,0.000000
21.000000,0.002000,0.239027,0.160881,0.271766,2.645679,-0.913818,0.129258,-12.023380,-4.868787,-13.193978,0.002000,-1.346893,0.000000
22.000000,0.002000,0.746421,-0.645322,0.093297,2.054110,-1.876105,0.166600,-7.819201,7.609271,-0.939293,0.002000,0.607516,0.000000
23.000000,0.002000,-0.995125,-0.403998,-1.219492,-1.908388,2.203019,0.427882,3.502773,1.433395,4.530370,0.002000,-0.585432,0.000000
24.000000,0.002000,-0.473138,0.829141,-0.057512,-1.158219,-0.485693,-0.033287,6.047068,-10.287406,0.614715,0.002000,0.249656,0.000000
25.000000,0.002000,-0.232782,-0.910433,-0.368532,1.938200,0.686193,1.086352,2.293065,9.237149,3.046045,0.002000,-0.028284,0.000000
26.000000,0.002000,-1.536991,-0.004032,1.133007,0.346310,1.117701,1.039640,3.469623,0.241565,-2.446475,0.002000,0.376942,0.000000
27.000000,0.002000,-0.246545,0.709076,-0.379900,0.644717,1.756874,0.159241,4.949958,-11.538234,6.248473,0.002000,0.239027,0.000000
28.000000,0.002000,0.211974,0.589577,-0.587373,0.559488,2.571571,0.117224,-3.178232,-10.069089,9.351444,0.002000,0.746421,0.000000
29.000000,0.002000,-2.782072,-2.592644,2.277654,0.890992,0.867469,-0.221477,0.612462,0.562130,-0.482583,0.002000,-0.995125,0.000000
30.000000,0.002000,-0.240085,-0.580722,0.857594,0.618863,-0.382623,2.063309,2.450519,5.748416,-7.320063,0.002000,-0.473138,0.000000
31.000000,0.002000,-0.314181,0.505851,0.067315,3.304425,-0.016534,-0.423553,8.345681,-17.181078,-2.979684,0.002000,-0.232782,0.000000
32.000000,0.002000,-0.296289,-0.037668,-0.197556,-0.552362,-1.659760,-0.971410,16.036561,5.856780,8.713724,0.002000,-1.536991,0.000000
33.000000,0.002000,0.170210,-0.904037,-0.779304,0.170426,-0.063587,0.560196,-1.337553,6.374982,5.213487,0.002000,-0.246545,0.000000
34.000000,0.002000,-0.452412,-0.408051,-0.060966,-3.502513,0.505726,-3.451991,11.855165,11.366257,1.908914,0.002000,0.211974,0.000000
35.000000,0.002000,2.963447,0.111544,-0.100702,-0.317779,-0.300604,0.589589,-2.090793,0.024170,0.052132,0.002000,-2.782072,0.000000
36.000000,0.002000,-2.212845,1.725487,-0.893400,-0.453703,-0.279587,0.548467,1.623168,-1.280394,0.622631,0.002000,-0.240085,0.000000
37.000000,0.002000,-2.682566,-3.401161,3.601917,0.574030,0.505663,0.061357,0.292114,0.369851,-0.394061,0.002000,-0.314181,0.000000
38.000000,0.002000,1.069874,0.529347,0.019367,0.685270,1.581954,-1.429450,-8.042552,-3.328240,-0.160573,0.002000,-0.296289,0.000000
39.000000,0.002000,-0.185977,0.182358,-0.521679,-0.681752,0.690242,2.118861,5.517983,-5.287680,17.717273,0.002000,0.170210,0.000000
40.000000,0.002000,0.340785,-0.160804,0.249690,-3.328745,3.402424,0.607745,-16.404459,7.663877,-8.452649,0.002000,-0.452412,0.000000
41.000000,0.002000,-0.486778,0.642060,-0.621260,1.223156,-1.700476,0.314528,8.042996,-8.543339,8.816717,0.002000,2.963447,0.000000
42.000000,0.002000,-1.306024,0.289255,1.063194,-2.801151,1.348538,0.685820,3.829045,-0.684612,-3.164818,0.002000,-2.212845,0.000000
43.000000,0.002000,-1.463279,-1.459599,0.697386,-0.682622,1.599145,0.806135,2.259836,2.260009,-1.077589,0.002000,-2.682566,0.000000
44.000000,0.002000,0.252376,0.095127,-0.394999,-0.886693,3.597016,-0.936024,-10.717094,-2.562408,17.000709,0.002000,1.069874,0.000000
45.000000,0.002000,-0.158103,-0.152873,-0.540181,-3.547596,-0.469235,-0.412346,4.670942,5.421648,17.515263,0.002000,-0.185977,0.000000
46.000000,0.002000,0.327018,-0.256523,0.320771,1.144572,0.860690,-1.060110,-11.311556,9.692777,-10.498297,0.002000,0.340785,0.000000
47.000000,0.002000,0.266913,0.715786,1.303646,-1.012526,-0.527448,-0.434019,-1.382485,-2.725139,-5.301568,0.002000,-0.486778,0.000000
48.000000,0.002000,-0.161215,0.403963,-0.078499,-1.331232,-3.045735,-0.461552,5.166231,-21.154797,4.818306,0.002000,-1.306024,0.000000
49.000000,0.002000,-2.023457,-0.504454,-0.388714,2.859438,0.948135,0.110453,3.386132,0.933567,0.632750,0.002000,-1.463279,0.000000
50.000000,0.002000,-0.616745,0.512730,0.297627,-2.553512,1.063084,0.215284,10.348370,-7.181442,-5.072924,0.002000,0.252376,0.000000
51.000000,0.002000,-0.923320,-0.493436,-0.174340,1.562629,-0.034349,0.394952,8.231613,5.131896,1.308963,0.002000,-0.158103,0.000000
52.000000,0.002000,-0.265826,-0.043267,-0.353007,1.453217,0.343487,-3.379687,10.624497,4.181508,15.467675,0.002000,0.327018,0.000000
53.000000,0.002000,-0.694850,-0.787074,0.032775,0.272171,1.000505,0.287780,6.837096,7.602052,-0.571772,0.002000,0.266913,0.000000
54.000000,0.002000,-0.873930,-0.266870,-1.178231,2.168559,1.213936,-0.283255,3.556211,1.498003,4.929911,0.002000,-0.161215,0.000000
55.000000,0.002000,-0.878689,0.053409,-0.457901,-0.248796,0.238879,-1.744867,10.933737,0.193371,5.904061,0.002000,-2.023457,0.000000
56.000000,0.002000,-0.028215,0.564494,-0.764356,-0.884635,0.369659,2.034750,0.622287,-7.565275,10.315938,0.002000,-0.616745,0.000000
57.000000,0.002000,-0.691746,-0.380610,-0.717530,-3.800939,2.328903,0.298208,6.960632,3.975384,6.665479,0.002000,-0.923320,0.000000
58.000000,0.002000,0.077133,0.839804,2.900817,-0.187094,-0.553711,-0.253595,-0.090801,-0.507353,-1.992509,0.002000,-0.265826,0.000000
59.000000,0.002000,-0.350668,0.313062,-0.463165,-2.301536,1.507027,1.743043,9.057240,-8.222259,12.482233,0.002000,-0.694850,0.000000
60.000000,0.002000,-0.003321,0.172548,-0.145144,-0.145418,-0.389890,0.931807,-0.998839,-11.858020,7.520083,0.002000,-0.873930,0.000000
61.000000,0.002000,0.136239,0.672550,0.328321,2.908916,0.754836,-0.337813,-2.696990,-12.694829,-7.710869,0.002000,-0.878689,0.000000
62.000000,0.002000,-2.274552,0.222709,1.529728,1.138070,0.096860,-2.174547,2.012589,-0.207567,-1.330275,0.002000,-0.028215,0.000000
63.000000,0.002000,-0.229107,-0.253447,0.170041,1.391920,-0.164514,0.442586,10.127323,15.517266,-9.078336,0.002000,-0.691746,0.000000
64.000000,0.002000,0.450359,-0.159357,0.055066,-0.295509,4.014495,0.798280,-15.591626,7.850309,-5.313676,0.002000,0.077133,0.000000
65.000000,0.002000,-0.413125,0.395026,-0.539239,-2.571968,-2.142287,-1.321649,7.469315,-7.863058,10.389551,0.002000,-0.350668,0.000000
66.000000,0.002000,-1.238360,0.150078,0.133500,0.625775,-0.769212,-1.056699,8.054727,-0.539149,-0.979664,0.002000,-0.003321,0.000000
67.000000,0.002000,-0.630842,2.693806,-1.109518,-0.648418,1.211713,-0.553105,0.548353,-1.857531,0.860553,0.002000,0.136239,0.000000
68.000000,0.002000,0.593153,-1.286105,0.691636,-0.308161,-0.498550,-1.887176,-2.176759,4.614015,-2.274448,0.002000,-2.274552,0.000000
69.000000,0.002000,-0.460335,1.173692,0.015702,1.819458,2.854566,2.408498,3.198089,-6.989490,2.595298,0.002000,-0.229107,0.000000
70.000000,0.002000,1.015117,-0.615772,-0.054319,1.278986,0.377229,-1.525118,-7.837296,4.753767,-0.784684,0.002000,0.450359,0.000000
71.000000,0.002000,0.328525,-0.040467,0.709748,-1.411184,-2.219014,0.728318,-7.079373,2.148235,-12.035486,0.002000,-0.413125,0.000000
72.000000,0.002000,-0.243442,-0.633960,0.395291,1.598437,2.755168,-0.307983,3.050236,11.760819,-6.368483,0.002000,-1.238360,0.000000
73.000000,0.002000,-0.943392,1.129628,0.188677,2.587150,-2.594085,1.201112,4.270124,-5.039914,-0.941190,0.002000,-0.630842,0.000000
74.000000,0.002000,0.061692,0.168622,0.453958,0.138662,-0.128262,1.928424,-1.535817,-6.582466,-18.372086,0.002000,0.593153,0.000000
75.000000,0.002000,0.555768,-0.843141,2.663679,-0.858756,-0.099870,1.129965,-0.396245,0.725282,-2.079290,0.002000,-0.460335,0.000000
76.000000,0.002000,0.061460,-0.793830,-0.962531,-0.499271,-0.019488,0.337741,-0.572262,5.300861,6.363538,0.002000,1.015117,0.000000
77.000000,0.002000,0.460947,0.287982,0.441449,2.080657,1.486058,0.549173,-10.304080,-4.720044,-10.104658,0.002000,0.328525,0.000000
78.000000,0.002000,0.381918,0.432071,-0.525708,-1.479039,-1.994627,-1.044627,-8.795621,-7.684835,9.281996,0.002000,-0.243442,0.000000
79.000000,0.002000,-0.149176,0.575185,0.609536,-3.274988,-0.596021,0.671024,1.904998,-9.585122,-8.578470,0.002000,-0.943392,0.000000
80.000000,0.002000,-1.430336,0.642270,0.426177,1.732208,-3.190864,0.452827,4.980479,-2.129764,-1.623388,0.002000,0.061692,0.000000
81.000000,0.002000,0.077195,-0.093739,-0.244550,-2.601700,-0.012794,0.114756,-5.977184,6.294120,10.788703,0.002000,0.555768,0.000000
82.000000,0.002000,0.467836,0.338525,0.185018,1.669789,1.062851,-4.537083,-14.137919,-7.826029,-6.830244,0.002000,0.061460,0.000000
83.000000,0.002000,0.978835,0.689472,0.025943,0.787720,-0.189939,2.462697,-7.575501,-4.642148,-0.342001,0.002000,0.460947,0.000000
84.000000,0.002000,0.483834,1.541437,-1.101179,-0.229911,0.784279,-0.866763,-1.097049,-3.300259,2.420290,0.002000,0.381918,0.000000
85.000000,0.002000,-0.006130,-0.112560,0.393680,-4.962221,2.895186,0.308626,-1.878136,7.477172,-17.001283,0.002000,-0.149176,0.000000
86.000000,0.002000,0.218638,-0.283763,-0.460182,-1.690992,3.479857,-1.069748,-9.281449,9.876794,14.339872,0.002000,-1.430336,0.000000
87.000000,0.002000,-0.196614,0.237720,-0.040342,2.491664,-4.799247,-0.360141,10.381138,-9.241138,0.470514,0.002000,0.077195,0.000000
88.000000,0.002000,-0.238922,0.392764,-0.065476,1.638555,2.718087,-0.204971,11.645540,-17.030830,2.847646,0.002000,0.467836,0.000000
89.000000,0.002000,0.707607,-0.506336,-0.313440,-4.170631,-0.229527,1.117582,-8.684541,7.556334,4.162829,0.002000,0.978835,0.000000
90.000000,0.002000,-0.034166,0.253605,0.055296,-1.181299,-0.584441,0.209518,2.310351,-19.167795,-5.344741,0.002000,0.483834,0.000000
91.000000,0.002000,-2.668123,-3.503421,-3.172908,0.220005,-0.730119,0.713470,0.322302,0.448016,0.376063,0.002000,-0.006130,0.000000
92.000000,0.002000,0.206950,-0.143642,-0.355206,2.452928,-0.907461,-2.616995,-10.140348,5.769070,16.308671,0.002000,0.218638,0.000000
93.000000,0.002000,0.302988,-0.599470,2.542556,1.311943,-0.977596,0.230837,-0.193439,0.646885,-2.510662,0.002000,-0.196614,0.000000
94.000000,0.002000,-0.465904,-0.523614,-1.356688,-2.635926,-0.654574,-2.316883,1.842979,2.280402,5.366224,0.002000,-0.238922,0.000000
95.000000,0.002000,0.347829,0.069913,-0.145050,-4.641281,-2.243371,0.731119,-19.004356,-1.395404,6.401992,0.002000,0.707607,0.000000
96.000000,0.002000,0.622409,0.767089,-0.403182,-0.065432,0.865199,-1.289838,-6.866214,-7.290335,4.093968,0.002000,-0.034166,0.000000
97.000000,0.002000,-0.912596,-0.013329,-0.271330,0.910255,-1.190923,0.631281,12.043733,0.517163,3.012666,0.002000,-2.668123,0.000000
98.000000,0.002000,-0.051448,0.498510,-0.767878,0.449826,1.869284,-4.639482,1.482315,-6.240608,11.025803,0.002000,0.206950,0.000000
99.000000,0.002000,0.028227,0.079443,-0.207710,-0.444983,0.345176,1.557619,-13.450319,-5.386084,19.342108,0.002000,0.302988,0.000000
100.000000,0.002000,0.255149,0.026346,-0.243363,3.314331,-2.657229,0.185419,-13.983599,-3.149120,11.337161,0.002000,-0.465904,0.000000
101.000000,0.002000,0.468430,0.930971,-1.035950,1.191341,-0.677178,-0.493439,-2.118545,-4.214781,4.894331,0.002000,0.347829,0.000000
102.000000,0.002000,0.454657,-0.152193,-0.435895,-0.359714,2.194589,-2.707650,-11.228677,4.962478,11.874088,0.002000,0.622409,0.000000
103.000000,0.002000,1.604070,-2.042764,1.333463,-0.065632,0.612232,-0.481008,-1.162534,1.486912,-0.958023,0.002000,-0.912596,0.000000
104.000000,0.002000,0.124750,0.015740,-0.793083,1.087075,-1.769476,1.428936,-2.895991,0.828398,13.779393,0.002000,-0.051448,0.000000
105.000000,0.002000,-1.449322,-0.745869,-0.823648,-0.530890,-1.574775,1.729489,3.713090,1.829769,2.065580,0.002000,0.028227,0.000000
106.000000,0.002000,-0.031396,0.025772,-0.370500,0.632628,1.943531,-0.261692,-0.356898,-1.346788,19.297467,0.002000,0.255149,0.000000
107.000000,0.002000,-0.143036,-0.310230,-0.614820,-0.579986,-0.969763,-0.010062,2.796768,8.190395,13.169195,0.002000,0.468430,0.000000
108.000000,0.002000,-0.746031,-0.447906,0.183386,1.998770,1.381298,0.091449,9.370037,6.647245,-2.809670,0.002000,0.454657,0.000000
109.000000,0.002000,0.427568,0.289117,-0.133553,1.101923,-2.806616,1.835399,-16.453546,-9.335017,4.430312,0.002000,1.604070,0.000000
110.000000,0.002000,-0.747650,0.975940,1.982368,-0.766537,0.601797,0.370979,0.998782,-1.226986,-2.673535,0.002000,0.124750,0.000000
111.000000,0.002000,0.279804,-0.494776,0.301333,1.684611,0.630992,-1.639729,-6.376228,11.436396,-6.592462,0.002000,-1.449322,0.000000
112.000000,0.002000,-1.903532,1.801136,-1.546672,0.275988,0.757453,-0.248262,1.337045,-1.238572,1.055408,0.002000,-0.031396,0.000000
113.000000,0.002000,0.583712,-5.031536,-3.305328,0.827367,0.287350,0.663549,-0.055614,0.449263,0.291555,0.002000,-0.143036,0.000000
114.000000,0.002000,0.648249,0.137637,-0.569085,0.384344,2.090711,1.660761,-10.195647,-2.161916,9.127340,0.002000,-0.746031,0.000000
115.000000,0.002000,0.581844,-0.507802,-0.203743,1.073048,-1.540338,-1.104957,-9.462687,10.380828,3.569732,0.002000,0.427568,0.000000
116.000000,0.002000,-0.138157,0.190589,-0.128525,-1.127627,-0.127997,-0.111601,4.437620,-7.382010,8.126656,0.002000,-0.747650,0.000000
117.000000,0.002000,-0.159223,0.201043,-0.126779,1.953425,2.958052,-0.357789,16.576576,-9.378789,3.436869,0.002000,0.279804,0.000000
118.000000,0.002000,-0.264058,-0.050916,-0.292708,-1.052725,3.283487,2.949878,11.961597,5.194235,12.969668,0.002000,-1.903532,0.000000
119.000000,0.002000,-0.413551,-0.177096,-1.351469,-0.214325,-0.705362,2.079184,1.740167,1.118455,6.322066,0.002000,0.583712,0.000000
120.000000,0.002000,-0.036973,-0.103847,-0.308755,0.939168,2.952315,-0.532378,0.356774,9.415593,16.257794,0.002000,0.648249,0.000000
121.000000,0.002000,0.361050,0.021896,0.349876,1.918159,1.691915,0.974240,-13.152433,1.172834,-12.957757,0.002000,0.581844,0.000000
122.000000,0.002000,0.036654,0.275826,0.085027,-1.221903,2.068796,-1.284738,-7.535502,-14.472491,-6.867194,0.002000,-0.138157,0.000000
123.000000,0.002000,-1.331208,-0.830271,-0.841894,0.825737,-0.316892,0.635209,3.460394,2.254058,2.269968,0.002000,-0.159223,0.000000
124.000000,0.002000,0.291424,-0.093434,0.130606,1.923590,-0.353553,4.113889,-15.232189,7.546593,-5.466598,0.002000,-0.264058,0.000000
125.000000,0.002000,-0.867560,0.259221,-0.681861,-0.263274,0.053605,-1.244176,8.398850,-2.378441,5.891523,0.002000,-0.413551,0.000000
126.000000,0.002000,-0.519734,-0.964150,1.862886,-0.170096,-1.477846,-0.149256,0.767070,1.601741,-2.951966,0.002000,-0.036973,0.000000
127.000000,0.002000,1.777015,-1.031408,0.165530,-0.080816,0.946903,-1.742809,-3.012034,2.024104,-0.272604,0.002000,0.361050,0.000000
128.000000,0.002000,0.013595,-0.134777,-0.110089,-1.389507,-6.680455,0.412330,1.029172,13.637464,5.744533,0.002000,0.036654,0.000000
129.000000,0.002000,-0.802770,-0.926323,-0.424816,2.635497,1.575745,0.330531,4.091268,5.143951,1.858806,0.002000,-1.331208,0.000000
130.000000,0.002000,1.032379,-0.482155,0.246853,2.821289,0.273771,1.346198,-6.895600,3.984295,-2.392263,0.002000,0.291424,0.000000
131.000000,0.002000,0.229989,-0.016842,-0.542619,0.223966,1.680870,-1.902975,-7.508443,3.010979,17.231107,0.002000,-0.867560,0.000000
132.000000,0.002000,-0.127200,0.561297,-0.422004,-3.237424,-2.098743,-1.014594,3.288588,-12.043974,10.889897,0.002000,-0.519734,0.000000
133.000000,0.002000,0.008109,-1.400236,-1.459293,2.028902,-1.684722,-0.557518,-0.122516,2.670120,2.668751,0.002000,1.777015,0.000000
134.000000,0.002000,-0.884656,1.226888,1.805472,-1.303965,1.255590,0.211946,1.188465,-1.492605,-2.403610,0.002000,0.013595,0.000000
135.000000,0.002000,-0.182787,1.171327,2.329817,-0.143472,-0.977222,0.003877,0.128374,-1.157513,-2.294511,0.002000,-0.802770,0.000000
136.000000,0.002000,0.079377,-0.132508,-0.344422,0.787644,-3.235670,-1.576651,-5.925090,7.246845,20.853809,0.002000,1.032379,0.000000
137.000000,0.002000,-0.066246,-0.134201,0.306286,-1.377334,-3.977046,1.804215,-0.495741,12.706409,-18.304905,0.002000,0.229989,0.000000
138.000000,0.002000,1.655578,0.988716,-0.189317,-0.278295,1.134949,0.211578,-3.674600,-2.014893,0.301381,0.002000,-0.127200,0.000000
139.000000,0.002000,0.458170,1.216904,0.324455,1.497542,1.117429,0.410466,-2.636198,-6.644896,-1.974286,0.002000,0.008109,0.000000
140.000000,0.002000,-1.101364,-1.632238,0.365832,-0.391645,0.645929,2.189757,2.042558,3.096637,-0.711311,0.002000,-0.884656,0.000000
141.000000,0.002000,1.128856,-1.025602,-1.880401,-0.966541,2.354500,0.814527,-1.446441,1.347852,2.246375,0.002000,-0.182787,0.000000
142.000000,0.002000,0.465992,0.547818,-0.257187,-0.135898,-1.897057,0.473493,-10.972054,-10.849212,5.904511,0.002000,0.079377,0.000000
143.000000,0.002000,0.936052,5.725057,1.674373,0.087315,-0.472710,-0.110402,-0.088243,-0.523131,-0.156420,0.002000,-0.066246,0.000000
144.000000,0.002000,-0.156947,-0.164267,-0.693983,-0.790216,0.298519,-1.231837,3.407952,3.260001,15.065203,0.002000,1.655578,0.000000
145.000000,0.002000,-0.618984,-0.147741,-0.174253,1.233798,1.438854,-2.829283,15.763615,5.157040,3.180029,0.002000,0.458170,0.000000
146.000000,0.002000,0.139433,-0.602789,0.288401,0.096015,-1.434186,-0.494239,-2.285262,12.513992,-7.306354,0.002000,-1.101364,0.000000
147.000000,0.002000,-0.240540,0.497107,0.318570,-2.860609,0.847159,1.508753,5.719701,-12.436487,-10.012985,0.002000,1.128856,0.000000
148.000000,0.002000,1.131103,-1.042908,1.025133,-0.599116,1.564387,-1.502275,-2.728221,2.426749,-2.361214,0.002000,0.465992,0.000000
149.000000,0.002000,0.456957,-0.019333,-0.265900,-1.765990,1.205871,-0.942843,-16.563746,1.419264,8.097481,0.002000,0.936052,0.000000
150.000000,0.002000,0.339277,0.583806,-0.298266,-2.178325,1.067176,-2.286066,-6.093446,-12.336210,5.931984,0.002000,-0.156947,0.000000
151.000000,0.002000,1.341176,-0.474588,-0.375972,-0.040059,-0.997954,-0.514889,-5.639127,2.271641,1.541102,0.002000,-0.618984,0.000000
152.000000,0.002000,0.224129,-0.214938,1.124117,-0.772636,1.825522,2.131466,-1.861894,1.892040,-8.020128,0.002000,0.139433,0.000000
153.000000,0.002000,-1.584554,-1.196157,-0.462753,-0.935923,0.850849,-0.620097,2.994433,2.283785,0.958396,0.002000,-0.240540,0.000000
154.000000,0.002000,-0.402400,1.120355,-0.149928,0.582164,-0.975735,0.678826,2.926731,-8.450265,1.270631,0.002000,1.131103,0.000000
155.000000,0.002000,0.058367,0.082668,0.099514,-0.131252,-1.553241,0.469447,-7.448097,-1.208790,-10.378758,0.002000,0.456957,0.000000
156.000000,0.002000,1.248037,-0.926177,-2.698550,0.659300,0.226453,2.073079,-0.776205,0.604584,1.627772,0.002000,0.339277,0.000000
157.000000,0.002000,2.994612,2.808505,2.152332,-0.895491,-0.416693,-0.705475,-0.594047,-0.542836,-0.441944,0.002000,1.341176,0.000000
158.000000,0.002000,0.129646,0.137928,0.359035,2.571689,0.831042,2.259032,-7.274948,-4.509962,-18.583659,0.002000,0.224129,0.000000
159.000000,0.002000,0.479470,0.319908,0.960681,2.694075,0.943390,-0.425831,-4.301467,-2.191463,-8.240698,0.002000,-1.584554,0.000000
160.000000,0.002000,-0.831475,0.820910,-0.027538,1.343509,-2.508155,-1.265129,6.952422,-6.394673,0.013720,0.002000,-0.402400,0.000000
161.000000,0.002000,-0.226339,0.238647,0.253241,0.967892,4.078250,-2.034071,12.109927,-7.033082,-13.087869,0.002000,0.058367,0.000000
162.000000,0.002000,-1.543735,-2.263366,-3.052902,0.502558,1.406194,-0.197930,0.435581,0.641560,0.852929,0.002000,1.248037,0.000000
163.000000,0.002000,-2.526679,-0.145954,0.503534,-0.115827,-0.806085,-0.574828,2.312770,-0.089977,-0.431480,0.002000,2.994612,0.000000
164.000000,0.002000,-0.136355,-0.263816,0.105206,-1.720111,1.431128,1.095464,9.082289,16.297037,-4.789381,0.002000,0.129646,0.000000
165.000000,0.002000,-0.283152,-4.933113,2.104226,0.232322,0.792563,0.308964,0.030727,0.610808,-0.261642,0.002000,0.479470,0.000000
166.000000,0.002000,0.404331,-0.817957,1.052794,-0.155292,-1.653754,0.057561,-2.311332,3.867893,-4.898738,0.002000,-0.831475,0.000000
167.000000,0.002000,0.653423,0.274183,-0.058096,-1.896234,-0.681679,2.800411,-17.784280,-6.345431,-0.614634,0.002000,-0.226339,0.000000
168.000000,0.002000,-0.142764,0.160288,0.259823,0.615474,2.566717,1.303189,8.990106,-11.716132,-20.056656,0.002000,-1.543735,0.000000
169.000000,0.002000,0.119983,0.420331,-0.070599,-0.523536,-4.328872,2.912941,-6.921166,-17.367097,0.016798,0.002000,-2.526679,0.000000
170.000000,0.002000,-0.417153,0.935046,-0.587503,0.410473,-3.477006,2.817216,3.328055,-7.405769,4.711714,0.002000,-0.136355,0.000000
171.000000,0.002000,-0.572063,-2.071538,1.897714,-1.138684,-0.622910,0.372152,0.459910,1.587552,-1.515920,0.002000,-0.283152,0.000000
172.000000,0.002000,-0.298091,-1.555049,1.228343,-1.079520,2.158181,-1.999026,0.119184,3.124236,-2.166094,0.002000,0.404331,0.000000
173.000000,0.002000,-0.131885,-0.196920,-0.009298,4.742718,-1.738720,-0.944780,7.849190,16.440980,0.093307,0.002000,0.653423,0.000000
174.000000,0.002000,-1.619757,1.102800,1.152638,-2.032619,-0.136980,1.390768,2.400241,-1.524439,-1.741481,0.002000,-0.142764,0.000000
175.000000,0.002000,0.791063,1.172853,0.109153,2.707841,-0.359781,-1.447308,-4.192993,-5.544035,-0.622867,0.002000,0.119983,0.000000
176.000000,0.002000,0.666450,1.592993,-0.688806,0.887158,-0.513191,-1.362227,-1.681942,-3.834352,1.661012,0.002000,-0.417153,0.000000
177.000000,0.002000,0.732318,-5.933259,-3.015113,-0.655619,-0.131402,-0.811059,-0.050825,0.391264,0.194709,0.002000,-0.572063,0.000000
178.000000,0.002000,-0.171745,0.383787,0.159709,-1.013466,-1.564308,-0.554183,7.143177,-13.742195,-8.431988,0.002000,-0.298091,0.000000
179.000000,0.002000,0.107169,0.021847,0.356439,1.560048,2.600716,-2.557455,-8.457627,1.830190,-16.167756,0.002000,-0.131885,0.000000
180.000000,0.002000,-0.565888,-0.551323,-0.178387,-0.133338,-1.427717,0.295490,9.198296,10.142394,2.428015,0.002000,-1.619757,0.000000
181.000000,0.002000,0.209614,0.562144,1.295144,0.127978,-1.631993,-0.724163,-1.373894,-1.343758,-6.004029,0.002000,0.791063,0.000000
182.000000,0.002000,-1.302224,1.036821,0.865848,0.151568,2.172578,1.547677,3.099357,-2.351876,-2.131425,0.002000,0.666450,0.000000
183.000000,0.002000,0.567004,-3.540237,-4.047090,0.281660,-0.507340,0.828078,-0.075620,0.438105,0.500459,0.002000,0.732318,0.000000
184.000000,0.002000,-0.025122,0.136896,0.447315,-2.818114,1.107742,2.161372,1.765696,-4.550098,-19.205054,0.002000,-0.171745,0.000000
185.000000,0.002000,0.119007,0.216726,-0.237744,3.571814,-4.152245,-0.645082,-6.420023,-10.605399,9.350547,0.002000,0.107169,0.000000
186.000000,0.002000,0.794774,-1.800394,-0.490778,0.183524,1.801712,2.286491,-1.388187,3.366241,0.894297,0.002000,-0.565888,0.000000
187.000000,0.002000,-0.269320,0.096443,0.210166,-2.689801,6.264314,-0.007264,14.036956,-1.197776,-14.449191,0.002000,0.209614,0.000000
188.000000,0.002000,0.122560,-0.683843,0.513757,-0.102832,-1.077261,-3.009604,-1.844429,9.429837,-6.762258,0.002000,-1.302224,0.000000
189.000000,0.002000,-2.758301,-0.448198,1.424760,0.344163,1.060984,-0.161132,1.653524,0.295874,-0.881231,0.002000,0.567004,0.000000
190.000000,0.002000,-0.011160,0.398520,0.147874,2.110545,1.049197,2.191880,0.765425,-18.479492,-9.514693,0.002000,-0.025122,0.000000
191.000000,0.002000,-0.320579,0.479800,0.327934,1.052449,-0.902978,-2.322823,8.633673,-9.209900,-9.976902,0.002000,0.119007,0.000000
192.000000,0.002000,0.977166,-0.150130,0.688638,-1.730000,-0.559766,0.221526,-6.622018,1.456590,-4.825538,0.002000,0.794774,0.000000
193.000000,0.002000,-0.238665,0.086348,-0.289000,-1.739895,-1.447682,-2.457385,11.095000,-3.645773,14.510363,0.002000,-0.269320,0.000000
194.000000,0.002000,0.418247,0.858379,-0.238692,-1.296116,4.683576,0.717598,-5.671652,-9.933333,2.610498,0.002000,0.122560,0.000000
195.000000,0.002000,-0.084697,0.461798,-0.861814,-1.901420,-0.584698,2.682627,1.253090,-5.097851,10.898585,0.002000,-2.758301,0.000000
196.000000,0.002000,0.569151,0.040851,-0.392726,1.010396,-1.514139,0.914702,-11.689795,-0.548530,9.614063,0.002000,-0.011160,0.000000
197.000000,0.002000,0.746687,-3.925300,-2.284243,0.026751,1.595749,0.095703,-0.155664,0.777515,0.443310,0.002000,-0.320579,0.000000
198.000000,0.002000,0.256155,0.114280,0.585900,-0.163399,-0.647544,1.961321,-6.910416,-0.291542,-14.419094,0.002000,0.977166,0.000000
199.000000,0.002000,0.304756,0.109582,-0.598861,0.273366,1.620570,1.428042,-8.356346,-0.393915,14.363781,0.002000,-0.238665,0.000000
200.000000,0.002000,0.140053,-0.171872,0.172463,0.986979,3.359144,2.724985,-15.083166,8.263916,-2.883627,0.002000,0.418247,0.000000
201.000000,0.002000,-2.172406,1.185883,-1.478841,0.525631,-0.234306,0.444144,1.701498,-0.865727,1.232116,0.002000,-0.084697,0.000000
202.000000,0.002000,0.807406,0.180851,-0.327252,3.681207,-0.622926,-2.251283,-11.888150,0.056132,5.499724,0.002000,0.569151,0.000000
203.000000,0.002000,0.089451,0.691657,-0.839930,-0.183102,2.989891,0.351756,-0.903643,-6.399603,8.434811,0.002000,0.746687,0.000000
204.000000,0.002000,0.189821,-1.054604,-0.741895,2.311618,-0.568725,0.569087,-1.173091,6.245528,4.170467,0.002000,0.256155,0.000000
205.000000,0.002000,0.396476,0.241692,-0.360012,-1.795256,-4.079692,-0.797597,-12.661090,-8.056716,10.842066,0.002000,0.304756,0.000000
206.000000,0.002000,0.256374,0.155775,0.052461,-0.740162,0.519596,-2.978541,-15.705051,-6.679219,-3.472842,0.002000,0.140053,0.000000
207.000000,0.002000,2.612415,-1.351402,0.567514,0.983371,-0.363207,0.043583,-1.741275,0.970799,-0.392834,0.002000,-2.172406,0.000000
208.000000,0.002000,0.398587,-0.693208,-0.386932,-2.135772,1.258554,-0.583010,-6.418542,10.896218,4.995081,0.002000,0.807406,0.000000
209.000000,0.002000,-0.359117,-0.171715,-0.337313,0.201000,-1.159729,1.393914,10.020842,9.113517,10.068105,0.002000,0.089451,0.000000
210.000000,0.002000,0.918117,0.196333,-0.514755,-2.304598,0.613192,-1.603170,-8.698902,-1.702861,5.197185,0.002000,0.189821,0.000000
211.000000,0.002000,0.437584,-0.414893,-0.174466,-0.015943,-0.930271,1.294365,-12.408886,12.781239,3.273314,0.002000,0.396476,0.000000
212.000000,0.002000,0.140034,-0.126361,0.020343,0.859180,-0.205244,-0.817573,-12.008617,11.395580,-5.296252,0.002000,0.256374,0.000000
213.000000,0.002000,0.090166,-0.153183,0.533923,-1.851189,0.395067,2.483486,-2.983352,5.892409,-16.387056,0.002000,2.612415,0.000000
214.000000,0.002000,-1.598314,-0.093386,-1.464301,1.732500,-0.849372,0.394166,2.623661,0.219500,2.310666,0.002000,0.398587,0.000000
215.000000,0.002000,-0.966037,0.950453,0.047166,1.245125,-0.984146,2.274813,5.916296,-5.084459,-0.413434,0.002000,-0.359117,0.000000
216.000000,0.002000,0.102887,-0.478325,-0.031362,0.391955,-3.435786,1.297042,-3.036114,17.650377,-1.413117,0.002000,0.918117,0.000000
217.000000,0.002000,0.268788,-0.401777,-0.452863,1.906999,-0.253999,-4.417559,-6.969064,12.220340,11.993279,0.002000,0.437584,0.000000
218.000000,0.002000,-2.673027,-0.304658,0.053160,1.412953,1.706791,1.241048,2.470235,0.333329,-0.036563,0.002000,0.140034,0.000000
219.000000,0.002000,0.205239,0.046387,0.180480,0.276365,-1.153220,0.138649,-12.508217,-1.015809,-13.651544,0.002000,0.090166,0.000000
220.000000,0.002000,-0.835408,-0.154433,-0.451647,3.920729,0.533278,0.028367,10.944192,2.422210,5.541996,0.002000,-1.598314,0.000000
221.000000,0.002000,1.206399,1.134230,-0.820853,1.006262,2.836169,-0.203374,-3.057182,-2.707250,2.065653,0.002000,-0.966037,0.000000
222.000000,0.002000,0.172805,-0.004907,-0.146026,-1.344244,-0.417047,-1.177536,-12.948101,2.661443,11.051373,0.002000,0.102887,0.000000
223.000000,0.002000,-0.907379,1.568242,0.929398,-0.951485,1.091897,1.704697,1.670712,-3.003758,-1.898372,0.002000,0.268788,0.000000
224.000000,0.002000,-0.266047,-0.076653,1.446195,-0.923515,2.231247,2.864455,3.000879,0.961330,-6.066914,0.002000,-2.673027,0.000000
225.000000,0.002000,-0.058387,0.883843,-0.631936,2.066435,1.539150,-0.376478,0.753886,-8.706311,5.963992,0.002000,0.205239,0.000000
226.000000,0.002000,0.062518,0.681528,-0.176167,-0.777058,1.074101,-0.767897,-2.576755,-14.925431,3.682918,0.002000,-0.835408,0.000000
227.000000,0.002000,0.107081,-0.124914,-0.196485,4.581719,-1.204882,-2.039940,-7.064956,9.259362,9.607799,0.002000,1.206399,0.000000
228.000000,0.002000,0.004318,0.275155,-1.785649,1.986880,1.873553,-1.134011,0.026718,-0.670902,4.688126,0.002000,0.172805,0.000000
229.000000,0.002000,4.438819,0.336622,-1.408443,-0.988529,1.379733,-0.686482,-0.851219,-0.054998,0.261102,0.002000,-0.907379,0.000000
230.000000,0.002000,-1.492377,-3.032359,-1.959077,0.102551,0.988639,1.203280,0.482594,0.979761,0.622398,0.002000,-0.266047,0.000000
231.000000,0.002000,-0.668239,0.351768,-1.117747,-1.400828,-0.454577,-0.325915,3.643631,-1.917479,6.730292,0.002000,-0.058387,0.000000
232.000000,0.002000,0.944215,1.131857,-0.068957,-1.781973,-1.886880,0.346085,-4.670882,-4.739285,0.256211,0.002000,0.062518,0.000000
233.000000,0.002000,-0.098150,-0.288773,0.626869,-0.482453,-1.740093,1.597278,2.741265,4.465519,-11.704751,0.002000,0.107081,0.000000
234.000000,0.002000,0.228526,0.234841,-0.675869,1.007073,-4.812383,0.696162,-5.024341,-4.178411,14.990286,0.002000,0.004318,0.000000
235.000000,0.002000,0.814664,-0.936632,0.188715,0.375445,-2.387216,0.797762,-4.927167,5.899957,-1.028109,0.002000,4.438819,0.000000
236.000000,0.002000,-2.251543,-0.246051,-0.731165,-0.538949,1.224391,-1.395567,2.817227,0.453666,0.902269,0.002000,-1.492377,0.000000
237.000000,0.002000,0.370550,0.408609,-0.117955,1.804241,-2.850514,-2.806305,-10.799544,-12.370043,4.725721,0.002000,-0.668239,0.000000
238.000000,0.002000,-0.206372,-0.504240,0.006791,-2.998452,-0.952318,0.859316,2.597094,16.227220,1.122977,0.002000,0.944215,0.000000
239.000000,0.002000,-0.639575,0.816443,0.594815,-0.890386,-1.548508,0.756834,4.669957,-5.843635,-4.609468,0.002000,-0.098150,0.000000
240.000000,0.002000,0.368090,0.038776,0.004703,-0.358436,-1.987564,1.278471,-18.237733,1.816250,-3.057802,0.002000,0.228526,0.000000
241.000000,0.002000,-0.389895,0.194378,-0.113052,3.398225,2.817407,0.178257,17.182679,-6.853907,4.053685,0.002000,0.814664,0.000000
242.000000,0.002000,0.890849,-1.390015,2.104607,-0.215096,0.872360,-0.570984,-0.815532,1.262251,-1.839108,0.002000,-2.251543,0.000000
243.000000,0.002000,0.100057,0.565137,-0.446239,0.691314,1.025018,-1.359031,-2.558612,-13.133111,10.059536,0.002000,0.370550,0.000000
244.000000,0.002000,-0.485545,0.062310,0.309220,-1.124619,-1.162239,-1.617613,15.321451,0.401394,-11.265148,0.002000,-0.206372,0.000000
245.000000,0.002000,3.188335,2.928141,-7.601242,-0.648390,0.622765,-0.989580,-0.095625,-0.085911,0.227348,0.002000,-0.639575,0.000000
246.000000,0.002000,-0.658107,0.442775,-0.475398,-3.473105,2.665487,-2.443328,8.693673,-5.358987,6.274343,0.002000,0.368090,0.000000
247.000000,0.002000,1.089367,1.126308,0.631859,2.836352,0.388159,-1.184793,-3.407476,-3.253267,-2.010841,0.002000,-0.389895,0.000000
248.000000,0.002000,-0.782678,0.422975,-0.630382,0.235425,-0.840841,-0.955281,7.424985,-3.980076,6.500671,0.002000,0.890849,0.000000
249.000000,0.002000,-0.068499,0.107551,-0.029097,-2.327361,-2.228389,-0.089955,4.466782,-5.553821,2.865895,0.002000,0.100057,0.000000
250.000000,0.002000,0.173441,-0.265550,-0.759660,-1.214558,2.835012,1.275476,-1.941557,4.043193,12.413094,0.002000,-0.485545,0.000000
251.000000,0.002000,-0.737281,2.177060,-0.452875,-1.580470,1.228237,-1.258525,1.025130,-2.894485,0.606530,0.002000,3.188335,0.000000
252.000000,0.002000,0.406501,0.783938,-0.465482,-1.391313,0.546529,-0.500602,-4.242983,-10.107402,6.903835,0.002000,-0.658107,0.000000
253.000000,0.002000,0.180593,-0.336144,-0.042519,-2.576060,-1.452794,-0.379976,-5.829715,16.714546,1.717363,0.002000,1.089367,0.000000
254.000000,0.002000,0.214153,-0.483180,0.365476,-4.392827,-1.436688,0.741509,-5.672638,14.391655,-8.053398,0.002000,-0.782678,0.000000
255.000000,0.002000,-0.262613,0.427759,-0.066611,-1.048837,-3.195979,-2.334392,10.412121,-18.979338,1.799669,0.002000,-0.068499,0.000000
256.000000,0.002000,0.142936,1.481377,0.997776,0.671622,0.747580,0.685229,-0.225311,-3.460599,-2.871251,0.002000,0.173441,0.000000
257.000000,0.002000,0.040887,-0.536292,-0.770689,-1.725395,-0.453873,-0.007427,-0.782710,7.727087,9.893994,0.002000,-0.737281,0.000000
258.000000,0.002000,0.183962,0.225465,0.109170,-0.356374,2.576559,0.150760,-12.534050,-10.491591,-7.499669,0.002000,0.406501,0.000000
259.000000,0.002000,0.331312,-0.133740,-0.461486,2.879745,2.866107,-2.156057,-10.667437,4.527822,15.056772,0.002000,0.180593,0.000000
260.000000,0.002000,-0.173571,1.334921,-1.177705,0.883007,1.863377,0.665409,0.481405,-3.600322,3.141873,0.002000,0.214153,0.000000
261.000000,0.002000,-0.046502,-0.859898,-0.243800,-2.371093,-1.311760,-0.818705,0.450566,11.706745,2.472829,0.002000,-0.262613,0.000000
262.000000,0.002000,0.941717,0.345267,-0.859513,2.915167,-1.077923,-0.089202,-5.410538,-1.592857,4.930207,0.002000,0.142936,0.000000
263.000000,0.002000,0.574708,-0.035103,0.918745,1.293176,0.453842,0.349781,-5.095254,0.651071,-7.850620,0.002000,0.040887,0.000000
264.000000,0.002000,0.672588,0.461611,0.675053,-1.964606,-0.256379,-2.000560,-7.007611,-3.877326,-6.941963,0.002000,0.183962,0.000000
265.000000,0.002000,0.302694,0.006361,0.901754,1.077442,-1.553207,-0.223629,-3.761142,0.240676,-10.835897,0.002000,0.331312,0.000000
266.000000,0.002000,-0.019713,-0.755664,-1.110494,-0.540577,1.840526,1.802323,0.011815,4.351569,5.971711,0.002000,-0.173571,0.000000
267.000000,0.002000,-0.399038,-0.755867,0.734823,2.361312,1.704918,-1.156045,3.437462,5.936900,-5.709782,0.002000,-0.046502,0.000000
268.000000,0.002000,0.043300,-0.944379,0.534422,-1.652982,0.022968,0.761431,0.032566,8.635513,-5.087857,0.002000,0.941717,0.000000
269.000000,0.002000,-0.081987,-0.103727,-0.206627,-0.636985,0.652240,1.829403,2.347146,11.212630,10.129549,0.002000,0.574708,0.000000
270.000000,0.002000,-0.886049,-0.648293,-0.794851,2.243840,-1.397851,1.846947,4.591409,3.540809,4.212985,0.002000,0.672588,0.000000
271.000000,0.002000,0.073558,-0.506587,-0.234786,1.734161,-0.222476,-1.953455,-1.039212,18.240456,6.072945,0.002000,0.302694,0.000000
272.000000,0.002000,0.147275,0.574382,-0.910480,1.362565,-3.037671,-3.155254,-1.410490,-5.225451,9.335080,0.002000,-0.019713,0.000000
273.000000,0.002000,0.827890,-0.327166,-0.081431,0.802911,-2.714447,1.393351,-12.084427,4.821321,0.281662,0.002000,-0.399038,0.000000
274.000000,0.002000,0.090014,0.078742,0.291240,-0.967320,0.026685,-0.538666,-9.716288,-1.417250,-17.989538,0.002000,0.043300,0.000000
275.000000,0.002000,-0.331592,0.076023,-0.186551,1.071292,-4.291482,-2.532353,18.310914,-0.362811,6.885138,0.002000,-0.081987,0.000000
276.000000,0.002000,-0.144758,2.113497,0.946150,-0.122057,2.093216,0.396621,0.277013,-2.907557,-1.312548,0.002000,-0.886049,0.000000
277.000000,0.002000,-0.733066,0.274200,0.204696,-0.955093,1.287362,-0.892783,12.898022,-4.348703,-4.505957,0.002000,0.073558,0.000000
278.000000,0.002000,-0.029698,-0.070211,-0.011477,3.574892,1.185303,-0.804371,-4.539906,4.941181,3.125677,0.002000,0.147275,0.000000
279.000000,0.002000,-0.073998,-0.398376,-0.343699,0.655949,3.058250,1.241964,3.511138,15.523394,10.644761,0.002000,0.827890,0.000000
280.000000,0.002000,0.422612,-0.120406,-0.248527,-1.903892,-0.426550,0.003413,-12.788252,4.349737,10.103474,0.002000,0.090014,0.000000
281.000000,0.002000,0.706162,0.889531,-0.406501,-0.402570,1.499741,-1.611405,-5.722960,-6.308859,3.419405,0.002000,-0.331592,0.000000
282.000000,0.002000,-1.465395,-0.802637,-1.129238,1.523126,-0.601205,-2.014982,2.858290,1.523557,2.203351,0.002000,-0.144758,0.000000
283.000000,0.002000,0.284946,0.317495,-0.024471,3.780659,-0.406221,-2.098043,-11.332226,-12.951399,-1.976682,0.002000,-0.733066,0.000000
284.000000,0.002000,-4.436569,-1.448792,2.142704,0.607870,-0.399582,-0.604421,0.641263,0.210689,-0.311771,0.002000,-0.029698,0.000000
285.000000,0.002000,0.357608,-0.635600,-0.416210,-0.751362,-0.291151,-1.178890,-6.117599,10.913551,6.662041,0.002000,-0.073998,0.000000
286.000000,0.002000,-1.067250,0.598823,0.045593,-1.395478,-2.613440,-0.655537,7.683500,-4.076528,-0.794532,0.002000,0.422612,0.000000
287.000000,0.002000,0.257499,0.566744,0.046657,0.125807,1.471497,0.359101,-8.026112,-15.312448,-2.382392,0.002000,0.706162,0.000000
288.000000,0.002000,0.009605,0.039726,0.333645,-1.147761,0.830748,-1.248056,-3.309308,-3.225245,-23.639606,0.002000,-1.465395,0.000000
289.000000,0.002000,0.090804,0.269728,-0.045758,1.898765,-0.629993,0.680951,-4.048394,-11.820528,3.249698,0.002000,0.284946,0.000000
290.000000,0.002000,0.459541,0.501115,-0.104576,0.116967,-0.205947,0.207765,-11.769457,-11.723827,1.248634,0.002000,-4.436569,0.000000
291.000000,0.002000,-2.441352,1.396313,0.174555,0.579592,0.155177,-0.951061,2.008083,-1.092195,-0.166208,0.002000,0.357608,0.000000
292.000000,0.002000,0.438142,0.488891,0.047678,1.818467,-0.256651,2.156373,-11.773002,-10.574319,-2.701166,0.002000,-1.067250,0.000000
293.000000,0.002000,0.381471,-0.099115,0.056005,1.976738,0.507397,-0.475933,-19.021931,5.973234,-6.155774,0.002000,0.257499,0.000000
294.000000,0.002000,-0.764714,1.462079,0.761306,0.765474,0.922406,1.770655,2.002679,-3.778622,-2.169575,0.002000,0.009605,0.000000
295.000000,0.002000,0.056302,0.012099,-0.362611,-1.789958,-0.619120,1.077545,-3.380624,0.192556,18.310501,0.002000,0.090804,0.000000
296.000000,0.002000,0.345721,-0.477817,0.196649,1.449237,-0.268388,-2.674594,-8.470118,12.402957,-5.412476,0.002000,0.459541,0.000000
297.000000,0.002000,0.165829,-0.281347,-0.076345,-0.177003,-2.127399,0.846616,-4.785110,13.716956,-0.161045,0.002000,-2.441352,0.000000
298.000000,0.002000,-0.542410,1.550083,-0.515528,0.677856,0.357635,-0.169493,1.592514,-4.746953,1.688776,0.002000,0.438142,0.000000
299.000000,0.002000,1.108606,2.278822,0.513735,-1.648773,-1.177749,-0.977698,-1.105104,-2.349785,-0.534793,0.002000,0.381471,0.000000
300.000000,0.002000,-0.022611,3.040217,1.668802,-1.037769,0.947151,-0.730303,0.026945,-1.389466,-0.817037,0.002000,-0.764714,0.000000
301.000000,0.002000,0.008599,-0.108849,-0.170808,-3.572588,-4.062151,-1.328078,0.192321,9.589833,9.596210,0.002000,0.056302,0.000000
302.000000,0.002000,-0.898815,0.560433,-0.059529,-1.060795,0.230953,1.419595,9.070662,-4.975268,1.105829,0.002000,0.345721,0.000000
303.000000,0.002000,-0.437746,1.277677,-1.720388,-1.945079,0.241803,-1.467769,0.626825,-1.978121,2.987840,0.002000,0.165829,0.000000
304.000000,0.002000,0.009945,0.293970,0.116162,-3.980503,-2.129176,0.664081,-3.539966,-16.983059,-9.712266,0.002000,-0.542410,0.000000
305.000000,0.002000,1.237313,-1.052511,-1.082872,0.461218,-1.813603,-0.791109,-2.503139,2.022695,2.251239,0.002000,1.108606,0.000000
306.000000,0.002000,0.718318,0.015302,-0.030472,0.782599,-0.422494,-0.441256,-15.567067,0.618223,-0.244672,0.002000,-0.022611,0.000000
307.000000,0.002000,0.133994,0.128849,-0.675795,-0.524560,-2.981816,-0.951963,-3.191869,-1.079352,15.793831,0.002000,0.008599,0.000000
308.000000,0.002000,-2.371874,-1.120437,0.018493,-0.652403,-1.468461,-0.462278,2.274569,1.116143,-0.048537,0.002000,-0.898815,0.000000
309.000000,0.002000,-2.493664,-1.825331,-0.544003,0.455756,-0.481150,0.304394,1.515482,1.171669,0.317484,0.002000,-0.437746,0.000000
310.000000,0.002000,-0.162045,0.615965,0.491969,-1.231704,0.172445,-2.885326,2.681909,-9.661764,-9.380114,0.002000,0.009945,0.000000
311.000000,0.002000,-2.148514,1.320256,-1.316963,-1.410463,0.037785,0.011403,1.680420,-1.078032,1.006066,0.002000,1.237313,0.000000
312.000000,0.002000,-0.481995,-0.027810,0.162854,-4.410122,-2.089642,-2.740364,18.603708,4.109103,-7.415745,0.002000,0.718318,0.000000
313.000000,0.002000,0.897496,-2.404338,0.641684,-0.644525,-0.934403,-0.765966,-0.626451,2.460236,-0.429946,0.002000,0.133994,0.000000
314.000000,0.002000,-0.041707,0.342444,-0.572631,1.828569,-1.417672,-2.656950,1.540576,-9.022891,16.303509,0.002000,-2.371874,0.000000
315.000000,0.002000,-3.474058,-0.680713,-0.466984,0.639921,0.724683,0.055351,1.461910,0.299941,0.195800,0.002000,-2.493664,0.000000
316.000000,0.002000,-0.471456,-0.071744,0.133477,-2.607333,-0.220278,-4.047560,16.783532,5.396532,-6.449969,0.002000,-0.162045,0.000000
317.000000,0.002000,-0.288492,0.374320,-0.023848,-0.308482,2.561631,-4.179850,13.781699,-17.979785,-2.512708,0.002000,-2.148514,0.000000
318.000000,0.002000,0.106562,-0.203205,0.600362,-0.361198,-3.110846,0.414298,-2.576005,5.830183,-14.562397,0.002000,-0.481995,0.000000
319.000000,0.002000,-0.419086,-0.376533,-0.268961,1.082348,0.630064,-1.911187,11.668150,12.152960,6.129795,0.002000,0.897496,0.000000
320.000000,0.002000,-0.926747,-0.348079,-2.638677,0.617444,1.434636,1.762256,0.770371,0.320814,2.149260,0.002000,-0.041707,0.000000
321.000000,0.002000,0.246838,-0.391327,-0.110740,-2.110869,0.615223,0.590631,-9.586732,16.625353,2.432911,0.002000,-3.474058,0.000000
322.000000,0.002000,0.075250,-0.562279,-0.097633,-2.588703,-1.031075,0.559933,0.352900,20.240787,4.888154,0.002000,-0.471456,0.000000
323.000000,0.002000,0.113198,-0.585987,-0.523684,0.053087,-1.028165,-2.404950,-0.943088,14.656006,14.252663,0.002000,-0.288492,0.000000
324.000000,0.002000,-0.594755,-0.042127,0.296139,0.051874,0.684200,-2.277310,13.472190,1.772864,-8.050956,0.002000,0.106562,0.000000
325.000000,0.002000,0.860906,2.830366,0.229069,-0.301234,-0.420558,2.349352,-0.651778,-2.009814,-0.194418,0.002000,-0.419086,0.000000
326.000000,0.002000,-0.197772,-0.303466,-0.540240,0.431944,-4.886501,-1.288081,5.626462,9.595292,11.018886,0.002000,-0.926747,0.000000
327.000000,0.002000,-0.056796,0.152132,0.120439,-1.296696,1.147650,-2.233418,0.634726,-7.788179,-8.412307,0.002000,0.246838,0.000000
328.000000,0.002000,0.612202,-0.087830,-0.232259,1.458847,-1.477321,1.339666,-14.117031,4.395219,4.585692,0.002000,0.075250,0.000000
329.000000,0.002000,-0.050275,0.086470,0.039814,-1.163320,1.810208,-2.707392,0.495749,-2.898095,-6.717249,0.002000,0.113198,0.000000
330.000000,0.002000,-0.496415,0.327197,0.200262,1.235654,1.101999,-1.489320,17.600072,-7.763860,-3.944511,0.002000,-0.594755,0.000000
331.000000,0.002000,-0.191544,0.176665,-0.086461,1.501660,1.439116,-1.934753,12.277341,-5.865094,8.623170,0.002000,0.860906,0.000000
332.000000,0.002000,-0.371977,-0.282098,-0.311580,-1.596109,-1.739608,-0.235295,13.772087,11.797623,7.279998,0.002000,-0.197772,0.000000
333.000000,0.002000,-0.418241,0.102357,-1.293668,-1.660291,0.035218,0.981615,1.874649,-0.385262,6.412028,0.002000,-0.056796,0.000000
334.000000,0.002000,-0.386873,0.471344,0.214512,-2.787138,2.338371,-1.879704,10.225017,-11.095648,-7.374550,0.002000,0.612202,0.000000
335.000000,0.002000,0.021264,0.038660,0.257984,-3.323610,0.319238,-2.096729,-3.584412,-1.889212,-13.926111,0.002000,-0.050275,0.000000
336.000000,0.002000,-0.059047,-0.274879,0.501558,2.031366,1.733630,-0.190614,1.588902,8.544626,-15.024172,0.002000,-0.496415,0.000000
337.000000,0.002000,-0.056832,-0.257291,-0.381601,0.002366,3.623525,-1.665552,2.486284,13.439949,13.544440,0.002000,-0.191544,0.000000
338.000000,0.002000,0.993589,-0.034825,1.403745,-3.064816,-1.659763,-0.227828,-2.903628,0.337035,-3.847098,0.002000,-0.371977,0.000000
339.000000,0.002000,-0.185383,0.280406,-0.189932,-2.756008,-1.746219,0.531102,11.179726,-11.767310,7.154989,0.002000,-0.418241,0.000000
340.000000,0.002000,1.426308,0.221529,0.138395,1.539922,2.769704,1.487258,-6.344906,-0.725084,-0.740204,0.002000,-0.386873,0.000000
341.000000,0.002000,-0.233914,0.484713,0.156138,0.551613,-0.702262,-1.074424,9.077108,-15.237040,-6.495411,0.002000,0.021264,0.000000
342.000000,0.002000,0.101738,-0.170133,0.890731,2.286206,-3.851913,1.933775,-1.664905,1.948666,-11.967859,0.002000,-0.059047,0.000000
343.000000,0.002000,0.018453,-0.581405,0.295466,-3.070413,0.264518,2.117539,-1.803662,13.439566,-6.962664,0.002000,-0.056832,0.000000
344.000000,0.002000,0.170485,0.038029,0.060131,-0.805715,-2.440661,0.717153,-11.413278,-1.708404,-5.673681,0.002000,0.993589,0.000000
345.000000,0.002000,-0.108645,-0.782083,0.425511,0.657636,-3.311560,1.217634,1.511852,10.300622,-5.254108,0.002000,-0.185383,0.000000
346.000000,0.002000,-1.207682,-1.784623,-0.526627,0.134996,-2.165978,0.823930,1.762604,2.863038,0.753365,0.002000,1.426308,0.000000
347.000000,0.002000,-0.209517,-0.021985,-1.586018,-0.292068,2.215590,0.390778,0.663820,0.183824,5.568357,0.002000,-0.233914,0.000000
348.000000,0.002000,0.435099,-0.119410,-0.240174,0.481345,-0.601055,-0.631779,-21.561577,4.270115,4.713093,0.002000,0.101738,0.000000
349.000000,0.002000,0.704221,0.919175,-0.318037,1.502806,-0.350842,1.505648,-5.665244,-6.447960,2.253127,0.002000,0.018453,0.000000
350.000000,0.002000,0.474348,0.391574,0.153993,0.405787,-1.652847,4.274177,-14.276339,-8.608565,-6.133318,0.002000,0.170485,0.000000
351.000000,0.002000,0.439230,0.178858,1.091030,-0.184466,-0.929156,2.567231,-3.269393,-0.887920,-7.813091,0.002000,-0.108645,0.000000
352.000000,0.002000,2.004269,2.040523,-2.227832,0.083679,1.437142,0.898342,-0.838781,-0.803927,0.935054,0.002000,-1.207682,0.000000
353.000000,0.002000,2.956061,-1.185687,0.916090,0.273343,-0.980579,-0.175806,-1.512119,0.696315,-0.594612,0.002000,-0.209517,0.000000
354.000000,0.002000,0.145370,0.423595,-0.484976,-0.501132,-2.619574,0.700981,-3.870988,-9.801096,13.668360,0.002000,0.435099,0.000000
355.000000,0.002000,-0.075758,0.046981,-0.155512,-0.271535,0.063864,-0.279402,3.316670,3.886054,8.158221,0.002000,0.704221,0.000000
356.000000,0.002000,-0.366582,-0.080386,-0.080069,1.916373,1.356337,3.495354,16.699872,12.361016,2.788594,0.002000,0.474348,0.000000
357.000000,0.002000,-0.018349,0.144259,0.531977,1.838280,2.658786,-4.426806,2.844871,-6.107407,-17.268970,0.002000,0.439230,0.000000
358.000000,0.002000,0.402969,0.379580,0.847225,2.587662,-2.626431,-1.140249,-4.444200,-3.369637,-9.230573,0.002000,2.004269,0.000000
359.000000,0.002000,0.004358,-0.545223,-0.432781,-3.029515,-0.259456,-2.593544,-0.416678,13.743897,8.726841,0.002000,2.956061,0.000000
360.000000,0.002000,-0.824098,1.929475,-0.740610,-0.992121,-1.488341,0.601974,1.333893,-3.038484,1.141208,0.002000,0.145370,0.000000
361.000000,0.002000,-0.008585,-0.077607,0.253055,2.386277,-0.605423,2.146637,-4.417309,8.515888,-16.055999,0.002000,-0.075758,0.000000
362.000000,0.002000,-0.111905,-0.572192,0.011314,-2.993888,-0.217658,-1.999460,2.624210,16.599205,-0.876708,0.002000,-0.366582,0.000000
363.000000,0.002000,-0.617972,-0.549601,-0.069856,0.237084,0.213030,-0.989487,9.937267,8.952034,0.494821,0.002000,-0.018349,0.000000
364.000000,0.002000,-0.684488,-0.222598,-0.179803,1.190986,2.513391,1.195847,14.172395,6.025216,2.846006,0.002000,0.402969,0.000000
365.000000,0.002000,0.267013,1.013366,-4.992255,-0.290789,-0.211918,0.876606,-0.043371,-0.144824,0.746975,0.002000,0.004358,0.000000
366.000000,0.002000,-0.145551,0.177654,0.080928,0.403434,-1.364280,1.125572,11.221156,-10.317202,-7.034166,0.002000,-0.824098,0.000000
367.000000,0.002000,-0.240979,-0.170262,0.189452,-4.448338,-1.481380,-1.805513,12.296562,13.591639,-12.249375,0.002000,-0.008585,0.000000
368.000000,0.002000,-1.559809,0.044189,1.272259,-1.041837,2.200083,-0.264015,3.085366,0.082330,-2.584265,0.002000,-0.111905,0.000000
369.000000,0.002000,-0.292629,-0.125346,-0.021905,1.133889,0.761906,-3.265855,16.176929,9.236590,-5.918717,0.002000,-0.617972,0.000000
370.000000,0.002000,0.044262,0.349156,0.312514,-0.931198,-4.087589,1.256333,-2.257791,-15.157227,-12.879242,0.002000,-0.684488,0.000000
371.000000,0.002000,-1.391522,0.103689,-0.661269,1.194580,-0.462545,0.180700,5.479346,-0.288977,2.597328,0.002000,0.267013,0.000000
372.000000,0.002000,1.227485,-0.358527,-2.487763,-1.012590,0.711678,1.827075,-0.988761,0.361411,2.056451,0.002000,-0.145551,0.000000
373.000000,0.002000,-0.827613,-0.027636,-1.357368,1.402467,-0.862302,-1.882380,3.050450,0.240034,4.978643,0.002000,-0.240979,0.000000
374.000000,0.002000,1.013684,-0.835019,-0.012065,-1.648089,0.604372,-1.554955,-5.521420,4.866775,-0.074394,0.002000,-1.559809,0.000000
375.000000,0.002000,2.264776,0.262126,-1.132238,0.364370,-0.862856,0.587450,-2.097316,-0.118198,1.224113,0.002000,-0.292629,0.000000
376.000000,0.002000,-0.084028,-0.124067,0.299669,0.038001,2.105929,-1.268210,5.672728,8.856860,-16.477068,0.002000,0.044262,0.000000
377.000000,0.002000,0.347275,1.972335,1.133266,-0.341605,0.095666,1.633056,-0.516852,-2.874693,-1.655792,0.002000,-1.391522,0.000000
378.000000,0.002000,0.265410,-0.874501,1.054089,0.479836,-1.549406,2.551363,-0.389950,4.307221,-5.338493,0.002000,1.227485,0.000000
379.000000,0.002000,-0.011463,-0.025100,-0.079510,0.626592,0.188717,0.937777,1.218766,9.215366,2.785520,0.002000,-0.827613,0.000000
380.000000,0.002000,0.314333,0.150747,0.469813,0.894030,-2.501792,1.856156,-10.047692,-2.972202,-14.551449,0.002000,1.013684,0.000000
381.000000,0.002000,-0.954594,0.315480,0.258834,-4.172585,2.274064,0.569340,5.935112,-3.201522,-2.153912,0.002000,2.264776,0.000000
382.000000,0.002000,0.221127,0.329479,-0.212350,-3.592351,1.647165,-1.493421,-10.654336,-14.105445,7.580645,0.002000,-0.084028,0.000000
383.000000,0.002000,0.381035,0.193739,-0.162201,2.658321,0.109793,2.386468,-16.403326,-6.329439,5.702177,0.002000,0.347275,0.000000
384.000000,0.002000,-0.042576,-0.316378,-0.523919,0.351960,-0.056970,3.127123,1.526177,10.082651,15.133199,0.002000,0.265410,0.000000
385.000000,0.002000,-0.222862,0.249501,0.255417,1.559892,-1.115319,-3.515329,7.800246,-18.144436,-15.115297,0.002000,-0.011463,0.000000
386.000000,0.002000,-0.342518,0.743284,0.257552,0.942997,-1.606845,-0.258843,5.967896,-11.675552,-5.125305,0.002000,0.314333,0.000000
387.000000,0.002000,0.528228,0.927042,-0.629461,0.462362,4.088311,-1.458833,-3.909958,-6.601843,4.631853,0.002000,-0.954594,0.000000
388.000000,0.002000,-0.027831,0.222040,-0.106533,3.932503,2.576981,0.408444,-1.320110,-13.785858,6.697735,0.002000,0.221127,0.000000
389.000000,0.002000,-0.311704,-0.513913,-1.387278,-1.808290,1.546246,-0.093075,1.126687,2.350242,5.621586,0.002000,0.381035,0.000000
390.000000,0.002000,0.114715,0.374518,-0.194436,1.767613,3.054802,1.202044,-8.301579,-12.844806,7.720765,0.002000,-0.042576,0.000000
391.000000,0.002000,-0.048837,0.599847,0.575116,0.386133,-1.840410,-1.365085,0.466095,-8.502478,-9.562477,0.002000,-0.222862,0.000000
392.000000,0.002000,0.301695,-0.369787,-0.031831,-2.127558,-3.596164,0.471828,-12.133908,13.868943,-1.482558,0.002000,-0.342518,0.000000
393.000000,0.002000,0.098943,0.061545,0.392990,2.171114,2.819699,-2.553920,-7.649884,-2.586934,-17.928165,0.002000,0.528228,0.000000
394.000000,0.002000,0.394800,-0.286614,-0.280669,-2.747926,-0.585600,1.054814,-13.083145,14.619287,5.874785,0.002000,-0.027831,0.000000
395.000000,0.002000,0.437136,0.907957,0.238949,0.903084,1.399118,1.137183,-4.866149,-9.018285,-3.582722,0.002000,-0.311704,0.000000
396.000000,0.002000,-0.063181,-0.100277,-0.041959,-1.927234,0.695339,1.785564,10.926954,9.435420,1.812515,0.002000,0.114715,0.000000
397.000000,0.002000,-0.364058,-0.120082,0.008779,0.045410,3.853975,1.725010,18.272109,9.118428,-0.777835,0.002000,-0.048837,0.000000
398.000000,0.002000,-1.618139,-0.392366,0.059141,1.635116,0.231096,-0.134254,4.975040,1.385349,-0.269931,0.002000,0.301695,0.000000
399.000000,0.002000,0.230301,0.783778,0.309009,3.349339,3.214825,0.564609,-3.581800,-9.890263,-5.902053,0.002000,0.098943,0.000000
400.000000,0.002000,1.764255,0.368595,0.781270,-1.059628,-1.856418,0.336984,-3.653032,-0.636855,-1.592602,0.002000,0.394800,0.000000
401.000000,0.002000,3.607854,-0.756501,-1.845612,-1.122430,-0.103996,0.900584,-0.989924,0.223706,0.500556,0.002000,0.437136,0.000000
402.000000,0.002000,-0.277129,0.492258,0.525249,-0.292123,1.664571,-2.017943,4.914432,-8.797118,-10.555531,0.002000,-0.063181,0.000000
403.000000,0.002000,-0.634719,1.170018,-1.966494,-1.408532,0.372074,-0.547378,0.925733,-1.441983,2.724913,0.002000,-0.364058,0.000000
404.000000,0.002000,-1.320129,-0.924329,-0.649239,-1.400022,-1.005338,0.274770,3.723523,2.876684,1.808742,0.002000,-1.618139,0.000000
405.000000,0.002000,0.283936,0.345549,-0.151473,-1.361801,-0.782996,-2.553453,-10.337128,-13.460666,5.625478,0.002000,0.230301,0.000000
406.000000,0.002000,-0.121979,-0.278662,-0.140764,-0.040330,-0.630365,1.464249,6.700086,12.906046,4.997048,0.002000,1.764255,0.000000
407.000000,0.002000,-0.175512,0.287295,0.452236,-0.539818,-0.386525,-0.019609,4.479318,-7.405613,-15.494019,0.002000,3.607854,0.000000
408.000000,0.002000,0.368379,0.809415,0.098508,2.799186,1.450806,0.812947,-6.023920,-10.665467,-1.803509,0.002000,-0.277129,0.000000
409.000000,0.002000,-0.071291,0.420785,0.297562,0.642161,0.040014,0.009021,0.056846,-14.920170,-10.736761,0.002000,-0.634719,0.000000
410.000000,0.002000,0.492612,0.008615,1.703869,0.708632,1.199763,1.291599,-1.285050,0.129391,-4.481641,0.002000,-1.320129,0.000000
411.000000,0.002000,0.027581,-0.290786,-1.043741,1.765911,0.538951,-2.150153,-0.122285,3.073873,9.869771,0.002000,0.283936,0.000000
412.000000,0.002000,-1.102703,-3.147734,0.623374,1.199683,1.218684,-0.907223,0.513018,1.495110,-0.291395,0.002000,-0.121979,0.000000
413.000000,0.002000,0.236259,-0.092883,0.248943,-0.071975,-0.803500,3.498740,-13.667680,6.289408,-13.833251,0.002000,-0.175512,0.000000
414.000000,0.002000,-0.104577,2.011724,0.338118,-1.511470,-2.200680,-1.408351,0.287365,-3.960555,-0.631217,0.002000,0.368379,0.000000
415.000000,0.002000,-0.125956,0.654339,-0.867834,0.811436,0.547542,0.726465,0.613506,-6.273278,8.730644,0.002000,-0.071291,0.000000
416.000000,0.002000,0.642031,0.448127,0.173782,1.910715,0.054142,2.525435,-11.634896,-7.694983,-4.356191,0.002000,0.492612,0.000000
417.000000,0.002000,-0.377757,0.819348,-2.797702,0.107545,0.508696,0.077069,0.293733,-0.585364,2.065363,0.002000,0.027581,0.000000
418.000000,0.002000,0.070922,0.087644,0.282212,2.634429,4.801414,0.257340,-4.272179,-3.725424,-15.461771,0.002000,-1.102703,0.000000
419.000000,0.002000,2.471821,3.004206,-3.505386,-0.414159,-0.823559,-0.709726,-0.347721,-0.419640,0.491300,0.002000,0.236259,0.000000
420.000000,0.002000,0.069284,-1.035833,-1.643393,0.534648,-0.482760,-0.178046,-0.231333,2.246213,3.382475,0.002000,-0.104577,0.000000
421.000000,0.002000,-0.132647,0.429572,0.376382,0.081753,-0.391864,-1.158916,3.609501,-11.629729,-12.053374,0.002000,-0.125956,0.000000
422.000000,0.002000,1.637113,1.927452,-1.310066,-0.544265,-0.316923,0.228468,-1.340684,-1.425887,1.140515,0.002000,0.642031,0.000000
423.000000,0.002000,-1.545659,-5.676442,4.364745,-0.271796,-0.029445,0.056316,0.075835,0.285528,-0.219392,0.002000,-0.377757,0.000000
424.000000,0.002000,1.367179,0.780672,2.053467,-0.538348,-1.636881,-1.468081,-1.418451,-0.638913,-2.044662,0.002000,0.070922,0.000000
425.000000,0.002000,0.519153,-0.250939,0.741906,0.899190,-0.377692,-1.912551,-6.105195,3.499678,-8.493519,0.002000,2.471821,0.000000
426.000000,0.002000,0.474917,0.004932,1.076561,1.301455,-1.011710,0.568019,-3.485664,0.151539,-7.750798,0.002000,0.069284,0.000000
427.000000,0.002000,0.487559,-0.485576,-0.057109,-4.214749,-0.820054,-1.659236,-10.141228,11.530267,0.295548,0.002000,-0.132647,0.000000
428.000000,0.002000,0.374703,-0.340807,-0.354636,0.069016,-1.583276,3.257232,-8.791054,13.882494,12.977560,0.002000,1.637113,0.000000
429.000000,0.002000,0.220616,0.039250,-0.157697,0.965229,-4.044309,0.418670,-11.130650,-0.612986,6.919559,0.002000,-1.545659,0.000000
430.000000,0.002000,-1.797310,1.384732,-1.564058,0.132692,-0.000975,-0.788786,1.612251,-1.181759,1.412143,0.002000,1.367179,0.000000
431.000000,0.002000,0.372280,0.402726,-0.262960,-1.991775,0.594493,1.467851,-11.754478,-9.817589,7.977886,0.002000,0.519153,0.000000
432.000000,0.002000,1.573186,0.023018,-0.257544,-0.319573,-0.511904,0.508644,-5.551051,-0.040476,0.833851,0.002000,0.474917,0.000000
433.000000,0.002000,-0.164480,-0.089383,0.052596,-0.556142,-0.446634,3.423434,11.838055,12.838093,0.427255,0.002000,0.487559,0.000000
434.000000,0.002000,0.066848,-1.751569,-1.642413,-2.683593,-0.866094,0.344131,-0.187961,2.126526,1.898523,0.002000,0.374703,0.000000
435.000000,0.002000,0.042747,0.804792,0.103135,1.033477,0.005751,-2.605066,-0.741137,-14.108162,-1.971695,0.002000,0.220616,0.000000
436.000000,0.002000,0.569693,-0.014496,0.429365,3.055703,1.603666,-1.074269,-10.378011,-2.878069,-3.596651,0.002000,-1.797310,0.000000
437.000000,0.002000,-0.177532,0.452981,-0.352136,0.138982,1.493156,0.092523,7.853886,-12.219231,11.800507,0.002000,0.372280,0.000000
438.000000,0.002000,0.004452,0.035405,-0.207713,-0.322321,1.651062,-3.248480,-4.551974,4.219788,16.948205,0.002000,1.573186,0.000000
439.000000,0.002000,0.229095,-0.335477,0.357012,-0.216319,-1.701604,-1.735219,-7.701888,12.009798,-11.016350,0.002000,-0.164480,0.000000
440.000000,0.002000,-0.809352,-0.052201,0.128897,-0.554151,-0.086273,-1.637236,13.651723,1.996027,-2.829077,0.002000,0.066848,0.000000
441.000000,0.002000,-0.365000,-0.354705,-0.457259,1.400624,-1.289154,2.347603,10.727452,11.341007,11.218302,0.002000,0.042747,0.000000
442.000000,0.002000,0.316753,0.158474,-0.080972,-0.599113,1.587291,2.211996,-15.682857,-8.872713,3.878147,0.002000,0.569693,0.000000
443.000000,0.002000,0.727661,-0.200293,0.873933,1.124933,0.564722,0.685933,-5.552218,1.811342,-6.467670,0.002000,-0.177532,0.000000
444.000000,0.002000,-0.109445,-0.302591,0.455586,1.038311,-1.472753,1.272001,3.711569,10.338812,-14.217833,0.002000,0.004452,0.000000
445.000000,0.002000,0.524320,0.134791,0.037810,-0.455939,-0.277866,0.839871,-18.008880,-2.249476,-1.721310,0.002000,0.229095,0.000000
446.000000,0.002000,0.170530,0.226247,-0.148684,-3.688308,-3.841723,-1.169230,-13.098913,-15.169308,10.616373,0.002000,-0.809352,0.000000
447.000000,0.002000,0.026755,0.351771,0.376675,0.629855,1.701579,2.859465,-1.586653,-11.793411,-16.091788,0.002000,-0.365000,0.000000
448.000000,0.002000,-0.586891,0.495933,-0.191808,-2.602852,1.487871,2.848606,11.446141,-9.216267,3.347216,0.002000,0.316753,0.000000
449.000000,0.002000,0.310083,0.480715,0.129138,0.981331,-0.753350,0.481436,-9.244109,-14.559197,-3.862458,0.002000,0.727661,0.000000
450.000000,0.002000,0.118503,0.152259,-0.400046,-3.697092,1.771603,2.906023,-5.248224,-6.486413,18.266503,0.002000,-0.109445,0.000000
451.000000,0.002000,-0.005867,-5.907340,1.627490,-0.812682,0.021927,1.132155,-0.007646,0.506675,-0.137788,0.002000,0.524320,0.000000
452.000000,0.002000,-1.947332,4.797595,1.755575,0.824885,-0.116293,-0.263327,0.242771,-0.586597,-0.220443,0.002000,0.170530,0.000000
453.000000,0.002000,-1.769360,1.425070,2.045609,0.600054,-0.154101,0.371830,1.189410,-0.878173,-1.363489,0.002000,0.026755,0.000000
454.000000,0.002000,0.502688,0.763468,-0.288888,0.962169,-0.341016,-1.703145,-6.615158,-8.847670,3.796924,0.002000,-0.586891,0.000000
455.000000,0.002000,-0.268777,0.302789,-0.249085,4.837552,0.443251,2.812502,13.703717,-13.973195,10.097618,0.002000,0.310083,0.000000
456.000000,0.002000,-0.189833,0.138379,0.221091,1.634882,-1.376898,1.755910,10.572279,-3.953365,-15.700921,0.002000,0.118503,0.000000
457.000000,0.002000,-0.247730,-0.717256,1.101827,0.611770,1.798355,-1.321536,1.519221,3.977833,-5.811278,0.002000,-0.005867,0.000000
458.000000,0.002000,0.199137,-0.218695,0.578566,0.533652,2.045657,1.140395,2.039787,2.211370,-12.063234,0.002000,-1.947332,0.000000
459.000000,0.002000,0.353323,-0.002317,-0.900033,2.297429,-2.356443,1.198494,-5.449084,0.108244,11.034223,0.002000,-1.769360,0.000000
460.000000,0.002000,-0.208334,0.044552,-0.132866,0.080718,-1.283068,0.233322,14.727573,0.904312,5.995201,0.002000,0.502688,0.000000
461.000000,0.002000,-0.423996,-0.072648,-0.538049,-2.820610,1.587631,2.904529,10.853576,3.322175,13.387542,0.002000,-0.268777,0.000000
462.000000,0.002000,0.977065,-0.502602,-0.358730,-0.725248,-0.672287,-1.277781,-7.615343,4.295554,2.798069,0.002000,-0.189833,0.000000
463.000000,0.002000,-0.336692,0.049431,-0.429018,-0.000752,2.020851,3.442228,10.158017,0.478477,16.557093,0.002000,-0.247730,0.000000
464.000000,0.002000,0.270335,-0.363234,0.570077,-2.647619,-1.559591,1.157551,-6.090232,7.737924,-10.763665,0.002000,0.199137,0.000000
465.000000,0.002000,0.066809,0.979340,0.336736,-0.574592,-3.491240,1.946048,-1.175778,-10.749073,-4.205219,0.002000,0.353323,0.000000
466.000000,0.002000,1.673549,-0.847000,1.204487,0.936854,-1.158749,-1.058184,-2.387169,1.304034,-1.765657,0.002000,-0.208334,0.000000
467.000000,0.002000,0.018868,0.102426,0.146809,-1.176927,2.997758,1.708989,-5.905135,0.454888,-17.456086,0.002000,-0.423996,0.000000
468.000000,0.002000,0.697552,0.171942,-0.407116,1.565215,2.466214,-4.221832,-11.908074,-2.600987,7.176821,0.002000,0.977065,0.000000
469.000000,0.002000,-0.105192,-0.286123,0.220107,1.470678,-0.936201,1.661515,8.218280,11.905817,-14.501934,0.002000,-0.336692,0.000000
470.000000,0.002000,-0.585448,1.478504,-0.179437,3.126749,-1.967936,0.079293,2.093931,-5.445370,0.362757,0.002000,0.270335,0.000000
471.000000,0.002000,0.380306,1.246853,-0.294171,1.193622,1.327326,-1.461707,-1.968879,-7.176843,1.859173,0.002000,0.066809,0.000000
472.000000,0.002000,0.611968,0.137892,1.200118,-0.595627,3.162299,2.253005,-3.231570,-0.430395,-6.100282,0.002000,1.673549,0.000000
473.000000,0.002000,-8.326379,1.976739,7.732797,-1.671371,-0.263732,0.788894,0.108050,-0.025389,-0.100873,0.002000,0.018868,0.000000
474.000000,0.002000,-0.522217,-0.372861,0.005954,-0.548417,1.369812,-3.580169,13.171030,9.882424,-0.139703,0.002000,0.697552,0.000000
475.000000,0.002000,0.672715,0.238514,-0.029589,-1.431572,-3.065497,-1.518696,-15.984390,-4.053889,-1.038082,0.002000,-0.105192,0.000000
476.000000,0.002000,0.338031,1.308563,0.687441,-0.276291,2.816804,-0.359396,-1.618551,-5.183477,-2.969419,0.002000,-0.585448,0.000000
477.000000,0.002000,-0.503924,-0.156811,0.455729,-1.680156,-1.879175,-1.517823,10.071312,4.889107,-10.177537,0.002000,0.380306,0.000000
478.000000,0.002000,1.282491,6.823129,-2.983046,-0.212667,0.233381,-0.088123,-0.060339,-0.318443,0.139921,0.002000,0.611968,0.000000
479.000000,0.002000,0.304156,-0.095417,0.367236,-1.927573,2.320094,1.929371,-13.146733,4.692447,-13.159009,0.002000,-8.326379,0.000000
480.000000,0.002000,1.323040,-0.324078,-1.106108,-2.321449,-0.517483,1.028834,-3.578319,0.964227,3.006605,0.002000,-0.522217,0.000000
481.000000,0.002000,1.687407,0.810575,-0.004623,0.124545,1.248219,-1.045961,-4.024106,-2.019109,0.559171,0.002000,0.672715,0.000000
482.000000,0.002000,0.722052,-0.424360,1.683877,-0.065040,-1.366668,0.840655,-1.685128,1.018747,-3.698158,0.002000,0.338031,0.000000
483.000000,0.002000,8.550066,-3.186673,-1.738652,0.715305,-0.289602,-0.036857,-0.211139,0.079790,0.042850,0.002000,-0.503924,0.000000
484.000000,0.002000,-0.006212,-0.463563,-0.235333,1.551907,0.461785,1.996166,0.669232,17.059191,6.156939,0.002000,1.282491,0.000000
485.000000,0.002000,0.206446,0.114934,-0.066341,0.709041,-0.166090,-0.181907,-14.607110,-3.852131,1.470792,0.002000,0.304156,0.000000
486.000000,0.002000,0.776449,1.130981,0.585383,-0.710826,-0.063965,2.559666,-3.514465,-4.544205,-2.763919,0.002000,1.323040,0.000000
487.000000,0.002000,0.441009,-0.195634,-1.027589,2.600837,2.610592,-2.419929,-3.967562,1.680756,9.140550,0.002000,1.687407,0.000000
488.000000,0.002000,-1.261036,1.379046,1.595852,0.897567,-0.702175,0.427458,1.476106,-1.559528,-1.882462,0.002000,0.722052,0.000000
489.000000,0.002000,0.314854,-0.722346,0.400336,0.419749,-0.050585,2.452585,-4.107514,9.510303,-4.418223,0.002000,8.550066,0.000000
490.000000,0.002000,-0.560909,0.092882,-0.270207,1.838487,-2.383902,3.752008,16.259484,-2.834217,3.360626,0.002000,-0.006212,0.000000
491.000000,0.002000,-0.345109,-0.029217,0.267786,0.133121,-0.453838,-1.451295,9.717189,0.857102,-15.475764,0.002000,0.206446,0.000000
492.000000,0.002000,0.212905,0.479410,-0.382353,0.266386,0.477576,1.169290,-6.552939,-12.313593,9.600925,0.002000,0.776449,0.000000
493.000000,0.002000,0.537443,0.029218,0.060110,2.213863,-1.049670,-3.413383,-18.093522,2.113793,-3.111255,0.002000,0.441009,0.000000
494.000000,0.002000,0.129698,-0.094989,-0.636485,-0.326170,-0.223637,-0.171101,-3.054408,2.477080,16.290573,0.002000,-1.261036,0.000000
495.000000,0.002000,0.020896,-0.371154,0.243409,0.193147,-1.070666,-0.596883,-2.059104,15.360537,-10.272814,0.002000,0.314854,0.000000
496.000000,0.002000,0.190270,0.654130,0.425392,-1.520787,2.808545,3.422230,-3.681996,-10.699886,-8.999915,0.002000,-0.560909,0.000000
497.000000,0.002000,0.054683,-11.479654,-4.867798,-0.682566,-1.231760,-0.289300,-0.000640,0.117914,0.049711,0.002000,-0.345109,0.000000
498.000000,0.002000,-0.136799,-0.375862,0.100862,2.835847,-2.510549,0.264646,5.809601,16.916218,-5.384272,0.002000,0.212905,0.000000
499.000000,0.002000,0.517274,-0.721912,0.419074,-3.984869,1.283381,0.147966,-5.525345,7.821276,-4.623412,0.002000,0.537443,0.000000
500.000000,0.002000,0.271820,-0.014064,0.720567,-0.853400,-1.548331,-0.897719,-4.503933,0.883195,-12.714641,0.002000,0.129698,0.000000
501.000000,0.002000,-0.013691,0.032417,-0.192287,0.255220,2.043064,0.092091,5.402473,6.082106,14.360119,0.002000,0.020896,0.000000
502.000000,0.002000,-0.005166,0.755996,-0.580451,-2.161526,0.093428,-0.533378,0.257737,-9.948029,7.594754,0.002000,0.190270,0.000000
503.000000,0.002000,0.035378,0.133834,0.291280,-0.946663,-2.646477,1.824781,-5.448087,-3.600404,-16.399538,0.002000,0.054683,0.000000
504.000000,0.002000,-1.282707,-0.046469,-0.032775,0.856954,-1.023914,1.593079,8.024746,0.483361,-0.406876,0.002000,-0.136799,0.000000
505.000000,0.002000,0.082233,0.179816,0.105014,1.589980,3.447667,4.206985,-11.227462,-11.333443,-9.218463,0.002000,0.517274,0.000000
506.000000,0.002000,-0.387035,-0.151197,0.594265,-0.341451,0.041200,1.699803,6.982859,3.915340,-11.828835,0.002000,0.271820,0.000000
507.000000,0.002000,-0.484661,0.159720,-0.013265,-1.311399,-0.605924,-4.797967,19.608940,-8.718950,2.894819,0.002000,-0.013691,0.000000
508.000000,0.002000,-0.252944,-0.204020,1.830034,-0.909461,0.710481,0.713199,0.463124,0.723237,-4.377305,0.002000,-0.005166,0.000000
509.000000,0.002000,0.335735,-0.728331,0.436027,-1.435697,1.186095,-2.220690,-5.041899,9.213294,-6.138423,0.002000,0.035378,0.000000
510.000000,0.002000,-0.848861,-0.458620,1.932552,1.697404,-0.217368,-2.427042,1.319454,0.758764,-3.170767,0.002000,-1.282707,0.000000
511.000000,0.002000,5.700187,-3.712494,2.987806,0.135827,0.383772,1.061498,-0.271116,0.177693,-0.142160,0.002000,0.082233,0.000000
512.000000,0.002000,-0.529452,0.105814,-0.080868,-1.181241,1.181060,2.860113,17.499938,-3.353071,2.564547,0.002000,-0.387035,0.000000
513.000000,0.002000,-0.281516,-0.076362,0.707214,4.957468,1.724863,-0.376426,4.455761,2.538575,-13.019280,0.002000,-0.484661,0.000000
514.000000,0.002000,0.655083,-0.521369,-0.171596,-0.158482,-2.917510,0.589801,-12.229381,7.884283,1.351496,0.002000,-0.252944,0.000000
515.000000,0.002000,0.409776,-1.384976,-2.399007,-0.126694,0.086981,-0.489098,-0.354174,1.136204,1.911378,0.002000,0.335735,0.000000
516.000000,0.002000,-0.198416,-0.012989,0.073544,0.559530,0.855913,-2.737250,13.373721,3.427218,-5.932645,0.002000,-0.848861,0.000000
517.000000,0.002000,0.168042,-0.142540,0.794716,-0.693903,1.877508,0.139542,-2.841952,2.689120,-12.598165,0.002000,5.700187,0.000000
518.000000,0.002000,0.297592,0.474014,-0.158406,-0.828365,-0.444994,2.439958,-10.253920,-13.668795,4.193048,0.002000,-0.529452,0.000000
519.000000,0.002000,-0.552212,0.116029,0.087623,-0.752625,-0.824696,0.227746,18.950818,-2.706770,-6.003421,0.002000,-0.281516,0.000000
520.000000,0.002000,0.511147,-0.421213,0.350396,1.874062,0.373213,0.466540,-9.377921,7.736136,-6.845590,0.002000,0.655083,0.000000
521.000000,0.002000,-0.555554,-0.525615,0.172545,2.405659,-1.289015,-2.063388,10.648020,9.873310,-3.231371,0.002000,0.409776,0.000000
522.000000,0.002000,-0.068152,0.412100,-0.031845,-2.397197,-1.030394,-1.110036,2.151987,-20.606763,-2.042147,0.002000,-0.198416,0.000000
523.000000,0.002000,-0.633550,0.202263,-0.719472,0.155529,-0.675259,-2.095671,7.543869,-1.995751,9.110384,0.002000,0.168042,0.000000
524.000000,0.002000,-1.783992,-1.683019,0.081771,0.648666,0.733812,-0.094793,2.001458,1.995894,-0.133444,0.002000,0.297592,0.000000
525.000000,0.002000,0.819424,0.657755,1.459377,0.666662,0.308707,2.379133,-2.260193,-1.550166,-3.777566,0.002000,-0.552212,0.000000
526.000000,0.002000,-0.333878,-0.568835,-0.073120,-0.218729,-2.854905,2.106002,6.726754,15.106062,2.876831,0.002000,0.511147,0.000000
527.000000,0.002000,-0.437473,0.047643,-0.054582,1.766690,0.635751,3.358701,17.717216,-0.590879,0.293595,0.002000,-0.555554,0.000000
528.000000,0.002000,-0.982381,-0.485400,2.491390,1.393563,-0.671326,0.919404,0.865066,0.449862,-2.179277,0.002000,-0.068152,0.000000
529.000000,0.002000,-0.167826,-0.517675,0.482195,1.724567,-0.678968,-0.932085,2.753286,8.612317,-9.063765,0.002000,-0.633550,0.000000
530.000000,0.002000,3.079795,-2.685405,-1.049702,-0.046293,1.273363,0.551694,-0.778255,0.684133,0.253680,0.002000,-1.783992,0.000000
531.000000,0.002000,0.462761,0.085498,-0.205594,4.670634,-0.023659,2.044011,-16.771829,-2.810612,7.606022,0.002000,0.819424,0.000000
532.000000,0.002000,0.922282,0.923367,1.028588,1.839431,-1.250016,-1.596877,-3.037509,-2.659536,-3.449297,0.002000,-0.333878,0.000000
533.000000,0.002000,-1.103926,-0.012204,0.582556,-0.215713,-2.200287,2.590982,7.048943,0.309468,-3.690302,0.002000,-0.437473,0.000000
534.000000,0.002000,0.168022,-0.303693,-0.491433,-0.859119,0.449996,-0.682643,-7.158161,10.268132,16.474618,0.002000,-0.982381,0.000000
535.000000,0.002000,-1.552751,-2.345721,-1.024701,0.098041,-0.056540,0.173166,1.043430,1.648238,0.639295,0.002000,-0.167826,0.000000
536.000000,0.002000,-0.375409,-0.257697,-0.195012,-4.574208,-2.093249,-2.372710,15.073407,10.046666,5.126399,0.002000,3.079795,0.000000
537.000000,0.002000,0.292518,-0.501801,1.258233,-1.041138,-1.732514,-0.051119,-1.124877,2.803810,-5.883952,0.002000,0.462761,0.000000
538.000000,0.002000,0.152977,-0.651554,0.011522,-0.336265,-5.247645,1.110026,-3.839287,15.621068,-1.201716,0.002000,0.922282,0.000000
539.000000,0.002000,0.707682,1.359677,1.672995,-1.206079,-1.003141,0.311669,-1.055647,-1.863195,-2.481662,0.002000,-1.103926,0.000000
540.000000,0.002000,-0.275120,-0.567090,-0.092440,1.093789,-2.315853,0.327119,5.693521,15.161016,2.612696,0.002000,0.168022,0.000000
541.000000,0.002000,-0.831201,1.366760,1.756062,-0.483299,0.212445,0.393481,1.030520,-1.781980,-2.238104,0.002000,-1.552751,0.000000
542.000000,0.002000,-0.006014,-0.029851,-0.752800,3.648123,-0.319759,-0.495581,0.220227,1.612832,14.647516,0.002000,-0.375409,0.000000
543.000000,0.002000,0.150717,-0.021251,0.357726,0.060963,2.090368,-2.991207,-8.017994,1.883164,-16.867001,0.002000,0.292518,0.000000
544.000000,0.002000,-0.620468,-0.239459,0.168995,1.378151,-0.429999,0.571911,12.814032,4.614855,-3.837234,0.002000,0.152977,0.000000
545.000000,0.002000,0.482052,-0.045869,-0.431692,3.679373,2.024656,-3.032516,-13.971180,1.464797,10.932470,0.002000,0.707682,0.000000
546.000000,0.002000,0.011810,-0.141351,0.303663,-2.143727,-0.400713,2.154748,-0.920846,11.484728,-16.462770,0.002000,-0.275120,0.000000
547.000000,0.002000,-0.318895,0.083042,0.091310,3.660566,-1.447009,0.311880,17.995221,-3.215696,-5.192358,0.002000,-0.831201,0.000000
548.000000,0.002000,-0.997467,-1.116703,-0.384541,1.013444,2.584865,1.251464,3.707516,4.300648,1.319686,0.002000,-0.006014,0.000000
549.000000,0.002000,-1.498929,-1.265641,1.049458,-2.096448,0.813323,-0.219178,2.220841,1.819925,-1.539984,0.002000,0.150717,0.000000
550.000000,0.002000,-0.004570,0.732819,0.160477,1.004236,1.239510,3.044188,-0.049093,-15.320235,-3.035308,0.002000,-0.620468,0.000000
551.000000,0.002000,0.108974,-0.230802,-0.966122,-3.854327,-1.112875,2.600363,-1.037684,2.768326,10.829941,0.002000,0.482052,0.000000
552.000000,0.002000,0.377501,-0.268871,0.117069,-1.971867,1.775077,2.986434,-11.755498,12.211936,-5.494741,0.002000,0.011810,0.000000
553.000000,0.002000,-1.079818,1.094988,-1.904353,0.561807,-0.285127,-1.516173,1.281101,-1.258426,2.214602,0.002000,-0.318895,0.000000
554.000000,0.002000,0.088347,0.002664,0.120758,0.445349,-2.001041,-0.771500,-5.859466,4.379991,-10.016552,0.002000,-0.997467,0.000000
555.000000,0.002000,0.350926,0.297552,-0.039896,1.122321,4.384239,0.943842,-12.599151,-9.396218,-0.253528,0.002000,-1.498929,0.000000
556.000000,0.002000,-0.655505,1.329861,0.403069,-0.188164,-0.457489,0.598710,3.033868,-5.503063,-1.637967,0.002000,-0.004570,0.000000
557.000000,0.002000,-0.391954,0.027553,0.089220,0.047302,-0.758946,-4.288280,20.010704,1.056079,-4.347955,0.002000,0.108974,0.000000
558.000000,0.002000,-0.428252,2.648631,0.616239,0.791940,0.413448,1.388359,0.327182,-2.327010,-0.574379,0.002000,0.377501,0.000000
559.000000,0.002000,0.144009,1.175229,-1.382912,2.112334,1.012720,0.823945,-0.507678,-2.938897,3.543419,0.002000,-1.079818,0.000000
560.000000,0.002000,-0.136557,-1.471338,-1.016365,0.070170,0.397643,-3.032581,0.045627,3.978948,2.405984,0.002000,0.088347,0.000000
561.000000,0.002000,0.249134,0.295947,-0.254299,0.373010,4.033564,0.778020,-12.112594,-12.997565,7.749723,0.002000,0.350926,0.000000
562.000000,0.002000,2.394877,1.297399,-0.077424,0.396935,-2.233481,-0.036213,-2.201941,-1.068457,0.079960,0.002000,-0.655505,0.000000
563.000000,0.002000,0.071125,0.343019,-1.626775,1.191384,-1.338261,2.021477,-0.201393,-1.120757,5.324914,0.002000,-0.391954,0.000000
564.000000,0.002000,1.725735,-0.275019,-0.315173,-1.437915,-1.344680,1.606620,-4.791847,0.764052,0.762512,0.002000,-0.428252,0.000000
565.000000,0.002000,1.160845,0.899835,0.420947,-0.833721,-3.021998,-1.630330,-4.780162,-3.253602,-1.727103,0.002000,0.144009,0.000000
566.000000,0.002000,-0.305387,0.931198,-0.838427,1.590506,-1.533256,0.395667,2.046009,-5.849687,5.420185,0.002000,-0.136557,0.000000
567.000000,0.002000,-2.800018,-0.353886,0.932602,0.030700,-0.222330,0.593838,1.976877,0.274989,-0.675361,0.002000,0.249134,0.000000
568.000000,0.002000,0.435145,0.338418,-0.086883,-1.642117,-1.441523,0.836325,-16.009124,-9.587066,2.019843,0.002000,2.394877,0.000000
569.000000,0.002000,0.422063,-1.015613,1.234441,0.782364,-1.375085,-1.339718,-1.325472,3.269133,-3.867102,0.002000,0.071125,0.000000
570.000000,0.002000,-0.916976,0.586464,-0.950401,-3.319669,-0.054354,-2.162957,4.782365,-2.463636,4.534687,0.002000,1.725735,0.000000
571.000000,0.002000,0.294571,0.741154,-0.183548,-1.179744,0.640909,2.640640,-5.986432,-12.452164,2.574166,0.002000,1.160845,0.000000
572.000000,0.002000,1.229036,0.977239,1.283817,0.148700,-1.517190,-1.493085,-2.393298,-1.709872,-2.571896,0.002000,-0.305387,0.000000
573.000000,0.002000,-0.009366,0.078994,-0.042152,0.526655,-2.367070,2.298746,-5.373890,-1.657841,0.828711,0.002000,-2.800018,0.000000
574.000000,0.002000,0.010630,0.531463,0.838996,3.192746,-1.341242,-1.327891,0.287654,-5.225154,-8.841431,0.002000,0.435145,0.000000
575.000000,0.002000,-2.339438,-1.070382,0.790973,-1.261602,0.187249,0.535330,2.125542,0.943444,-0.798346,0.002000,0.422063,0.000000
576.000000,0.002000,-0.491296,-0.652524,-0.001105,-0.760883,0.846785,-1.321289,7.999066,11.092741,-0.746330,0.002000,-0.916976,0.000000
577.000000,0.002000,-0.734748,0.068909,-0.099782,0.432761,-1.035713,-2.712230,15.780519,-1.277792,2.055928,0.002000,0.294571,0.000000
578.000000,0.002000,-0.417335,0.067061,3.883534,0.510858,0.948161,0.940546,0.130240,-0.006957,-1.250385,0.002000,1.229036,0.000000
579.000000,0.002000,-0.040975,-0.541146,-0.334010,0.255813,2.040478,4.810060,1.129002,15.203879,6.470163,0.002000,-0.009366,0.000000
580.000000,0.002000,0.553654,-1.077676,-0.687089,0.787424,-0.735303,0.506260,-0.860647,5.900879,3.455736,0.002000,0.010630,0.000000
581.000000,0.002000,-0.322607,0.466536,0.059173,1.854537,3.176211,-2.640663,10.286660,-13.302230,-2.361004,0.002000,-2.339438,0.000000
582.000000,0.002000,1.281028,-1.707479,-1.072320,1.542591,-1.426098,-0.203275,-1.476774,2.106721,1.148735,0.002000,-0.491296,0.000000
583.000000,0.002000,2.423117,2.636633,-1.179130,-0.383120,-1.224768,-1.865300,-0.924468,-0.969145,0.440665,0.002000,-0.734748,0.000000
584.000000,0.002000,-0.530609,0.598127,-0.408282,-0.657569,0.347707,1.774358,4.685463,-4.677700,2.586826,0.002000,-0.417335,0.000000
585.000000,0.002000,0.753444,-0.518128,0.208606,3.949738,-0.064193,-1.164965,-9.131620,6.061563,-2.853941,0.002000,-0.040975,0.000000
586.000000,0.002000,0.147595,-0.251908,0.142709,-0.725722,-1.128431,2.178852,-9.762591,15.283876,-8.523323,0.002000,0.553654,0.000000
587.000000,0.002000,0.454789,0.176420,-0.127734,4.775823,-2.374964,1.948600,-19.804261,-4.883962,5.693110,0.002000,-0.322607,0.000000
588.000000,0.002000,-0.083037,0.312427,-0.087487,-0.854551,-3.381638,-4.314672,-0.446980,-14.832785,3.274854,0.002000,1.281028,0.000000
589.000000,0.002000,0.250137,-0.339446,0.199356,1.805478,1.888151,4.497053,-8.949384,14.434504,-9.755122,0.002000,2.423117,0.000000
590.000000,0.002000,-0.262537,1.588964,-2.082931,0.702274,0.911333,0.458089,0.282597,-1.599277,2.136959,0.002000,-0.530609,0.000000
591.000000,0.002000,0.005682,-0.458010,0.129573,-1.060230,-1.276670,0.966584,-2.331914,17.494081,-5.274168,0.002000,0.753444,0.000000
592.000000,0.002000,0.187289,0.001965,0.074091,-2.134090,2.472453,-2.216487,-10.509049,6.468028,-10.159140,0.002000,0.147595,0.000000
593.000000,0.002000,0.774672,-2.903382,-1.043084,-0.248150,-0.204470,0.167347,-0.441090,1.621426,0.564436,0.002000,0.454789,0.000000
594.000000,0.002000,-0.829439,-1.387630,-1.883628,-0.566500,-1.542651,0.459694,0.959143,1.584419,2.109054,0.002000,-0.083037,0.000000
595.000000,0.002000,-0.247075,0.026691,-0.065699,0.360965,-4.287848,-0.935483,16.451843,3.444063,1.795656,0.002000,0.250137,0.000000
596.000000,0.002000,2.073862,0.585217,-1.430228,0.907653,1.048469,-1.122545,-2.118936,-0.614804,1.429667,0.002000,-0.262537,0.000000
597.000000,0.002000,1.201057,-0.004724,0.595722,1.753424,2.268233,1.428087,-6.320719,0.488803,-3.297141,0.002000,0.005682,0.000000
598.000000,0.002000,0.068507,-0.634885,-0.310265,1.077972,-0.747469,1.736568,-1.283952,13.986389,5.873925,0.002000,0.187289,0.000000
599.000000,0.002000,-1.217112,-0.584308,0.157569,-1.108733,0.105678,2.018160,5.925652,3.197855,-0.922131,0.002000,0.774672,0.000000
600.000000,0.002000,-0.403757,-0.106919,-0.499373,2.302562,-0.466468,3.363519,12.378545,4.227628,12.469856,0.002000,-0.829439,0.000000
601.000000,0.002000,-0.536715,0.607452,-0.425053,0.680554,-1.648808,-3.179526,7.664768,-9.075937,12.290364,0.002000,-0.247075,0.000000
602.000000,0.002000,0.431419,0.080586,-0.939333,-0.063960,-0.378899,1.509796,-4.871497,-0.605823,9.795366,0.002000,2.073862,0.000000
603.000000,0.002000,1.428627,-1.669945,-1.132011,-1.064699,-0.924368,-0.942636,-1.674507,1.822867,1.106510,0.002000,1.201057,0.000000
604.000000,0.002000,0.492331,0.197056,0.061397,-1.365713,-2.616609,-0.609344,-14.905526,-7.671275,-3.667867,0.002000,0.068507,0.000000
605.000000,0.002000,0.782733,0.014871,-0.068597,-0.199865,-1.208531,-1.504750,-14.327285,0.374225,0.438021,0.002000,-1.217112,0.000000
606.000000,0.002000,1.633401,3.236549,-2.106581,-1.269763,0.000642,0.552129,-0.429085,-0.848125,0.566695,0.002000,-0.403757,0.000000
607.000000,0.002000,-0.666537,-0.731285,0.171909,-1.163470,0.123953,-2.159646,5.146572,6.334814,-3.678626,0.002000,-0.536715,0.000000
608.000000,0.002000,-0.128797,0.146313,0.055634,0.635772,-0.245324,4.033490,8.510693,-10.484001,-7.634249,0.002000,0.431419,0.000000
609.000000,0.002000,-1.318660,1.303729,-1.205781,1.004294,-0.053511,0.771083,2.094031,-2.033377,2.002350,0.002000,1.428627,0.000000
610.000000,0.002000,-0.327596,0.098815,-0.235055,-0.354215,3.360927,0.524706,22.307215,-1.877128,12.581788,0.002000,0.492331,0.000000
611.000000,0.002000,0.058211,0.355535,-0.090097,0.587725,-1.012976,4.118982,-6.713150,-19.147638,0.165698,0.002000,0.782733,0.000000
612.000000,0.002000,0.230182,-0.051881,0.010232,-0.060777,0.513615,-2.721971,-18.609459,4.190785,-5.901280,0.002000,1.633401,0.000000
613.000000,0.002000,0.000676,0.101885,-0.106204,2.876682,2.918781,-0.389282,-3.779091,-5.438867,4.709503,0.002000,-0.666537,0.000000
614.000000,0.002000,-0.290272,-0.151744,-0.525886,-3.567509,-0.097322,0.069096,8.371246,5.476922,14.598195,0.002000,-0.128797,0.000000
615.000000,0.002000,0.055472,-0.754649,-0.153748,-1.437317,1.871860,-1.251464,-0.585822,14.775757,1.752027,0.002000,-1.318660,0.000000
616.000000,0.002000,-0.604114,-0.120491,-0.298435,0.335015,-0.501690,-3.212699,14.632004,4.375361,5.823659,0.002000,-0.327596,0.000000
617.000000,0.002000,-0.099243,0.408217,0.055359,0.287168,3.191201,2.309351,2.973554,-17.787239,-6.515276,0.002000,0.058211,0.000000
618.000000,0.002000,0.117404,-0.164377,0.204861,-1.336526,1.971316,0.816651,-7.529620,10.035372,-14.407037,0.002000,0.230182,0.000000
619.000000,0.002000,-1.621916,-0.634036,2.674039,-0.240200,-0.015358,0.245687,0.919927,0.377429,-1.547343,0.002000,0.000676,0.000000
620.000000,0.002000,0.420563,-0.505159,0.095311,-1.423809,2.690227,0.088171,-7.579838,11.995286,-4.597944,0.002000,-0.290272,0.000000
621.000000,0.002000,-0.047015,-0.669450,0.560073,1.255508,0.424184,1.988255,1.310140,8.940314,-7.558160,0.002000,0.055472,0.000000
622.000000,0.002000,-0.144613,-0.316095,1.031083,-1.933379,0.935764,-0.279131,1.721316,2.541709,-9.131900,0.002000,-0.604114,0.000000
623.000000,0.002000,-0.007445,-0.146896,-0.176123,0.655592,-1.056600,-2.006229,2.975312,12.996965,8.864127,0.002000,-0.099243,0.000000
624.000000,0.002000,0.170001,-0.402449,-0.019731,0.759602,1.597993,-0.242436,-6.890818,16.087447,-3.397754,0.002000,0.117404,0.000000
625.000000,0.002000,0.468316,-1.848179,-2.503096,0.409189,-0.394290,-1.081583,-0.304820,1.095124,1.464803,0.002000,-1.621916,0.000000
626.000000,0.002000,-0.826582,-0.409103,0.058347,0.733753,-0.940062,1.350713,10.226631,5.767670,-1.359369,0.002000,0.420563,0.000000
627.000000,0.002000,0.209322,0.224220,-0.227386,1.010300,0.105326,3.503748,-11.454626,-11.659654,8.327215,0.002000,-0.047015,0.000000
628.000000,0.002000,-0.367227,0.545435,0.189557,0.021933,0.493951,-3.099398,8.993093,-12.886491,-5.169405,0.002000,-0.144613,0.000000
629.000000,0.002000,-0.592074,0.322036,0.503714,2.677141,-1.034439,1.982022,8.503884,-3.379008,-8.351199,0.002000,-0.007445,0.000000
630.000000,0.002000,-0.760748,0.022803,-0.150745,0.947773,-0.237139,1.214135,14.955259,0.681770,3.027701,0.002000,0.170001,0.000000
631.000000,0.002000,-1.093635,-1.568338,-0.871325,1.575633,1.036480,0.852182,1.752166,2.799508,1.424081,0.002000,0.468316,0.000000
632.000000,0.002000,-0.138828,0.596191,-0.306332,1.351311,1.635284,-0.958697,4.083333,-15.568274,7.091002,0.002000,-0.826582,0.000000
633.000000,0.002000,0.989477,-0.614597,-0.079862,-3.629796,-0.087895,2.499918,-6.040686,4.870952,1.265990,0.002000,0.209322,0.000000
634.000000,0.002000,-0.880685,0.019888,0.159352,0.383115,-1.577871,1.336216,12.911832,0.072812,-2.812993,0.002000,-0.367227,0.000000
635.000000,0.002000,0.224222,0.186077,0.092807,-1.802357,-4.046895,0.170569,-9.218458,-7.878133,-7.291972,0.002000,-0.592074,0.000000
636.000000,0.002000,0.029572,-0.121706,0.081661,-1.025073,-0.536233,3.861525,-6.253408,12.254988,-4.804366,0.002000,-0.760748,0.000000
637.000000,0.002000,0.406975,0.740462,1.814767,-0.207146,-0.115845,1.427007,-0.854647,-1.335308,-3.619268,0.002000,-1.093635,0.000000
638.000000,0.002000,0.428409,0.226610,0.259967,3.608825,2.600260,2.745815,-14.650347,-2.349402,-11.364905,0.002000,-0.138828,0.000000
639.000000,0.002000,-0.092195,-0.173609,-1.594756,1.159389,-0.137421,0.040449,0.240074,0.923581,5.474064,0.002000,0.989477,0.000000
640.000000,0.002000,0.622171,0.384880,0.687868,-0.348081,0.033494,-0.201643,-7.062103,-3.424193,-7.950248,0.002000,-0.880685,0.000000
641.000000,0.002000,0.290036,-0.166462,0.224768,-1.636220,3.041016,2.965963,-11.279930,8.751695,-8.350584,0.002000,0.224222,0.000000
642.000000,0.002000,-0.050695,-0.142512,0.169188,0.687392,3.556096,0.447451,2.776388,12.017923,-11.126463,0.002000,0.029572,0.000000
643.000000,0.002000,-1.680457,-2.070726,-0.873800,-1.424921,0.570173,0.393069,1.352763,1.715685,0.640538,0.002000,0.406975,0.000000
644.000000,0.002000,0.598190,-0.949323,-0.676266,1.071164,0.623778,-1.240465,-3.476543,5.196916,3.707212,0.002000,0.428409,0.000000
645.000000,0.002000,0.280239,-0.010845,-0.279078,-0.577966,-2.411361,-0.978413,-24.138423,4.447518,10.281078,0.002000,-0.092195,0.000000
646.000000,0.002000,-0.528176,-1.473997,-2.870084,-0.266000,0.006412,0.036197,0.304398,0.826920,1.573569,0.002000,0.622171,0.000000
647.000000,0.002000,-0.586117,0.807868,1.573662,-1.180628,1.300646,-0.137602,1.303397,-1.858621,-3.866915,0.002000,0.290036,0.000000
648.000000,0.002000,-0.754905,0.726319,-0.043735,0.481118,2.255948,-0.638854,7.825124,-7.260872,-0.065206,0.002000,-0.050695,0.000000
649.000000,0.002000,-0.055641,-0.078215,0.340303,0.018716,-0.920874,-0.350068,3.044324,6.630801,-18.659060,0.002000,-1.680457,0.000000
650.000000,0.002000,1.678671,-2.601066,-0.820558,0.655575,1.879794,-0.172701,-0.921893,1.453950,0.417152,0.002000,0.598190,0.000000
651.000000,0.002000,-0.901051,-0.031477,-0.856153,4.183075,-1.076789,0.276443,5.929335,0.623219,5.466741,0.002000,0.280239,0.000000
652.000000,0.002000,-0.367262,0.114553,0.304255,-1.961700,-3.317203,-0.734642,13.026769,-3.357337,-14.697192,0.002000,-0.528176,0.000000
653.000000,0.002000,0.149883,-0.351965,-1.951393,-0.433793,0.360780,-2.516954,-0.404298,0.816527,3.905701,0.002000,-0.586117,0.000000
654.000000,0.002000,-0.980950,0.766050,0.045545,-1.248969,2.075281,2.010946,6.774699,-5.052376,-0.589198,0.002000,-0.754905,0.000000
655.000000,0.002000,1.848283,-1.231438,0.156268,0.977958,1.474146,1.050233,-2.619296,1.929689,-0.233158,0.002000,-0.055641,0.000000
656.000000,0.002000,0.273507,0.008692,-0.174155,-2.608036,0.601499,4.747386,-15.322503,2.353489,5.912507,0.002000,1.678671,0.000000
657.000000,0.002000,0.469753,-0.139372,0.210291,-0.604459,-0.547471,2.410981,-14.319364,6.233720,-8.415939,0.002000,-0.901051,0.000000
658.000000,0.002000,-0.330562,0.150228,-0.664265,0.273844,0.352559,-1.264628,6.438951,-2.985605,14.329273,0.002000,-0.367262,0.000000
659.000000,0.002000,0.465811,0.193224,-0.643556,-3.613626,-2.263306,1.108067,-3.356358,-1.167879,10.594674,0.002000,0.149883,0.000000
660.000000,0.002000,-0.533774,0.142896,0.403283,1.241025,1.148204,1.093722,12.863985,-2.010414,-9.344277,0.002000,-0.980950,0.000000
661.000000,0.002000,0.012048,-0.302423,-0.279179,-4.336484,-1.686297,-1.780746,1.205696,17.490492,9.539648,0.002000,1.848283,0.000000
662.000000,0.002000,-1.304853,1.036642,1.980351,-0.848964,-0.568892,-1.277518,1.339270,-0.969314,-2.047883,0.002000,0.273507,0.000000
663.000000,0.002000,0.633838,0.171389,1.410996,0.786656,0.224701,-0.791246,-2.383622,-0.404921,-5.210952,0.002000,0.469753,0.000000
664.000000,0.002000,-0.015449,-0.392010,-0.059781,1.516236,-2.433991,-1.542593,1.558737,18.149146,0.713726,0.002000,-0.330562,0.000000
665.000000,0.002000,-0.148795,0.499784,0.135197,3.605167,-0.764412,0.008857,1.732003,-19.547087,-3.529142,0.002000,0.465811,0.000000
666.000000,0.002000,0.024439,0.540449,-0.435915,0.374555,-3.035181,0.491435,-0.955319,-12.702973,10.918869,0.002000,-0.533774,0.000000
667.000000,0.002000,-0.007886,0.560145,-0.549392,1.010640,2.628877,0.206868,-2.771462,-7.150381,12.921209,0.002000,0.012048,0.000000
668.000000,0.002000,1.225975,-0.628297,-0.152417,1.813528,-0.579518,0.512142,-5.896386,3.189023,0.685597,0.002000,-1.304853,0.000000
669.000000,0.002000,0.096637,0.811820,1.018337,1.822441,0.117400,0.524653,-0.580101,-4.612404,-6.215556,0.002000,0.633838,0.000000
670.000000,0.002000,-0.069332,0.285363,0.215498,1.050452,1.301533,-0.180406,4.226100,-15.542653,-15.122351,0.002000,-0.015449,0.000000
671.000000,0.002000,-0.319362,-0.361882,-0.566993,1.691819,-0.555759,3.444268,6.401054,1.233907,13.483302,0.002000,-0.148795,0.000000
672.000000,0.002000,0.438380,-0.202274,-0.004245,-0.715750,-0.846419,-0.552777,-15.674367,9.963049,-0.859233,0.002000,0.024439,0.000000
673.000000,0.002000,-0.227686,-1.537428,3.770293,-1.126755,1.714652,0.158445,0.061410,0.421586,-1.052761,0.002000,-0.007886,0.000000
674.000000,0.002000,-0.652836,0.197863,-0.971207,-1.926835,2.871898,-2.378848,5.116582,-1.820421,7.414505,0.002000,1.225975,0.000000
675.000000,0.002000,-1.463192,-0.343286,-0.953068,-0.662095,-1.744181,-0.186532,3.969840,0.988183,2.553465,0.002000,0.096637,0.000000
676.000000,0.002000,-0.161001,0.035746,0.417191,-1.957940,-1.189597,0.116360,6.983450,0.747451,-21.932843,0.002000,-0.069332,0.000000
677.000000,0.002000,-0.515021,-0.136969,-0.219472,1.818373,0.852829,-1.158013,16.338525,7.221067,5.895638,0.002000,-0.319362,0.000000
678.000000,0.002000,0.100992,-0.493222,0.012480,0.156521,0.555466,1.978880,-3.238581,17.442767,-3.875349,0.002000,0.438380,0.000000
679.000000,0.002000,-0.039873,-2.130779,-1.672413,-0.458748,0.382586,0.613977,-0.102968,1.909380,1.388432,0.002000,-0.227686,0.000000
680.000000,0.002000,-0.050782,1.110508,-1.728383,-0.755052,0.864683,-2.400981,0.288809,-2.287719,3.021791,0.002000,-0.652836,0.000000
681.000000,0.002000,-0.909954,-0.146379,-0.261039,-2.981947,0.188408,-1.488939,10.921853,2.203435,2.966929,0.002000,-1.463192,0.000000
682.000000,0.002000,-0.074898,-0.248422,-0.064422,-0.925797,-1.486404,-0.762849,2.825805,17.706106,4.322285,0.002000,-0.161001,0.000000
683.000000,0.002000,1.676471,0.486337,-1.461672,2.030464,0.201797,-1.192952,-2.317174,-0.617690,2.058771,0.002000,-0.515021,0.000000
684.000000,0.002000,0.018144,-0.021852,0.002405,4.769937,-3.617624,2.214630,-6.246641,4.177236,-5.622870,0.002000,0.100992,0.000000
685.000000,0.002000,-0.043644,0.632055,0.144688,-3.181251,-0.014731,-0.381891,1.981078,-15.343329,-4.326981,0.002000,-0.039873,0.000000
686.000000,0.002000,0.063834,0.292329,0.435661,-0.390201,-2.000233,1.230766,-2.641399,-9.012938,-16.141998,0.002000,-0.050782,0.000000
687.000000,0.002000,0.037349,0.681936,0.112522,0.140588,3.428360,-4.686137,-1.187970,-15.880293,-1.863087,0.002000,-0.909954,0.000000
688.000000,0.002000,-0.296398,0.199122,-0.867631,1.603727,2.219090,1.870394,3.437973,-2.661856,11.544297,0.002000,-0.074898,0.000000
689.000000,0.002000,1.910300,-1.957330,0.289849,1.385449,-0.661864,0.622531,-1.594034,1.662622,-0.241231,0.002000,1.676471,0.000000
690.000000,0.002000,-2.276743,1.707412,0.416592,0.043975,-0.393913,-0.682820,1.784083,-1.320728,-0.332347,0.002000,0.018144,0.000000
691.000000,0.002000,0.243652,2.924526,-1.284869,-0.352367,0.289679,-0.284001,-0.184603,-1.694523,0.790783,0.002000,-0.043644,0.000000
692.000000,0.002000,0.038391,0.492622,-0.075647,-0.656968,-1.084186,-0.133020,-3.034660,-18.616703,0.325609,0.002000,0.063834,0.000000
693.000000,0.002000,-0.482304,-0.476890,0.083209,-1.252931,-1.234377,2.088667,10.260446,12.320202,-3.099238,0.002000,0.037349,0.000000
694.000000,0.002000,-0.148000,-1.307587,0.323751,-1.356898,-0.267562,-0.353165,0.355708,6.880796,-1.507687,0.002000,-0.296398,0.000000
695.000000,0.002000,1.230506,-1.202053,-0.298311,2.072701,0.290428,-0.551804,-3.360293,3.225351,0.700363,0.002000,1.910300,0.000000
696.000000,0.002000,-2.275291,1.011124,-0.495329,0.464897,0.129473,-0.280562,2.473740,-1.073349,0.513629,0.002000,-2.276743,0.000000
697.000000,0.002000,2.459786,0.626408,1.228354,-1.365398,-1.574561,-0.278088,-2.105862,-0.358515,-0.965707,0.002000,0.243652,0.000000
698.000000,0.002000,-0.015980,-0.202373,0.041810,-1.178115,1.758492,-1.260270,-0.992211,16.090282,-2.459436,0.002000,0.038391,0.000000
699.000000,0.002000,-0.751621,-0.299211,0.079347,1.816078,1.591391,-0.301440,12.597642,5.738525,-1.798856,0.002000,-0.482304,0.000000
700.000000,0.002000,-0.845292,-0.093275,0.058947,0.130009,1.808363,3.503830,13.461883,2.115272,-1.141740,0.002000,-0.148000,0.000000
701.000000,0.002000,0.098483,-0.045939,0.200855,1.416655,-0.651005,0.361589,-8.145904,4.499418,-10.706680,0.002000,1.230506,0.000000
702.000000,0.002000,-0.514047,-0.910845,-2.243630,-1.274609,0.963733,0.260435,0.586033,1.081521,2.370183,0.002000,-2.275291,0.000000
703.000000,0.002000,-0.909757,-0.128734,0.437444,-0.303977,0.892745,-1.360772,8.827093,2.433676,-4.116764,0.002000,2.459786,0.000000
704.000000,0.002000,-1.953972,-2.156699,-0.418565,0.319803,-0.337164,-0.480144,1.380663,1.499646,0.293648,0.002000,-0.015980,0.000000
705.000000,0.002000,2.706541,-1.801906,8.946656,0.313861,-0.349822,0.834137,-0.062254,0.041983,-0.205150,0.002000,-0.751621,0.000000
706.000000,0.002000,2.729039,0.429731,-1.402465,-0.663958,0.051093,-0.634606,-1.756923,-0.229570,0.848788,0.002000,-0.845292,0.000000
707.000000,0.002000,1.816490,-0.729952,-0.868279,-0.553013,0.795834,1.769289,-2.911463,1.662099,1.087360,0.002000,0.098483,0.000000
708.000000,0.002000,0.724152,0.626586,0.016806,1.592168,1.354075,-1.883254,-9.580428,-5.748817,0.290706,0.002000,-0.514047,0.000000
709.000000,0.002000,-0.047017,0.503802,-0.324451,-0.759496,0.483545,-1.505080,0.687705,-15.231477,10.163892,0.002000,-0.909757,0.000000
710.000000,0.002000,-0.148629,0.003887,-0.340320,-1.932143,1.210781,-2.937207,10.409727,2.581946,18.808525,0.002000,-1.953972,0.000000
711.000000,0.002000,0.509489,-0.475670,1.806423,2.364231,0.034596,-1.981319,-1.101403,1.085142,-3.631304,0.002000,2.706541,0.000000
712.000000,0.002000,-0.170896,0.139702,-0.106054,-0.331746,2.445506,-1.472369,10.093685,-7.400249,6.259172,0.002000,2.729039,0.000000
713.000000,0.002000,0.486804,-1.151005,0.716837,-2.155315,0.042549,-0.315636,-1.951948,5.044360,-2.972235,0.002000,1.816490,0.000000
714.000000,0.002000,0.268160,-0.161746,-0.379081,3.032266,0.348857,-2.842153,-10.116493,7.056150,15.124882,0.002000,0.724152,0.000000
715.000000,0.002000,-2.193265,-3.118723,1.334185,0.496208,0.844471,-1.088965,0.621614,0.914345,-0.378077,0.002000,-0.047017,0.000000
716.000000,0.002000,-1.570072,0.133016,0.719066,-0.115236,1.112241,0.700828,4.481477,-0.273674,-2.156658,0.002000,-0.148629,0.000000
717.000000,0.002000,-0.180166,-1.430102,-1.116908,0.566194,-0.923838,-1.362380,0.263496,3.570944,2.875417,0.002000,0.509489,0.000000
718.000000,0.002000,-0.308459,1.578115,-1.036757,0.943274,2.712815,-0.368343,0.682177,-3.557914,2.276485,0.002000,-0.170896,0.000000
719.000000,0.002000,-0.695782,-0.475967,-0.213364,4.028804,-1.046275,-1.535613,10.129810,7.476517,2.960715,0.002000,0.486804,0.000000
720.000000,0.002000,0.027553,0.843222,2.061210,0.871193,-0.172807,-1.493964,-0.063051,-1.204395,-3.099028,0.002000,0.268160,0.000000
721.000000,0.002000,0.138375,-0.514255,-0.172684,-1.684472,-0.008732,-1.733036,-4.269032,17.197809,5.401709,0.002000,-2.193265,0.000000
722.000000,0.002000,-0.407008,-0.114535,-0.844040,0.961229,0.077747,0.692594,5.347229,2.093951,11.367554,0.002000,-1.570072,0.000000
723.000000,0.002000,-0.183862,-0.126158,-0.145622,3.559278,-1.663217,1.915666,7.919301,10.769094,6.537145,0.002000,-0.180166,0.000000
724.000000,0.002000,2.996046,0.291979,1.012608,-1.874507,-0.026204,0.669212,-1.739359,-0.128218,-0.597541,0.002000,-0.308459,0.000000
725.000000,0.002000,0.005902,0.840402,-0.252554,-0.804013,-1.684582,-1.544775,-0.030550,-12.744051,4.591699,0.002000,-0.695782,0.000000
726.000000,0.002000,0.279696,0.072726,-1.801709,0.830792,0.667901,-1.779129,-0.822194,-0.042409,4.504221,0.002000,0.027553,0.000000
727.000000,0.002000,0.759008,0.104521,-1.252954,-0.918599,1.370610,-0.812104,-3.493890,-0.122239,5.390189,0.002000,0.138375,0.000000
728.000000,0.002000,-0.283038,-0.549680,-0.384632,-2.878477,-0.803108,1.198136,5.777954,12.697959,6.935765,0.002000,-0.407008,0.000000
729.000000,0.002000,0.595817,-0.043170,0.205328,-0.264155,3.325805,-1.338763,-16.874647,3.969808,-6.638471,0.002000,-0.183862,0.000000
730.000000,0.002000,0.405407,-0.598957,0.004386,1.743640,2.182344,-0.043954,-9.577927,13.838307,-1.787337,0.002000,2.996046,0.000000
731.000000,0.002000,-0.096308,0.708385,0.322200,-0.906657,-0.914405,-0.410330,2.015090,-12.426237,-6.937083,0.002000,0.005902,0.000000
732.000000,0.002000,0.488871,0.321894,-0.378383,-2.180533,1.952729,0.099136,-13.062095,-7.434101,9.706932,0.002000,0.279696,0.000000
733.000000,0.002000,0.101031,-1.302525,0.063305,1.764159,-1.800535,3.082684,-0.745445,7.229367,-0.401537,0.002000,0.759008,0.000000
734.000000,0.002000,-0.456797,-0.216098,-0.282766,-0.909807,0.878597,0.634053,12.793539,8.335544,8.285958,0.002000,-0.283038,0.000000
735.000000,0.002000,0.272607,0.126212,0.621278,1.482172,-1.539284,-3.262120,-7.322387,-3.290167,-15.806334,0.002000,0.595817,0.000000
736.000000,0.002000,-0.357960,0.600514,-0.250108,-0.368312,-0.307097,1.106445,7.748548,-14.256108,5.134465,0.002000,0.405407,0.000000
737.000000,0.002000,0.042886,-0.155451,-0.071243,-0.206488,3.727694,-0.836496,-3.340719,16.340261,0.657427,0.002000,-0.096308,0.000000
738.000000,0.002000,1.764763,0.022151,-2.419942,0.679982,0.207482,-1.345089,-1.241098,0.016137,1.696595,0.002000,0.488871,0.000000
739.000000,0.002000,-2.416201,-2.501435,-1.396104,-0.209654,-0.737630,0.709627,0.885011,0.927806,0.494555,0.002000,0.101031,0.000000
740.000000,0.002000,-0.094687,-0.156884,0.004316,-1.366283,-0.198703,-1.834695,5.976671,12.894438,-2.284753,0.002000,-0.456797,0.000000
741.000000,0.002000,-0.503006,0.150049,0.436734,-3.169699,1.257881,-0.950004,10.731672,-2.274935,-10.978582,0.002000,0.272607,0.000000
742.000000,0.002000,0.212282,-0.137249,0.435798,-1.543430,-1.806681,-0.815698,-7.898854,5.646588,-16.339049,0.002000,-0.357960,0.000000
743.000000,0.002000,0.330329,-0.196528,-0.226622,-1.935901,3.404634,-3.119505,-11.086065,6.163035,4.945782,0.002000,0.042886,0.000000
744.000000,0.002000,-0.045618,0.459577,0.614730,-1.111048,1.127563,-1.544663,0.464324,-7.785347,-11.465781,0.002000,1.764763,0.000000
745.000000,0.002000,3.225190,0.554071,-3.600446,-1.215998,0.646502,-0.357763,-0.553843,-0.082632,0.615066,0.002000,-2.416201,0.000000
746.000000,0.002000,-1.084312,-0.690171,-0.115350,-2.536481,-1.878012,-0.189410,6.525988,4.614557,-0.068417,0.002000,-0.094687,0.000000
747.000000,0.002000,-0.120188,0.860051,0.583526,1.851035,-2.257503,3.663253,2.216659,-8.577087,-6.243414,0.002000,-0.503006,0.000000
748.000000,0.002000,-2.252090,2.413863,0.168866,-0.555378,0.119545,-0.122073,1.226059,-1.269027,-0.087649,0.002000,0.212282,0.000000
749.000000,0.002000,-2.249527,-0.605033,-1.956965,-1.017468,-0.245015,-1.141276,1.597801,0.399182,0.970373,0.002000,0.330329,0.000000
750.000000,0.002000,0.053979,-0.018350,-0.014251,-1.275583,1.332960,0.211569,-6.353315,7.048252,-0.852220,0.002000,-0.045618,0.000000
751.000000,0.002000,-0.055245,-1.110476,0.360277,-1.396323,-0.260506,-1.331454,0.240106,8.023632,-2.418095,0.002000,3.225190,0.000000
752.000000,0.002000,-0.164526,-2.577701,-1.705625,1.237859,-0.296310,0.962684,0.072886,1.611955,1.072128,0.002000,-1.084312,0.000000
753.000000,0.002000,-0.118089,-0.571083,0.464196,0.886772,2.796959,-2.388678,2.023635,10.320243,-8.477784,0.002000,-0.120188,0.000000
754.000000,0.002000,-0.147171,-0.517537,-0.026820,-0.678016,-4.623168,-0.812939,3.500259,17.839750,1.047555,0.002000,-2.252090,0.000000
755.000000,0.002000,-0.609318,0.360449,-0.490065,1.294014,-3.335200,-2.991532,9.713762,-5.741975,8.285896,0.002000,-2.249527,0.000000
756.000000,0.002000,-0.846584,1.870506,1.092074,0.525041,-1.790558,-0.320980,1.100500,-2.549814,-1.549174,0.002000,0.053979,0.000000
757.000000,0.002000,-0.618807,0.301772,-0.477623,3.178514,-1.005791,1.575197,10.495170,-3.779311,7.965392,0.002000,-0.055245,0.000000
758.000000,0.002000,0.052973,-0.476292,-0.332886,-0.761943,0.404078,-1.614244,-0.720532,15.954980,8.665553,0.002000,-0.164526,0.000000
759.000000,0.002000,0.077420,-0.401486,-0.295669,2.453147,2.576924,0.251270,-1.591251,16.410741,8.461154,0.002000,-0.118089,0.000000
760.000000,0.002000,0.042253,-1.009348,-0.212181,-2.868774,-0.532569,1.133454,-0.352092,9.939565,2.041504,0.002000,-0.147171,0.000000
761.000000,0.002000,0.204652,-0.244747,0.765900,1.984246,-0.266298,0.637791,-4.047365,4.544494,-11.781503,0.002000,-0.609318,0.000000
762.000000,0.002000,-0.633861,0.671666,-0.327828,2.365443,0.560479,1.916404,8.088262,-8.433418,3.752415,0.002000,-0.846584,0.000000
763.000000,0.002000,-0.090205,0.909185,-0.184938,1.391741,0.291219,-0.322887,1.329661,-12.419975,1.863587,0.002000,-0.618807,0.000000
764.000000,0.002000,-0.048100,-0.180419,-0.349147,2.155016,-0.893497,-0.352289,1.136802,11.242120,7.219746,0.002000,0.052973,0.000000
765.000000,0.002000,0.615063,-0.041034,2.539824,-1.960686,-0.717632,-0.923241,-0.604218,0.053646,-2.478151,0.002000,0.077420,0.000000
766.000000,0.002000,-0.012092,-0.660899,-0.209716,-0.710450,0.527965,-2.826571,0.656964,14.716124,3.387693,0.002000,0.042253,0.000000
767.000000,0.002000,-0.664299,0.516783,0.449299,-1.930866,-1.828283,-0.767756,8.315979,-5.764410,-5.714858,0.002000,0.204652,0.000000
768.000000,0.002000,0.315720,0.273086,0.433568,-0.026300,2.277386,1.001023,-9.163025,-7.179360,-12.747859,0.002000,-0.633861,0.000000
769.000000,0.002000,0.195400,0.154498,0.162108,0.241006,0.959739,0.883650,-12.164340,-6.792652,-10.866725,0.002000,-0.090205,0.000000
770.000000,0.002000,0.360885,0.812087,-0.273467,-2.169766,2.054229,-0.701457,-5.307985,-10.552232,3.696555,0.002000,-0.048100,0.000000
771.000000,0.002000,-1.322756,-2.348219,0.215592,-0.300553,0.217154,0.129632,1.228311,2.106337,-0.220625,0.002000,0.615063,0.000000
772.000000,0.002000,-0.196974,-1.514439,-0.466157,-0.143429,-0.718600,-2.324011,0.561574,5.172411,1.390377,0.002000,-0.012092,0.000000
773.000000,0.002000,0.535252,-0.421502,-1.393449,0.323676,1.272354,-1.849711,-2.184489,1.707370,5.196491,0.002000,-0.664299,0.000000
774.000000,0.002000,0.263289,0.054041,-0.026209,-0.072232,-1.424504,1.394391,-15.299841,-1.187830,0.099744,0.002000,0.315720,0.000000
775.000000,0.002000,-0.719578,1.063539,-1.557751,-0.348261,1.314432,-2.692810,1.504078,-2.004101,3.040125,0.002000,0.195400,0.000000
776.000000,0.002000,0.244799,0.664656,-0.415879,-3.576230,0.160052,3.950561,-4.355804,-11.931487,7.654165,0.002000,0.360885,0.000000
777.000000,0.002000,0.313969,-0.075922,0.499568,1.949143,1.063100,-1.486632,-9.912692,6.440678,-11.434330,0.002000,-1.322756,0.000000
778.000000,0.002000,0.272775,0.435961,-0.550934,0.327868,0.999692,3.335405,-3.635626,-7.094513,11.554626,0.002000,-0.196974,0.000000
779.000000,0.002000,0.689732,-0.104782,-0.200419,2.288679,1.274770,1.009569,-15.296646,3.423903,3.327377,0.002000,0.535252,0.000000
780.000000,0.002000,0.031632,0.387296,-0.110568,-4.799103,3.040733,-2.401045,-2.558709,-17.727512,3.351809,0.002000,0.263289,0.000000
781.000000,0.002000,-1.085146,-0.847136,0.500273,1.050344,1.557623,1.326635,4.474589,3.756011,-2.141687,0.002000,-0.719578,0.000000
782.000000,0.002000,-0.352493,-0.668389,0.281837,-2.374138,-0.072276,-1.425130,6.206231,10.519779,-3.855019,0.002000,0.244799,0.000000
783.000000,0.002000,0.004278,0.156295,0.291862,-2.973777,0.920082,5.807532,0.470457,-3.796015,-11.603077,0.002000,0.313969,0.000000
784.000000,0.002000,0.270133,-0.024182,0.230058,1.426894,1.197834,-4.675376,-16.899629,3.169641,-13.293186,0.002000,0.272775,0.000000
785.000000,0.002000,1.421145,-1.711051,-1.235961,-1.272516,1.791883,-0.579447,-1.499877,1.861488,1.450636,0.002000,0.689732,0.000000
786.000000,0.002000,0.922919,0.092989,-1.492606,-0.849346,0.782979,-1.538980,-2.455461,0.096358,4.001609,0.002000,0.031632,0.000000
787.000000,0.002000,0.336337,1.451747,-2.620656,-0.068921,-1.789301,0.849938,-0.192746,-1.026742,1.678253,0.002000,-1.085146,0.000000
788.000000,0.002000,0.173114,-0.615579,0.123798,2.044431,0.988542,2.829768,-4.689280,15.075382,-3.480986,0.002000,-0.352493,0.000000
789.000000,0.002000,0.193076,-0.106222,0.174121,3.250506,-0.941314,2.029088,-13.164248,7.975646,-6.840256,0.002000,0.004278,0.000000
790.000000,0.002000,0.094275,0.735041,0.552993,0.305280,3.534266,-0.130016,-2.021396,-9.500450,-7.110838,0.002000,0.270133,0.000000
791.000000,0.002000,0.912695,-1.860614,1.411694,-0.083166,-1.263454,1.386262,-1.014806,1.921587,-1.608784,0.002000,1.421145,0.000000
792.000000,0.002000,-0.221737,-0.533282,0.045498,2.984574,0.336807,2.066728,5.626237,17.526430,-4.750797,0.002000,0.922919,0.000000
793.000000,0.002000,0.118430,0.055964,0.253238,0.151647,2.189530,4.515423,-9.015136,-1.196839,-14.716701,0.002000,0.336337,0.000000
794.000000,0.002000,0.448300,0.756407,-0.149348,-0.345122,1.990540,-1.738691,-6.709535,-10.691896,2.041043,0.002000,0.173114,0.000000
795.000000,0.002000,1.103782,-2.231564,-2.159518,0.179497,-0.661766,0.352001,-0.583591,1.177173,1.089869,0.002000,0.193076,0.000000
796.000000,0.002000,-1.052932,-0.919308,0.316835,0.847510,2.131157,0.689197,4.606614,4.229880,-1.506246,0.002000,0.094275,0.000000
797.000000,0.002000,-0.038046,-0.319475,-0.254546,-0.430197,-1.316393,0.298890,2.912528,14.670994,8.992057,0.002000,0.912695,0.000000
798.000000,0.002000,-0.316765,0.477720,-0.070300,2.254178,1.517309,-2.028127,10.416043,-14.794751,2.200902,0.002000,-0.221737,0.000000
799.000000,0.002000,-0.580050,1.245106,-0.208620,2.237837,-1.783078,2.404418,3.029039,-6.511448,1.169896,0.002000,0.118430,0.000000
800.000000,0.002000,-0.195893,0.193441,0.240551,1.277051,3.476598,-0.640955,11.424800,-9.192664,-15.489200,0.002000,0.448300,0.000000
801.000000,0.002000,0.275500,-0.587569,-0.198402,0.610735,-2.746505,1.669677,-7.185214,16.134410,4.127759,0.002000,1.103782,0.000000
802.000000,0.002000,-0.200646,0.397309,-0.210558,-1.856244,-0.171365,-1.119823,8.104426,-16.478938,10.219237,0.002000,-1.052932,0.000000
803.000000,0.002000,-0.463454,-0.941839,-0.633604,-2.209476,-1.133295,-0.555508,3.018332,6.504141,3.796348,0.002000,-0.038046,0.000000
804.000000,0.002000,0.209377,-0.044549,-0.720393,-1.221898,0.734076,-0.235906,-4.443297,1.076039,14.051583,0.002000,-0.316765,0.000000
805.000000,0.002000,-0.137841,0.787634,0.529780,-1.677000,1.119142,-0.584680,2.299654,-8.628242,-7.050767,0.002000,-0.580050,0.000000
806.000000,0.002000,-1.275587,-1.642251,-3.477803,0.631738,0.681811,1.034270,0.370962,0.483813,0.999631,0.002000,-0.195893,0.000000
807.000000,0.002000,-0.437465,0.011884,0.134515,-1.367047,-3.228466,2.139934,17.108176,1.115730,-5.498714,0.002000,0.275500,0.000000
808.000000,0.002000,0.129040,-0.338357,0.123827,1.034702,-0.213479,1.600666,-6.107108,19.828858,-8.654239,0.002000,-0.200646,0.000000
809.000000,0.002000,0.027732,-0.316575,-0.413645,-2.562395,-1.013695,-2.254076,0.990076,12.908449,13.145619,0.002000,-0.463454,0.000000
810.000000,0.002000,-0.076695,-0.097434,-0.083418,1.829817,-1.767538,0.317585,8.057221,11.631452,7.307481,0.002000,0.209377,0.000000
811.000000,0.002000,-0.042379,-1.368125,-0.060875,0.024699,0.233416,-1.630317,0.171049,6.969648,0.256367,0.002000,-0.137841,0.000000
812.000000,0.002000,0.592718,0.504504,0.682674,0.457726,-0.382970,-1.295338,-6.090490,-4.966182,-7.180397,0.002000,-1.275587,0.000000
813.000000,0.002000,-0.464333,0.099238,0.092403,4.671395,0.319262,-1.832399,15.968884,-2.910242,-2.894208,0.002000,-0.437465,0.000000
814.000000,0.002000,0.137455,0.743042,-1.086405,0.522044,1.636474,-0.803151,-0.941834,-3.607690,6.282453,0.002000,0.129040,0.000000
815.000000,0.002000,-1.090826,0.634491,0.379734,-2.025016,0.131954,0.979058,6.666011,-3.416993,-2.465643,0.002000,0.027732,0.000000
816.000000,0.002000,0.578849,-0.022595,-0.437488,0.182823,0.754171,-1.563456,-13.619990,0.718362,10.344184,0.002000,-0.076695,0.000000
817.000000,0.002000,0.083574,0.091662,0.183551,2.577862,-5.289871,-1.840132,-8.553335,-4.299738,-13.808591,0.002000,-0.042379,0.000000
818.000000,0.002000,0.074630,-0.942805,0.534679,-3.950160,-0.794719,2.091314,-3.154638,8.072912,-4.748457,0.002000,0.592718,0.000000
819.000000,0.002000,-0.181924,0.464007,-0.445373,2.507431,-1.821192,0.362855,5.573717,-11.418336,12.806215,0.002000,-0.464333,0.000000
820.000000,0.002000,-0.647216,-0.187010,-1.138148,-2.217431,-0.323075,-2.363935,3.763706,1.499544,6.669730,0.002000,0.137455,0.000000
821.000000,0.002000,-1.875106,0.190176,0.787679,-0.929663,-0.849715,0.088476,3.513003,-0.253012,-1.503021,0.002000,-1.090826,0.000000
822.000000,0.002000,0.721787,-0.182202,-0.189994,-4.735669,2.103947,-0.194976,-13.967028,3.867963,3.167103,0.002000,0.578849,0.000000
823.000000,0.002000,0.599646,-2.538026,-0.390829,0.359324,-0.773692,0.664534,-0.541399,2.343425,0.353448,0.002000,0.083574,0.000000
824.000000,0.002000,0.157520,-0.344796,-0.735450,0.667049,-2.280690,-0.368207,-5.913570,2.827603,11.874514,0.002000,0.074630,0.000000
825.000000,0.002000,1.789522,-1.551136,-3.621152,-1.570060,-0.256801,-0.469647,-0.436432,0.379330,0.860911,0.002000,-0.181924,0.000000
826.000000,0.002000,-0.397192,0.201640,0.002963,-1.509795,-1.812263,-3.526987,21.026977,-6.884693,1.801309,0.002000,-0.647216,0.000000
827.000000,0.002000,-0.447216,0.503154,0.081502,0.048697,1.970588,0.776621,11.308319,-12.302370,-3.652266,0.002000,-1.875106,0.000000
828.000000,0.002000,-0.154438,0.664586,-0.205467,0.794725,1.672028,-1.811462,2.662985,-15.112492,4.765138,0.002000,0.721787,0.000000
829.000000,0.002000,1.547379,0.941858,-1.621639,-1.093667,-0.574553,-0.558212,-1.876213,-1.081301,1.948114,0.002000,0.599646,0.000000
830.000000,0.002000,-0.991229,-0.653531,0.907660,-0.101583,0.243255,0.185832,4.020882,2.822169,-4.422551,0.002000,0.157520,0.000000
831.000000,0.002000,0.195590,-0.416733,-0.736897,-1.565718,0.597952,-3.257611,-4.433773,7.628605,11.460769,0.002000,1.789522,0.000000
832.000000,0.002000,-0.114537,0.349543,-0.067252,-0.608814,5.388222,0.048914,3.755260,-19.913697,-1.414833,0.002000,-0.397192,0.000000
833.000000,0.002000,-0.227972,-0.697389,-0.519998,0.087337,0.174399,-1.569351,1.451473,10.899468,7.614008,0.002000,-0.447216,0.000000
834.000000,0.002000,-0.783918,0.201395,0.361811,-0.119852,1.390338,-0.231218,10.873777,-2.288182,-5.545705,0.002000,-0.154438,0.000000
835.000000,0.002000,-2.552182,1.646900,0.734979,0.660417,0.733405,0.599655,1.616005,-1.010483,-0.470108,0.002000,1.547379,0.000000
836.000000,0.002000,-1.107673,-2.169338,0.374049,0.539327,1.952065,-0.932536,1.242807,2.439763,-0.425549,0.002000,-0.991229,0.000000
837.000000,0.002000,-0.572690,0.020038,-0.985048,0.496210,-0.268386,-2.800966,4.949760,-0.531368,8.569193,0.002000,0.195590,0.000000
838.000000,0.002000,-0.131424,0.200504,-0.438634,4.103904,0.957607,-0.839358,4.627807,-6.776229,19.843585,0.002000,-0.114537,0.000000
839.000000,0.002000,-0.555101,0.159252,0.209154,-1.908736,1.718468,1.990246,17.326932,-3.331007,-8.374043,0.002000,-0.227972,0.000000
840.000000,0.002000,0.742803,-0.917044,-0.057415,0.185216,-1.227056,1.293254,-5.331218,6.666819,0.278834,0.002000,-0.783918,0.000000
841.000000,0.002000,-0.855144,0.059544,-0.400681,-1.251839,-1.087193,-2.928081,11.003505,1.292941,3.040772,0.002000,-2.552182,0.000000
842.000000,0.002000,-0.295679,-0.122051,-0.044620,-1.689920,-0.803049,-1.200791,17.064152,6.550152,7.079366,0.002000,-1.107673,0.000000
843.000000,0.002000,-0.195860,0.194113,-0.065322,-0.388604,-0.003229,-1.790670,15.031693,-14.612743,-2.776631,0.002000,-0.572690,0.000000
844.000000,0.002000,0.512614,0.493192,-0.892562,0.166826,-0.134571,1.343138,-4.607896,-3.692169,7.601861,0.002000,-0.131424,0.000000
845.000000,0.002000,0.964036,0.672265,0.821082,2.520018,-1.984962,1.633299,-4.617619,-2.637764,-4.032126,0.002000,-0.555101,0.000000
846.000000,0.002000,-0.267359,0.029777,-0.180868,-1.785705,-0.181751,0.452280,14.983533,2.066631,9.722183,0.002000,0.742803,0.000000
847.000000,0.002000,2.053743,0.354398,-1.844220,-0.235670,0.527673,-0.443022,-1.672823,-0.275270,1.539538,0.002000,-0.855144,0.000000
848.000000,0.002000,-0.137612,0.585835,-0.013933,1.395942,-2.423910,3.057109,3.724559,-17.848593,-1.181162,0.002000,-0.295679,0.000000
849.000000,0.002000,0.206803,-0.393291,0.495741,-5.321857,-1.047119,-0.335879,-4.470931,9.330969,-10.711002,0.002000,-0.195860,0.000000
850.000000,0.002000,0.063859,0.184744,0.018873,2.547346,2.856835,-1.743236,-7.612479,-8.589092,-1.162165,0.002000,0.512614,0.000000
851.000000,0.002000,0.644573,0.357154,-1.144514,-1.181099,-0.527072,-0.415410,-3.513921,-1.574936,6.168060,0.002000,0.964036,0.000000
852.000000,0.002000,0.465518,0.054442,0.165770,-0.571460,1.919103,1.861854,-13.802079,0.134055,-13.176907,0.002000,-0.267359,0.000000
853.000000,0.002000,0.212224,-0.560887,-0.170283,-2.501098,-0.122282,0.495348,-4.474692,16.016667,3.043558,0.002000,2.053743,0.000000
854.000000,0.002000,-0.423686,-0.102848,-0.214061,2.144229,-0.222080,-2.489876,16.668291,6.586019,5.977196,0.002000,-0.137612,0.000000
855.000000,0.002000,-0.998919,0.434414,0.012810,0.360914,2.328287,1.446589,9.168195,-3.603915,0.011345,0.002000,0.206803,0.000000
856.000000,0.002000,0.066787,-0.178189,0.120422,-0.153319,-2.064684,-2.651058,-6.293757,15.951432,-9.103208,0.002000,0.063859,0.000000
857.000000,0.002000,-0.590152,0.518888,0.810716,1.043913,-0.496155,0.607369,5.424447,-3.685111,-6.743876,0.002000,0.644573,0.000000
858.000000,0.002000,-1.077386,-0.431176,0.044982,-1.479470,-0.482707,-1.605963,8.103838,3.546712,-0.918480,0.002000,0.465518,0.000000
859.000000,0.002000,-0.854046,-0.574334,0.818747,-0.138818,-2.416236,1.954909,4.220581,3.451546,-4.552934,0.002000,0.212224,0.000000
860.000000,0.002000,-0.206296,0.426959,0.313871,-1.482283,1.814767,-2.238324,4.745813,-12.117532,-11.137615,0.002000,-0.423686,0.000000
861.000000,0.002000,-0.284358,-2.845723,0.935463,-2.011111,0.508426,-0.757286,0.189446,1.848649,-0.553485,0.002000,-0.998919,0.000000
862.000000,0.002000,-0.032631,0.270385,-0.217651,-2.936925,0.926278,0.172936,4.272631,-13.193338,14.115204,0.002000,0.066787,0.000000
863.000000,0.002000,-0.259678,-0.515095,0.306843,-2.867415,4.051808,-1.068057,6.414755,12.744763,-5.893669,0.002000,-0.590152,0.000000
864.000000,0.002000,0.475840,-3.493196,-1.278253,0.371336,1.624562,-0.060568,-0.196886,1.226693,0.429476,0.002000,-1.077386,0.000000
865.000000,0.002000,-0.753352,2.380604,-0.368329,0.219297,0.505045,-1.595035,0.879675,-2.624360,0.327572,0.002000,-0.854046,0.000000
866.000000,0.002000,0.207255,-1.115309,-0.715335,0.760230,0.129135,-0.967579,-1.323025,6.619071,3.479358,0.002000,-0.206296,0.000000
867.000000,0.002000,-2.599719,-0.459857,-0.982942,0.819756,0.525316,0.043872,2.125565,0.397236,0.800582,0.002000,-0.284358,0.000000
868.000000,0.002000,0.159547,-0.292414,0.652349,1.616119,-2.725404,-2.880724,-2.302043,6.409508,-12.392795,0.002000,-0.032631,0.000000
869.000000,0.002000,0.209861,-0.373743,0.188596,-1.120554,3.346886,1.291960,-7.930231,14.934246,-9.534423,0.002000,-0.259678,0.000000
870.000000,0.002000,-0.161696,0.355347,0.305398,-1.138617,-4.458223,0.397775,5.974755,-11.523038,-13.521229,0.002000,0.475840,0.000000
871.000000,0.002000,0.059929,0.070777,-0.237877,-0.905281,-3.495856,-0.042559,-9.071036,-1.422305,14.661878,0.002000,-0.753352,0.000000
872.000000,0.002000,0.633594,1.615417,1.295970,0.503045,1.295248,1.759637,-1.110037,-2.536784,-2.287403,0.002000,0.207255,0.000000
873.000000,0.002000,-0.578531,-0.939485,-2.026746,-0.584481,-0.916965,-1.895823,0.819827,1.259672,2.657145,0.002000,-2.599719,0.000000
874.000000,0.002000,1.213764,1.151868,0.766113,2.499990,2.080206,0.777291,-3.103300,-2.551190,-2.038274,0.002000,0.159547,0.000000
875.000000,0.002000,0.031266,3.323731,1.709582,0.172583,0.291709,0.078800,-0.010988,-1.253138,-0.680981,0.002000,0.209861,0.000000
876.000000,0.002000,-0.720548,0.914212,0.667566,0.157123,0.642535,0.739034,4.077978,-5.078952,-3.835472,0.002000,-0.161696,0.000000
877.000000,0.002000,-1.952275,-0.128757,-2.150579,-1.379210,-0.209734,-0.342333,1.451945,0.123541,1.660540,0.002000,0.059929,0.000000
878.000000,0.002000,-0.682662,0.462573,1.503937,0.650086,0.464329,1.224617,1.942644,-1.178859,-4.703275,0.002000,0.633594,0.000000
879.000000,0.002000,-0.343490,0.038179,0.663259,0.627319,-0.211121,-0.419800,6.757300,0.064720,-12.369858,0.002000,-0.578531,0.000000
880.000000,0.002000,2.793896,-0.804164,1.241659,-0.589873,0.085356,0.386855,-1.638513,0.481105,-0.754669,0.002000,1.213764,0.000000
881.000000,0.002000,0.082589,0.217260,-0.253320,-1.435148,-1.329661,0.694185,-3.527784,-11.103280,11.383900,0.002000,0.031266,0.000000
882.000000,0.002000,-0.738189,1.421758,-1.807408,-0.192371,-1.659673,-0.479494,1.020515,-1.832392,2.294589,0.002000,-0.720548,0.000000
883.000000,0.002000,-0.524657,0.312357,-0.644267,-1.812720,0.638282,0.911868,7.537991,-4.692761,10.835677,0.002000,-1.952275,0.000000
884.000000,0.002000,-0.052360,-0.373174,0.091576,-1.009786,2.599487,-2.056512,1.818016,19.058975,-4.595338,0.002000,-0.682662,0.000000
885.000000,0.002000,0.013119,1.058692,2.725737,-0.776979,-0.273888,0.078735,-0.042797,-0.814838,-2.024322,0.002000,-0.343490,0.000000
886.000000,0.002000,1.053320,0.501266,0.184128,1.792639,-0.746057,-0.133371,-7.743013,-3.234403,-1.420066,0.002000,2.793896,0.000000
887.000000,0.002000,-0.898972,0.377244,-0.373329,-1.271802,-1.024896,0.444425,9.935976,-3.607615,3.552904,0.002000,0.082589,0.000000
888.000000,0.002000,1.411103,-0.415382,-0.928813,-2.068484,-0.216172,1.143528,-3.925580,1.260962,2.554332,0.002000,-0.738189,0.000000
889.000000,0.002000,0.269576,0.103324,-0.326358,-0.747488,-0.008581,-0.767067,-12.844863,-2.792324,14.466177,0.002000,-0.524657,0.000000
890.000000,0.002000,0.804346,0.974189,1.740224,-2.283097,-0.835194,-1.655314,-1.374533,-1.495440,-2.903283,0.002000,-0.052360,0.000000
891.000000,0.002000,-0.449828,-0.378550,-1.037594,-0.534685,2.698373,1.051749,3.114101,3.058167,8.149964,0.002000,0.013119,0.000000
892.000000,0.002000,-0.468220,-0.516801,-0.182872,-0.608581,-0.730286,2.198722,8.769327,11.098897,3.499051,0.002000,1.053320,0.000000
893.000000,0.002000,-0.577312,-0.612281,0.460958,-2.777151,3.528707,1.603487,10.871888,5.841095,-1.321920,0.002000,-0.898972,0.000000
894.000000,0.002000,-0.127728,0.445823,-0.439885,-0.157511,-1.371851,-2.683875,3.139774,-11.911512,13.355332,0.002000,1.411103,0.000000
895.000000,0.002000,-0.525521,-0.917722,0.746356,1.241670,-1.249055,2.368026,2.929630,5.359573,-4.223496,0.002000,0.269576,0.000000
896.000000,0.002000,-0.579655,0.053540,0.024398,-2.338135,2.713816,0.979475,18.684099,-0.596212,-1.436140,0.002000,0.804346,0.000000
897.000000,0.002000,-0.227288,0.085833,-0.050309,-1.819433,0.036805,-0.777729,14.221058,0.279543,-3.070773,0.002000,-0.449828,0.000000
