# 
#                 columns are tag, mass, x, y, z, vx, vy, vz, ax, ay, az, EK, EU, E
#                 Time=4.000000
# 
1.000000,0.002000,-1.167360,1.979807,2.585760,1.024842,-0.254826,-0.089138,0.493951,-0.841114,-1.127811,80.211034,-163.907063,-83.696029
2.000000,0.002000,-3.609935,-0.853655,-1.799057,-0.296610,-1.195074,1.547086,0.982826,0.233339,0.481961,0.000000,0.000000,0.000000
3.000000,0.002000,-0.153410,1.179049,-0.704912,0.514935,1.095245,-0.902304,0.505537,-5.276801,3.698583,0.000000,0.000000,0.000000
4.000000,0.002000,-0.190490,0.082648,-0.938983,-0.583000,-2.590071,-0.749736,2.211831,-0.633342,11.316422,0.000000,0.000000,0.000000
5.000000,0.002000,0.316548,0.122743,-0.079889,2.169916,-0.159747,2.333884,-17.105126,-6.822368,7.943545,0.000000,0.000000,0.000000
6.000000,0.002000,-0.178375,0.519790,-0.510493,-1.751888,-0.756447,-1.422437,2.414847,-11.156759,10.884438,0.000000,0.000000,0.000000
7.000000,0.002000,0.097481,-2.897205,2.023389,0.052562,-0.130118,-0.688828,-0.054290,1.185358,-0.793707,1577139022369446083322798405560457826463402338589605888.000000,0.000000,0.000000
8.000000,0.002000,-0.046708,0.388794,-0.650750,0.922771,-0.787486,3.530637,-0.396831,-7.720221,14.146041,930382473798674171610975997523362011431124862008408021056652788629504.000000,0.000000,0.000000
9.000000,0.002000,-2.907557,1.928722,0.926650,0.271258,-0.200450,0.064714,1.124847,-0.749209,-0.351832,0.002000,-1.167360,0.000000
10.000000,0.002000,0.916740,0.579910,0.053935,-3.748989,-0.599572,1.601363,-8.325651,-4.778975,-0.504837,0.002000,-3.609935,0.000000
11.000000,0.002000,-0.471775,-0.331308,-0.509838,-0.448279,-1.192623,1.557475,8.454694,7.258838,9.503256,0.002000,-0.153410,0.000000
12.000000,0.002000,1.330778,1.712868,0.364317,-1.728395,-1.505606,-0.255670,-1.905928,-2.683320,-0.619914,0.002000,-0.190490,0.000000
13.000000,0.002000,-0.052069,0.540622,0.656463,-2.740538,-1.783601,1.661029,0.764547,-8.281484,-11.023435,0.002000,0.316548,0.000000
14.000000,0.002000,1.657705,0.961478,-0.030106,0.726443,0.921105,0.942117,-3.544538,-1.992297,0.000246,0.002000,-0.178375,0.000000
15.000000,0.002000,-0.563264,-3.333655,-1.133697,-0.693658,-0.764050,-0.516872,0.173046,1.325441,0.414296,0.002000,0.097481,0.000000
16.000000,0.002000,-0.014550,-1.890478,-0.184747,-0.492738,1.901410,1.709951,0.091952,3.948879,0.410246,0.002000,-0.046708,0.000000
17.000000,0.002000,0.108040,0.327636,0.171239,0.451598,-4.357070,-1.504778,-7.401051,-14.822486,-8.133449,0.002000,-2.907557,0.000000
18.000000,0.002000,-0.442106,0.481603,0.776656,0.411335,1.138702,-0.084106,4.394974,-4.819933,-8.498344,0.002000,0.916740,0.000000
19.000000,0.002000,0.001578,-0.169788,-0.169858,-0.430387,-0.042769,-0.703031,-7.321096,15.082117,16.347817,0.002000,-0.471775,0.000000
20.000000,0.002000,0.234250,-0.230922,-0.008272,2.608915,1.114005,1.342829,-10.380109,15.278564,-0.172496,0.002000,1.330778,0.000000
21.000000,0.002000,0.062884,0.298805,0.314537,2.776312,-1.717253,-1.109113,-5.748214,-11.442478,-14.142562,0.002000,-0.052069,0.000000
22.000000,0.002000,0.990851,-0.877590,0.301870,0.320415,-0.377441,-0.032624,-5.070212,4.218512,-1.599300,0.002000,1.657705,0.000000
23.000000,0.002000,-0.082910,1.299178,1.106763,2.342323,-1.024582,1.097542,0.000300,-3.676947,-3.243087,0.002000,-0.563264,0.000000
24.000000,0.002000,-0.432429,-0.409466,-0.082368,2.881858,0.044350,0.688122,10.553875,12.253863,2.365591,0.002000,-0.014550,0.000000
25.000000,0.002000,-0.699688,0.195632,-0.420434,1.527134,-2.641976,0.645012,11.959705,-2.762325,7.320324,0.002000,0.108040,0.000000
26.000000,0.002000,1.134771,1.498260,0.922513,1.059811,-0.121711,-0.833658,-1.968565,-2.531109,-1.589129,0.002000,-0.442106,0.000000
27.000000,0.002000,0.619973,0.256605,0.383466,-0.433328,-1.317388,0.323046,-11.079826,-4.794536,-6.003887,0.002000,0.001578,0.000000
28.000000,0.002000,-0.094529,-0.217997,0.042453,-0.468533,-2.604927,-4.612980,4.776061,19.250852,-0.902040,0.002000,0.234250,0.000000
29.000000,0.002000,-3.524534,-3.360352,1.969750,-0.103830,-0.064497,0.456001,0.478270,0.450951,-0.263372,0.002000,0.062884,0.000000
30.000000,0.002000,-0.989743,-1.064114,-0.142613,0.257205,0.020260,0.993184,3.479240,4.982304,2.018217,0.002000,0.990851,0.000000
31.000000,0.002000,0.298390,-0.100154,-0.034338,-1.277193,-4.188836,0.280510,-17.720325,9.258333,0.338732,0.002000,-0.082910,0.000000
32.000000,0.002000,0.015853,0.222995,0.153509,-2.664189,1.345510,-0.643890,-4.002115,-16.989689,-9.088419,0.002000,-0.432429,0.000000
33.000000,0.002000,-0.144291,-0.226129,-1.147315,0.158399,-0.736813,-0.216435,0.807023,2.183518,8.773730,0.002000,-0.699688,0.000000
34.000000,0.002000,-0.541476,-0.565801,-0.024626,-0.091102,3.329935,-2.696716,8.439986,10.737154,0.114323,0.002000,1.134771,0.000000
35.000000,0.002000,-1.146226,-0.332041,0.720545,1.636262,1.484095,-2.755007,7.779381,2.765699,-1.947774,0.002000,0.619973,0.000000
36.000000,0.002000,0.331121,-1.408840,1.422982,0.696060,1.481838,-1.894919,-0.728415,2.475508,-2.293595,0.002000,-0.094529,0.000000
37.000000,0.002000,-3.233899,-3.698116,2.798157,-0.045239,-0.217366,0.714194,0.361377,0.397177,-0.304366,0.002000,-3.524534,0.000000
38.000000,0.002000,0.254715,-0.699773,0.963677,1.083668,1.052137,-0.498182,-1.507598,4.601312,-6.210033,0.002000,-0.989743,0.000000
39.000000,0.002000,-0.192272,0.356540,-0.079366,-1.187181,2.180166,2.301948,10.203685,-16.867927,2.459180,0.002000,0.298390,0.000000
40.000000,0.002000,0.205271,0.407230,0.997815,-0.868290,1.700315,1.786196,-3.033129,-0.799545,-11.382879,0.002000,0.015853,0.000000
41.000000,0.002000,-0.603472,0.787157,0.365930,-0.395348,0.780847,-0.632532,5.711999,-8.332076,-3.555022,0.002000,-0.144291,0.000000
42.000000,0.002000,0.801116,0.989600,-2.971325,0.628832,-0.502843,0.250322,-0.462828,-0.518422,1.577678,0.002000,-0.541476,0.000000
43.000000,0.002000,-0.015197,1.466836,0.262706,2.258776,-1.328694,-2.045030,0.027731,-6.141038,-1.160352,0.002000,-1.146226,0.000000
44.000000,0.002000,-0.485101,0.484039,0.053293,-1.400920,-0.828876,1.956967,13.417213,-12.216609,-1.462890,0.002000,0.331121,0.000000
45.000000,0.002000,-0.692017,0.201997,0.365846,1.368020,0.176084,1.753882,12.182977,-3.402569,-7.173563,0.002000,-3.233899,0.000000
46.000000,0.002000,-0.011163,-0.127526,0.250289,3.336391,0.905521,-1.627358,-1.062619,9.437111,-12.674613,0.002000,0.254715,0.000000
47.000000,0.002000,-0.826058,-0.241869,-0.003647,-2.870057,-1.820967,-1.652915,12.848512,4.207089,-0.159589,0.002000,-0.192272,0.000000
48.000000,0.002000,-0.631033,-0.042308,-0.321462,-0.227978,-1.351697,0.131560,15.155216,2.292163,6.587417,0.002000,0.205271,0.000000
49.000000,0.002000,-4.307831,-1.322052,-0.177788,0.029571,0.071965,-0.183685,0.906577,0.282996,0.031071,0.002000,-0.603472,0.000000
50.000000,0.002000,0.072961,0.559083,0.562780,-0.739975,2.533659,2.104532,-1.593420,-7.868773,-10.168383,0.002000,0.801116,0.000000
51.000000,0.002000,-1.136097,0.460687,-0.343156,0.050304,-0.732315,0.168230,7.522040,-2.910994,2.318816,0.002000,-0.015197,0.000000
52.000000,0.002000,0.343590,0.077752,-0.370151,3.167261,0.879887,0.581151,-14.433013,-1.567153,11.860156,0.002000,-0.485101,0.000000
53.000000,0.002000,-0.201332,-0.996390,-0.475000,-0.551891,-0.278643,0.176836,1.311618,7.919645,4.031327,0.002000,-0.692017,0.000000
54.000000,0.002000,0.904804,0.706404,-1.208466,0.734884,0.207377,1.987383,-2.757827,-2.077521,3.642906,0.002000,-0.011163,0.000000
55.000000,0.002000,0.408764,0.117015,-0.366840,-0.522609,-0.696503,3.371169,-16.389858,-3.273456,9.969229,0.002000,-0.826058,0.000000
56.000000,0.002000,0.400492,-0.540947,-0.149965,1.302983,-1.003069,-2.246633,-8.913879,10.386165,-2.424788,0.002000,-0.631033,0.000000
57.000000,0.002000,1.637879,1.345753,2.026027,1.159397,-0.996381,-0.368734,-1.153505,-0.609584,-1.585272,0.002000,-4.307831,0.000000
58.000000,0.002000,-0.257034,-0.788389,-1.021936,0.906629,2.902594,1.741943,1.179104,4.537482,5.624340,0.002000,0.072961,0.000000
59.000000,0.002000,-0.315367,0.234630,0.511866,2.173819,-1.904053,1.396627,6.715996,-5.218829,-12.570595,0.002000,-1.136097,0.000000
60.000000,0.002000,0.040602,-0.106695,0.205215,-1.261635,-0.039586,-0.176858,-3.778156,11.027224,-11.774289,0.002000,0.343590,0.000000
61.000000,0.002000,0.442451,-0.292081,-0.295462,-2.650579,-2.208816,0.031336,-12.137370,8.717004,7.873885,0.002000,-0.201332,0.000000
62.000000,0.002000,-2.415559,-0.068611,3.915314,-0.618168,0.138031,-0.404540,0.479311,0.084839,-0.802995,0.002000,0.904804,0.000000
63.000000,0.002000,-0.339207,0.050493,-0.045499,-2.227721,-0.959657,0.718435,21.754022,-6.424150,1.530403,0.002000,0.408764,0.000000
64.000000,0.002000,-0.901510,0.142147,-0.315460,0.152181,-2.075443,-0.420277,11.739434,-1.087159,4.224548,0.002000,0.400492,0.000000
65.000000,0.002000,0.680046,0.794985,0.224542,-0.786698,1.962994,-1.516673,-6.265510,-7.227509,-2.397059,0.002000,1.637879,0.000000
66.000000,0.002000,-0.307965,0.399993,0.599411,-0.877276,-1.661276,-3.009276,5.138801,-7.722481,-11.676644,0.002000,-0.257034,0.000000
67.000000,0.002000,-0.650390,-2.648249,0.917468,0.564831,0.771069,-0.243491,0.421023,1.826576,-0.627019,0.002000,-0.315367,0.000000
68.000000,0.002000,-0.093916,-0.998500,-1.540701,-0.603334,1.216186,-0.890158,0.118213,2.306297,3.398943,0.002000,0.040602,0.000000
69.000000,0.002000,1.835911,-1.991636,0.808443,-0.762714,-0.980493,-0.899215,-1.323786,1.455977,-0.598271,0.002000,0.442451,0.000000
70.000000,0.002000,-0.581743,-0.473415,0.857174,1.715811,-0.825156,-0.174791,3.173925,3.631740,-7.437041,0.002000,-2.415559,0.000000
71.000000,0.002000,-0.165470,0.389425,-0.593316,1.432837,3.093383,-0.583668,2.698373,-9.643895,14.235054,0.002000,-0.339207,0.000000
72.000000,0.002000,-0.163723,-0.221217,0.087745,2.691436,3.169154,3.618163,9.468663,20.351699,-6.214689,0.002000,-0.901510,0.000000
73.000000,0.002000,-2.590835,2.564235,-1.738055,-0.158963,0.279594,0.525204,0.764449,-0.732966,0.495967,0.002000,0.680046,0.000000
74.000000,0.002000,0.054214,0.324757,0.545726,0.070243,-0.487835,-0.409460,-1.183974,-8.767982,-15.390243,0.002000,-0.307965,0.000000
75.000000,0.002000,-2.349939,0.660319,-0.727576,1.846988,-0.152488,-0.731819,2.340768,-0.669078,0.719265,0.002000,-0.650390,0.000000
76.000000,0.002000,0.498302,-0.586780,-0.848816,-0.343834,-0.136910,-0.292340,-3.887220,4.472935,6.313952,0.002000,-0.093916,0.000000
77.000000,0.002000,0.035263,0.158494,-0.855419,-1.244934,-0.564710,0.245772,-1.225780,-2.242601,12.870430,0.002000,1.835911,0.000000
78.000000,0.002000,-0.283442,-0.132638,0.265058,-0.147100,1.555910,3.867786,10.254966,5.424646,-12.612465,0.002000,-0.581743,0.000000
79.000000,0.002000,0.808593,0.101584,-0.305437,1.147098,2.126056,1.526991,-12.369499,-1.197454,4.998015,0.002000,-0.165470,0.000000
80.000000,0.002000,-1.120354,3.598716,-0.834937,-0.962377,-0.150308,0.472555,0.375985,-1.181928,0.300958,0.002000,-0.163723,0.000000
81.000000,0.002000,0.091646,0.100176,0.145834,1.965993,0.207294,-0.121115,-8.560503,-6.194667,-10.605659,0.002000,-2.590835,0.000000
82.000000,0.002000,0.912583,0.669811,0.260827,-0.811370,-0.589091,-3.021815,-7.071648,-4.897210,-2.108612,0.002000,0.054214,0.000000
83.000000,0.002000,0.451406,0.460416,-0.380481,2.029373,0.261657,3.670776,-9.657752,-8.648745,7.834960,0.002000,-2.349939,0.000000
84.000000,0.002000,-1.463937,-1.336122,0.494635,-0.420888,-1.037953,0.625139,2.491407,2.433250,-0.833297,0.002000,0.498302,0.000000
85.000000,0.002000,-0.186123,0.247750,-0.482909,3.016448,-0.420311,-4.469334,7.120002,-5.496376,17.823429,0.002000,0.035263,0.000000
86.000000,0.002000,-0.144149,0.071285,0.803139,1.469942,-2.263286,-0.989971,1.855384,-1.009122,-14.550757,0.002000,-0.283442,0.000000
87.000000,0.002000,-0.104825,-0.108851,-0.147233,0.582404,-5.294528,-1.928581,4.283044,8.028948,16.102367,0.002000,0.808593,0.000000
88.000000,0.002000,-0.419883,0.295900,-0.099668,3.233934,1.073431,0.720067,12.718322,-10.404951,1.402201,0.002000,-1.120354,0.000000
89.000000,0.002000,0.857659,1.031639,-0.046040,3.165367,0.688078,-0.833373,-4.786859,-5.348480,0.329726,0.002000,0.091646,0.000000
90.000000,0.002000,-0.073428,-0.230153,0.095717,0.174157,-0.216033,-1.205609,-0.379028,21.434967,-11.092090,0.002000,0.912583,0.000000
91.000000,0.002000,-2.400421,-1.285447,-3.688824,-0.531014,-1.437668,-0.315005,0.460177,0.278070,0.729344,0.002000,0.451406,0.000000
92.000000,0.002000,-0.232439,0.307259,0.266842,-2.092398,1.750311,2.738992,5.159917,-11.070785,-13.952461,0.002000,-1.463937,0.000000
93.000000,0.002000,1.353827,-0.765975,-1.540389,-1.824003,1.481577,-0.193347,-2.087613,1.069092,2.143971,0.002000,-0.186123,0.000000
94.000000,0.002000,-1.366144,1.764461,2.649157,0.845281,-0.240044,0.088822,0.599693,-0.714763,-1.151389,0.002000,-0.144149,0.000000
95.000000,0.002000,-0.679898,-1.165146,-0.120805,-1.318948,-1.040179,0.075628,3.209103,6.279777,0.559495,0.002000,-0.104825,0.000000
96.000000,0.002000,0.684728,0.245607,0.483955,2.299463,1.385964,0.721630,-10.141634,-3.157074,-8.257730,0.002000,-0.419883,0.000000
97.000000,0.002000,0.265680,0.264891,-0.032887,-0.767255,4.131040,-1.570441,-11.341990,-10.250862,1.834868,0.002000,0.857659,0.000000
98.000000,0.002000,0.396266,-2.362045,3.177989,-0.183828,0.393740,-0.170121,-0.148028,0.716528,-0.944242,0.002000,-0.073428,0.000000
99.000000,0.002000,-0.021047,-0.031448,0.180791,-0.062833,-0.870628,-2.455283,4.264438,10.080541,-14.218268,0.002000,-2.400421,0.000000
100.000000,0.002000,-0.018032,-0.261231,0.271389,-2.212008,-1.010547,3.115675,-3.484981,13.277119,-13.823327,0.002000,-0.232439,0.000000
101.000000,0.002000,-0.438814,0.664625,-0.170047,3.128299,-1.611894,-1.607424,7.629710,-12.111155,2.832972,0.002000,1.353827,0.000000
102.000000,0.002000,-0.508047,0.441168,0.039126,-0.856424,-1.518612,3.113700,13.427887,-10.745246,-1.229312,0.002000,-1.366144,0.000000
103.000000,0.002000,-0.341533,0.682138,-0.454992,0.374227,-3.783635,2.764285,4.781760,-11.440956,8.055275,0.002000,-0.679898,0.000000
104.000000,0.002000,-0.332119,0.379323,0.449470,-2.077185,2.721682,-0.512565,6.596781,-15.746883,-8.647859,0.002000,0.684728,0.000000
105.000000,0.002000,0.174860,-0.823753,1.637528,1.761709,1.590236,0.039249,-0.516363,1.890472,-3.675145,0.002000,0.265680,0.000000
106.000000,0.002000,-0.060749,-0.012174,0.217899,-0.941701,-1.904017,-1.417885,6.369398,2.770601,-19.235063,0.002000,0.396266,0.000000
107.000000,0.002000,0.007645,-0.039515,-0.345336,-1.369271,-0.636367,2.572443,-1.362436,6.583717,22.094275,0.002000,-0.021047,0.000000
108.000000,0.002000,-0.899168,-0.421400,-0.399832,0.386345,-0.057333,0.578088,8.412148,4.523238,3.847152,0.002000,-0.018032,0.000000
109.000000,0.002000,0.421665,-0.122985,0.197959,-2.662882,-1.467619,0.826065,-16.000481,3.790792,-8.658779,0.002000,-0.438814,0.000000
110.000000,0.002000,-0.693218,-0.335773,-2.721549,0.624013,-0.139465,0.479503,0.519997,0.264646,2.023882,0.002000,-0.508047,0.000000
111.000000,0.002000,0.548123,0.040264,-0.246452,-1.501537,2.310288,-1.180896,-15.735010,0.189281,7.662997,0.002000,-0.341533,0.000000
112.000000,0.002000,2.232668,0.041249,0.848112,-2.003200,-0.809051,-0.353177,-2.667590,-0.011645,-1.122063,0.002000,-0.332119,0.000000
113.000000,0.002000,-1.081307,-4.787306,-4.051518,0.793693,-0.505989,0.076619,0.082101,0.371204,0.311614,0.002000,0.174860,0.000000
114.000000,0.002000,-0.744762,-0.580785,0.026226,0.575882,-1.509791,-2.016073,8.653378,7.465078,-0.751625,0.002000,-0.060749,0.000000
115.000000,0.002000,-0.690643,0.200568,-0.242558,-1.767242,1.046699,-0.164320,15.067760,-4.113225,5.054314,0.002000,0.007645,0.000000
116.000000,0.002000,-0.059069,-0.092296,-0.027897,0.503139,-1.407885,0.365730,4.481236,6.462582,2.720353,0.002000,-0.899168,0.000000
117.000000,0.002000,-0.342808,0.032382,-0.089961,-1.659154,2.500350,-2.030249,17.765708,-8.420011,9.697979,0.002000,0.421665,0.000000
118.000000,0.002000,0.820056,-0.204411,0.421954,-0.266985,-0.904884,-1.332533,-8.712692,3.058984,-5.422197,0.002000,-0.693218,0.000000
119.000000,0.002000,-0.766167,-1.178013,1.439358,0.551685,0.623029,0.426644,1.343348,2.226415,-2.675679,0.002000,0.548123,0.000000
120.000000,0.002000,-0.161217,-0.208475,-0.049233,-0.477444,1.337979,-3.188974,11.136102,18.260134,-1.354702,0.002000,2.232668,0.000000
121.000000,0.002000,0.100321,0.421614,-0.163154,-0.995505,2.048935,-2.955559,-6.972231,-16.485295,6.203002,0.002000,-1.081307,0.000000
122.000000,0.002000,-0.158843,-0.214512,-0.106041,0.975334,0.368199,0.707110,6.742427,23.562296,0.741738,0.002000,-0.744762,0.000000
123.000000,0.002000,1.484090,-0.443835,1.133613,0.558573,0.497644,0.335263,-2.967552,1.071116,-2.361700,0.002000,-0.690643,0.000000
124.000000,0.002000,-0.705373,0.477793,0.135654,-0.847480,0.341828,-1.141848,10.964119,-8.988306,-3.076527,0.002000,-0.059069,0.000000
125.000000,0.002000,-0.768543,0.195554,0.284994,-2.849474,0.558003,-0.081159,12.471763,-3.404306,-4.427402,0.002000,-0.342808,0.000000
126.000000,0.002000,0.002872,-1.676632,-2.118630,0.269120,1.507848,0.021290,-0.235903,1.491847,2.125432,0.002000,0.820056,0.000000
127.000000,0.002000,-0.303756,0.790542,-1.124242,-2.035614,-0.305561,2.773520,1.455163,-3.668478,5.355811,0.002000,-0.766167,0.000000
128.000000,0.002000,0.322238,3.700496,0.461186,0.105333,0.081791,-0.161513,-0.131958,-1.306930,-0.179592,0.002000,-0.161217,0.000000
129.000000,0.002000,1.075289,0.327411,-0.070566,-2.914610,0.600351,0.771097,-8.656189,-2.314882,0.572798,0.002000,0.100321,0.000000
130.000000,0.002000,0.326271,-0.046930,0.110631,-0.728799,5.460849,1.672886,-16.828974,3.918652,-5.246821,0.002000,-0.158843,0.000000
131.000000,0.002000,-0.014340,0.375730,-0.258700,-1.996714,3.117372,1.400533,-2.665775,-17.328962,10.974963,0.002000,1.484090,0.000000
132.000000,0.002000,0.528195,0.240318,0.209885,0.299865,3.556695,-1.964010,-15.470619,-6.358386,-4.873027,0.002000,-0.705373,0.000000
133.000000,0.002000,2.111071,0.650379,1.728478,-1.484172,0.970213,0.158530,-1.612948,-0.468952,-1.338640,0.002000,-0.768543,0.000000
134.000000,0.002000,-1.021340,0.397556,-2.746264,1.081358,-0.803085,0.538562,0.712511,-0.405009,1.786217,0.002000,0.002872,0.000000
135.000000,0.002000,-0.302230,-1.768167,-0.624792,0.714194,2.545135,-0.371461,0.423343,3.856815,1.332667,0.002000,-0.303756,0.000000
136.000000,0.002000,-0.033248,-0.091248,-0.040017,-1.652126,-0.315638,4.462767,-1.208458,5.574593,6.177361,0.002000,0.322238,0.000000
137.000000,0.002000,-0.211209,-0.307730,-0.830725,0.300479,1.180611,-1.009053,2.133712,5.343007,11.158096,0.002000,1.075289,0.000000
138.000000,0.002000,-1.636526,1.154936,0.496035,-1.081163,-0.513230,0.086776,2.939721,-2.020145,-0.839072,0.002000,0.326271,0.000000
139.000000,0.002000,-0.398854,0.961685,0.248099,2.127604,-2.178271,-0.465776,3.828406,-9.266600,-2.269810,0.002000,-0.014340,0.000000
140.000000,0.002000,0.512310,1.478184,0.923522,0.986817,0.169393,-2.720147,-1.181494,-3.683958,-2.381909,0.002000,0.528195,0.000000
141.000000,0.002000,1.466943,-3.582761,-1.345637,0.347172,0.308707,-0.850108,-0.388294,0.969699,0.349078,0.002000,2.111071,0.000000
142.000000,0.002000,0.030066,-0.671342,0.073054,-0.881011,1.876852,0.108725,-1.376456,15.058475,-1.800226,0.002000,-1.021340,0.000000
143.000000,0.002000,0.611851,5.668504,1.599375,0.228684,0.537272,0.185678,-0.062436,-0.547677,-0.157338,0.002000,-0.302230,0.000000
144.000000,0.002000,-0.137430,0.322295,-0.104431,-0.756909,3.430694,2.322720,6.281349,-16.656274,8.957502,0.002000,-0.033248,0.000000
145.000000,0.002000,0.640881,0.223897,0.097852,0.315551,-0.625505,3.072384,-14.170567,-5.814466,-2.297045,0.002000,-0.211209,0.000000
146.000000,0.002000,-0.009603,-0.006818,-0.265995,-0.687160,1.513651,-3.820475,-2.764299,1.756279,12.492044,0.002000,-1.636526,0.000000
147.000000,0.002000,-0.584073,-0.555801,-0.215809,2.049544,-0.019608,-0.846694,8.366462,8.297281,4.340148,0.002000,-0.398854,0.000000
148.000000,0.002000,-0.263382,0.370339,-0.315430,-0.474548,-3.850802,4.123677,8.189308,-13.334874,9.073180,0.002000,0.512310,0.000000
149.000000,0.002000,0.139536,0.127339,-0.137581,-0.975273,2.471390,-2.356918,-13.716798,-3.509128,9.566600,0.002000,1.466943,0.000000
150.000000,0.002000,-0.437198,-0.385782,0.029321,2.010672,-1.485036,2.840609,11.984240,10.951128,-0.775754,0.002000,0.030066,0.000000
151.000000,0.002000,0.307538,-0.033504,-0.072906,-4.156814,-3.451755,-1.753042,-23.240718,-0.174627,2.767603,0.002000,0.611851,0.000000
152.000000,0.002000,0.286109,-0.475747,0.383922,-1.348547,3.043201,2.888899,-6.186062,9.005022,-9.235250,0.002000,-0.137430,0.000000
153.000000,0.002000,-0.696959,1.840676,-0.554252,1.065448,0.721941,0.326905,1.337677,-3.426374,1.002434,0.002000,0.640881,0.000000
154.000000,0.002000,-0.578553,0.611728,-0.747842,0.124980,0.289877,0.628050,4.837446,-5.216924,6.558909,0.002000,-0.009603,0.000000
155.000000,0.002000,-0.139420,-0.157281,0.032701,-1.171730,0.470471,-1.458942,12.439574,13.013589,-1.929622,0.002000,-0.584073,0.000000
156.000000,0.002000,-0.663781,-0.682483,-4.367491,0.974256,-0.335726,-0.210058,0.177203,0.151131,0.946860,0.002000,-0.263382,0.000000
157.000000,0.002000,3.793982,2.799605,2.820719,0.052648,0.357945,0.007923,-0.450822,-0.322204,-0.342025,0.002000,0.139536,0.000000
158.000000,0.002000,0.398903,0.105433,-0.424997,0.582964,-0.030584,-2.842427,-14.618388,-2.032349,12.992656,0.002000,-0.437198,0.000000
159.000000,0.002000,0.036617,0.122787,0.773174,3.845741,1.264187,-0.793888,-1.350558,-1.587843,-14.372777,0.002000,0.307538,0.000000
160.000000,0.002000,-0.230881,-1.294306,-1.329273,0.881045,0.140839,0.862954,0.470538,2.948372,2.874199,0.002000,0.286109,0.000000
161.000000,0.002000,0.060320,-0.402100,-0.091437,-3.334312,-0.265893,3.667903,-4.250815,23.557964,6.928276,0.002000,-0.696959,0.000000
162.000000,0.002000,-1.750640,-3.739223,-1.427504,-0.284584,0.004175,-1.254443,0.379208,0.848525,0.303997,0.002000,-0.578553,0.000000
163.000000,0.002000,1.177479,-1.388620,-1.381718,0.071577,1.622467,1.160335,-1.678104,1.703479,1.522468,0.002000,-0.139420,0.000000
164.000000,0.002000,0.188028,-0.141350,-0.209200,-0.899184,-2.418924,1.846869,-11.239874,10.002266,11.302167,0.002000,-0.663781,0.000000
165.000000,0.002000,-0.670414,-5.360530,1.075526,0.145135,-0.372704,0.677412,0.067462,0.632028,-0.127383,0.002000,3.793982,0.000000
166.000000,0.002000,0.224140,0.022542,0.516409,-1.122500,-3.668095,-2.981275,-9.840877,0.469833,-17.454489,0.002000,0.398903,0.000000
167.000000,0.002000,-0.433916,-0.022592,-0.795253,2.886313,0.590522,0.276611,6.107563,0.834321,11.104032,0.002000,0.036617,0.000000
168.000000,0.002000,0.001442,-0.119852,-0.032418,-2.175547,-0.150763,2.746075,-6.967063,11.280428,2.976558,0.002000,-0.230881,0.000000
169.000000,0.002000,0.233657,-0.638159,1.399041,-0.154384,-0.727184,0.543354,-0.859767,2.286385,-4.934396,0.002000,0.060320,0.000000
170.000000,0.002000,0.015663,3.347302,-2.848557,-0.339548,-0.125996,0.235987,-0.011697,-0.742867,0.638691,0.002000,-1.750640,0.000000
171.000000,0.002000,-1.779813,1.186660,-1.504392,1.712150,0.033986,0.365210,1.626007,-1.116469,1.376531,0.002000,1.177479,0.000000
172.000000,0.002000,1.565448,-2.965342,2.765523,-0.636488,-0.187793,0.030052,-0.391836,0.659821,-0.634036,0.002000,0.188028,0.000000
173.000000,0.002000,0.202321,0.823943,0.146805,-1.484512,0.116822,0.034307,-2.702651,-13.103446,-2.469534,0.002000,-0.670414,0.000000
174.000000,0.002000,0.346855,-3.141332,-0.413041,0.711252,0.895834,-0.412646,-0.200184,1.669925,0.216466,0.002000,0.224140,0.000000
175.000000,0.002000,1.206747,-0.388661,-0.786247,-0.522129,-2.425727,-0.936723,-4.657535,1.704283,3.026017,0.002000,-0.433916,0.000000
176.000000,0.002000,0.784836,-0.726567,-1.369022,-0.310850,-1.834870,0.099777,-2.082142,2.000890,3.482529,0.002000,0.001442,0.000000
177.000000,0.002000,1.848450,-4.773703,-1.030210,-0.396785,-1.108583,-1.156361,-0.258147,0.642613,0.140403,0.002000,0.233657,0.000000
178.000000,0.002000,0.281901,0.347566,-0.119592,-0.350714,1.489522,1.019894,-11.039447,-13.450206,4.843269,0.002000,0.015663,0.000000
179.000000,0.002000,-0.333121,0.003925,-0.461744,-2.931136,-1.707811,-1.205005,11.635885,3.184091,14.740680,0.002000,-1.779813,0.000000
180.000000,0.002000,0.519971,0.033970,0.350225,1.489854,0.802338,0.621949,-14.613138,0.297452,-9.936142,0.002000,1.565448,0.000000
181.000000,0.002000,0.207014,-0.759674,0.339825,0.325490,-3.314558,-0.840464,-0.049724,17.535507,-2.646030,0.002000,0.202321,0.000000
182.000000,0.002000,2.513820,0.851413,0.263241,0.248774,-1.104431,-0.801268,-2.289189,-0.739659,-0.255731,0.002000,0.346855,0.000000
183.000000,0.002000,-0.094508,-1.767274,-4.606826,0.351910,-1.219953,-0.348107,0.013877,0.296336,0.751920,0.002000,1.206747,0.000000
184.000000,0.002000,-0.663927,0.142270,-0.211080,-0.657017,-0.577996,-2.324733,16.783576,-2.709913,4.463791,0.002000,0.784836,0.000000
185.000000,0.002000,0.829956,0.410366,-0.995099,1.322884,-0.696343,-0.620975,-4.525940,-1.615117,5.876524,0.002000,1.848450,0.000000
186.000000,0.002000,-0.546816,-1.724295,-2.872102,0.705452,-1.178071,0.038593,0.270909,0.805927,1.270411,0.002000,0.281901,0.000000
187.000000,0.002000,2.531976,-2.412200,-1.619263,-0.256640,-0.262599,0.420116,-0.794463,0.795248,0.487343,0.002000,-0.333121,0.000000
188.000000,0.002000,-0.005068,0.394667,0.536182,0.510478,-3.678747,1.735843,-0.140169,-8.326809,-14.022432,0.002000,0.519971,0.000000
189.000000,0.002000,-0.052222,-0.740740,-0.010950,-3.544737,-3.233922,1.741668,1.000013,15.253845,0.128178,0.002000,0.207014,0.000000
190.000000,0.002000,-0.176273,0.455829,0.095628,2.692489,-0.970933,1.382177,7.043845,-18.588177,-5.045893,0.002000,2.513820,0.000000
191.000000,0.002000,0.116881,0.030631,-0.359771,-1.641146,-1.149187,3.523964,-5.915363,-2.245884,20.919502,0.002000,-0.094508,0.000000
192.000000,0.002000,0.469288,0.241770,-0.173492,-1.602159,-2.730314,2.905630,-15.793153,-8.185614,5.107616,0.002000,-0.663927,0.000000
193.000000,0.002000,-0.406988,0.393791,-0.173045,-0.833564,-0.243869,-1.115551,11.578426,-12.885059,4.586576,0.002000,0.829956,0.000000
194.000000,0.002000,-2.401623,-2.538338,1.460038,0.841543,-0.310761,-0.497914,0.803662,0.853901,-0.494229,0.002000,-0.546816,0.000000
195.000000,0.002000,-1.294039,0.580125,-0.081609,-1.237702,-0.195035,1.452895,6.082722,-2.760829,0.307701,0.002000,2.531976,0.000000
196.000000,0.002000,0.301659,-0.291217,0.071234,-0.067082,-2.426180,2.280379,-7.529060,14.704994,-1.165132,0.002000,-0.005068,0.000000
197.000000,0.002000,0.495199,-5.867685,-1.880514,0.190113,0.436258,-0.411108,-0.043183,0.487290,0.154882,0.002000,-0.052222,0.000000
198.000000,0.002000,-0.383837,-0.208200,-0.004089,-2.553209,-1.578840,-1.877446,17.353544,12.674813,-5.960827,0.002000,-0.176273,0.000000
199.000000,0.002000,0.161122,0.717963,0.038071,-0.961918,-0.926000,1.829151,-0.896233,-15.975433,-0.126884,0.002000,0.116881,0.000000
200.000000,0.002000,0.075505,0.272957,0.114166,-0.684198,2.652307,-3.359527,-6.023105,-13.877638,-8.713535,0.002000,0.469288,0.000000
201.000000,0.002000,0.890541,-0.415340,0.751356,-2.598918,1.225350,-2.286897,-5.199214,2.938021,-4.742688,0.002000,-0.406988,0.000000
202.000000,0.002000,-0.878249,-0.667601,-0.017943,-3.297113,-1.379922,0.724358,7.828596,6.146179,0.158857,0.002000,-2.401623,0.000000
203.000000,0.002000,0.113078,-0.792262,-0.756445,0.055088,2.538599,-0.711066,-0.999501,6.774230,5.990543,0.002000,-1.294039,0.000000
204.000000,0.002000,-0.047951,-0.498367,-0.453670,3.917635,-1.625556,0.561699,1.491528,12.023496,9.786619,0.002000,0.301659,0.000000
205.000000,0.002000,0.715876,0.181745,-0.877328,0.487083,-1.703325,-1.776682,-5.619978,-1.180283,6.754374,0.002000,0.495199,0.000000
206.000000,0.002000,0.308910,0.101534,0.046167,2.230582,1.678396,-1.712251,-19.384466,-2.526584,-5.798528,0.002000,-0.383837,0.000000
207.000000,0.002000,-2.333355,1.647118,-0.921858,1.040124,-0.844888,0.536197,1.498244,-1.026697,0.583480,0.002000,0.161122,0.000000
208.000000,0.002000,0.654486,0.010109,0.783021,0.360688,-1.064026,-0.953845,-6.713839,0.254392,-8.401564,0.002000,0.075505,0.000000
209.000000,0.002000,-0.189477,0.027413,-0.240496,-1.015105,-2.847973,2.036964,4.611213,-0.865582,16.348963,0.002000,0.890541,0.000000
210.000000,0.002000,0.662497,0.204313,-0.577602,-0.796567,1.134554,-3.079566,-9.527406,-2.252170,7.436473,0.002000,-0.878249,0.000000
211.000000,0.002000,0.076966,-0.204089,0.052202,-1.140669,-1.675372,3.553303,-8.081988,16.961254,-2.321824,0.002000,0.113078,0.000000
212.000000,0.002000,-0.121122,0.241885,-0.162257,-1.416511,0.524689,0.317509,4.597070,-15.320067,8.678615,0.002000,-0.047951,0.000000
213.000000,0.002000,-0.672201,0.417912,0.127212,-0.566144,0.898884,-1.845421,11.599451,-8.773319,-3.997936,0.002000,0.715876,0.000000
214.000000,0.002000,0.293340,0.090323,0.365096,-4.500207,3.547774,0.593280,-10.531211,-2.933047,-14.610597,0.002000,0.308910,0.000000
215.000000,0.002000,-0.225005,0.253882,1.596323,1.541595,-1.393546,-0.379922,0.584172,-0.766904,-5.371947,0.002000,-2.333355,0.000000
216.000000,0.002000,-0.153585,0.576602,0.620656,-0.172776,1.116416,-0.776730,2.262757,-8.598543,-10.015466,0.002000,0.654486,0.000000
217.000000,0.002000,0.327519,-1.010598,-0.115459,-0.146812,2.720374,-1.507876,-3.004157,9.013406,1.083835,0.002000,-0.189477,0.000000
218.000000,0.002000,-2.447118,-2.551887,-1.870518,-1.117812,0.442637,0.514648,0.719405,0.759978,0.560946,0.002000,0.662497,0.000000
219.000000,0.002000,-0.189720,-0.115958,-0.179711,0.181027,1.156637,-0.867161,11.430756,9.409738,12.333376,0.002000,0.076966,0.000000
220.000000,0.002000,1.075378,0.097683,-0.572001,-1.757540,0.088126,2.194878,-7.325842,-0.533115,3.857646,0.002000,-0.121122,0.000000
221.000000,0.002000,-2.179018,0.637245,1.942202,-0.118683,-1.005660,-0.068022,1.315666,-0.374708,-1.284526,0.002000,-0.672201,0.000000
222.000000,0.002000,-0.249458,0.033395,0.005775,0.659120,1.088602,2.402091,19.123491,-0.255803,-2.524544,0.002000,0.293340,0.000000
223.000000,0.002000,1.177580,-3.055878,0.184661,-0.016068,0.463026,-0.560440,-0.555569,1.483306,-0.100970,0.002000,-0.225005,0.000000
224.000000,0.002000,0.060512,2.401613,-2.501066,0.282046,-1.158724,-0.320988,-0.034718,-1.006491,1.068538,0.002000,-0.153585,0.000000
225.000000,0.002000,-1.246865,-0.173729,-0.252916,-0.005195,1.458706,-1.186748,7.657529,1.255372,1.806502,0.002000,0.327519,0.000000
226.000000,0.002000,0.022629,0.210863,-0.106677,-3.007785,-2.544022,0.006000,-6.377603,-15.030147,5.204485,0.002000,-2.447118,0.000000
227.000000,0.002000,-0.268660,0.272635,0.280676,0.792706,-3.269243,-3.002964,11.822082,-9.938042,-11.868753,0.002000,-0.189720,0.000000
228.000000,0.002000,1.517425,1.128808,1.491471,-1.073700,-1.091826,1.273634,-1.752294,-1.267857,-1.728951,0.002000,1.075378,0.000000
229.000000,0.002000,4.911937,-2.253646,0.241158,0.431718,1.104188,-0.871065,-0.599310,0.280485,-0.031806,0.002000,-2.179018,0.000000
230.000000,0.002000,-1.073087,-3.547052,-3.291941,-0.428638,-0.352212,0.160277,0.169644,0.556090,0.521375,0.002000,-0.249458,0.000000
231.000000,0.002000,0.591827,0.722263,-0.699534,-1.834704,-0.671261,-0.171555,-4.138903,-5.807907,5.928958,0.002000,1.177580,0.000000
232.000000,0.002000,-1.122074,-1.041724,0.393009,1.433322,1.290017,-0.798672,3.911011,3.808167,-1.668598,0.002000,0.060512,0.000000
233.000000,0.002000,-0.103994,-0.287992,-0.820992,0.209360,0.787217,-0.071892,1.939442,4.922540,12.447380,0.002000,-1.246865,0.000000
234.000000,0.002000,-0.589903,0.302870,1.195843,-1.154916,2.804505,1.201880,2.897046,-1.152400,-6.778715,0.002000,0.022629,0.000000
235.000000,0.002000,0.291746,-0.199905,0.001793,-5.296213,-1.286805,1.245387,-15.423188,11.607675,-1.637523,0.002000,-0.268660,0.000000
236.000000,0.002000,1.247366,1.798950,-1.111652,0.663532,-1.308922,1.557061,-1.374831,-1.959292,1.255308,0.002000,1.517425,0.000000
237.000000,0.002000,-0.439035,0.141506,0.323324,1.745289,3.997698,0.827444,13.712612,-3.667752,-11.153935,0.002000,4.911937,0.000000
238.000000,0.002000,-0.624583,0.124541,0.118440,-0.704066,2.474447,0.649651,15.207029,-2.429508,-3.707538,0.002000,-1.073087,0.000000
239.000000,0.002000,0.536553,0.714920,-0.490185,-1.736633,0.808906,1.436282,-5.772259,-7.189737,5.651208,0.002000,0.591827,0.000000
240.000000,0.002000,-0.231636,0.298308,-0.217875,2.180975,0.696513,0.012261,9.232624,-14.700310,7.258950,0.002000,-1.122074,0.000000
241.000000,0.002000,0.418094,-0.649814,0.156209,-2.489645,-0.463598,-0.170527,-6.907878,10.669812,-3.006458,0.002000,-0.103994,0.000000
242.000000,0.002000,-0.232195,0.532871,-0.503937,0.611335,-4.583060,1.962039,5.041059,-11.195206,10.378165,0.002000,-0.589903,0.000000
243.000000,0.002000,0.188333,-0.879602,-0.015441,-0.181695,-0.860088,0.475342,-2.537862,11.334449,0.355005,0.002000,0.291746,0.000000
244.000000,0.002000,-0.362135,0.039744,0.204668,-1.946347,-1.917027,-2.270276,18.890941,1.437562,-11.729720,0.002000,1.247366,0.000000
245.000000,0.002000,4.211822,1.502464,-5.110721,-0.318299,0.807733,-1.535275,-0.272050,-0.095128,0.324816,0.002000,-0.439035,0.000000
246.000000,0.002000,2.756623,-1.548432,1.925966,-0.082609,0.006852,-0.034530,-0.949332,0.495827,-0.673247,0.002000,-0.624583,0.000000
247.000000,0.002000,0.443058,-1.546964,-2.151308,-1.565241,-0.399058,0.450232,-0.417580,1.350315,1.804154,0.002000,0.536553,0.000000
248.000000,0.002000,-0.209413,0.294316,0.489984,-2.360012,2.414364,1.534545,4.210728,-7.712071,-14.413064,0.002000,-0.231636,0.000000
249.000000,0.002000,0.207846,0.083477,-0.157464,0.995199,1.556863,0.170860,-14.215450,-3.130313,12.295615,0.002000,0.418094,0.000000
250.000000,0.002000,0.091188,-0.232400,-0.215463,-1.077031,3.844564,-3.360098,-6.993754,13.431422,11.992917,0.002000,-0.232195,0.000000
251.000000,0.002000,-1.305415,-2.467764,-1.243975,1.051147,0.049483,0.879724,0.747164,1.454072,0.768651,0.002000,0.188333,0.000000
252.000000,0.002000,-0.029207,-0.229856,0.146035,4.587432,-0.981802,1.435234,-0.528448,15.222451,-9.032198,0.002000,-0.362135,0.000000
253.000000,0.002000,0.307090,-0.157114,-0.023772,-0.655614,-3.066751,0.720306,-18.634909,11.008055,0.528261,0.002000,4.211822,0.000000
254.000000,0.002000,0.228419,-0.818051,0.649237,-3.052132,0.639115,-0.531243,-1.970775,7.218628,-5.827791,0.002000,2.756623,0.000000
255.000000,0.002000,0.566712,-0.653266,0.168215,0.861960,1.162078,1.591953,-7.738528,8.881115,-3.165070,0.002000,0.443058,0.000000
256.000000,0.002000,0.317597,-0.410472,-0.199002,1.663349,-4.018774,-2.094133,-10.773814,13.529168,6.863627,0.002000,-0.209413,0.000000
257.000000,0.002000,0.262369,0.281324,0.209159,4.247795,0.346801,-0.725053,-12.102253,-11.027437,-10.184646,0.002000,0.207846,0.000000
258.000000,0.002000,0.303451,-0.099972,0.172786,2.314052,0.804374,0.963580,-16.360607,7.014189,-8.037324,0.002000,0.091188,0.000000
259.000000,0.002000,-0.107105,-1.039798,-0.187861,1.451821,-1.171353,-1.814097,0.713102,9.337774,1.639444,0.002000,-1.305415,0.000000
260.000000,0.002000,0.720081,1.244743,1.019357,0.552592,-1.016003,1.725963,-2.010064,-3.140888,-2.761802,0.002000,-0.029207,0.000000
261.000000,0.002000,1.160764,0.143650,0.242705,0.781627,-1.683136,-0.366988,-8.096123,-0.755605,-1.700083,0.002000,0.307090,0.000000
262.000000,0.002000,0.934065,-0.765836,0.538268,-0.568596,-1.683102,2.417626,-5.330491,3.995665,-2.951863,0.002000,0.228419,0.000000
263.000000,0.002000,-0.581620,-0.426819,0.636065,-0.046097,-0.572603,2.165191,6.380339,4.567288,-7.504924,0.002000,0.566712,0.000000
264.000000,0.002000,-0.787982,0.449659,-0.738266,-1.740701,0.160006,-1.727771,6.530651,-3.255128,6.498197,0.002000,0.317597,0.000000
265.000000,0.002000,-0.419769,0.399497,-0.365555,-1.902862,2.759098,0.990060,9.967291,-11.914948,7.916281,0.002000,0.262369,0.000000
266.000000,0.002000,-0.824150,1.367432,0.924921,0.753876,-0.701584,-0.049720,2.032130,-3.372589,-2.394477,0.002000,0.303451,0.000000
267.000000,0.002000,1.727442,0.525344,0.035060,-1.356290,0.212122,-0.800018,-4.325724,-1.103869,-0.147001,0.002000,-0.107105,0.000000
268.000000,0.002000,0.593488,0.119852,-0.433405,2.501595,-1.455175,-0.430573,-11.941382,-1.453328,8.455174,0.002000,0.720081,0.000000
269.000000,0.002000,0.034347,0.004511,0.037358,1.081493,-0.299363,-3.484361,-8.863160,-1.452522,-1.141756,0.002000,1.160764,0.000000
270.000000,0.002000,0.625991,-0.085422,0.562516,-0.494052,4.421997,-0.373128,-9.615467,1.805319,-8.656242,0.002000,0.934065,0.000000
271.000000,0.002000,0.116749,-0.191490,-0.298214,1.974053,2.427703,-2.147475,-5.918322,11.574480,13.189405,0.002000,-0.581620,0.000000
272.000000,0.002000,-0.470614,-1.476699,2.708853,-0.318474,1.347987,0.492316,0.276814,0.817039,-1.579297,0.002000,-0.787982,0.000000
273.000000,0.002000,0.296740,1.002092,-0.773746,1.658981,-1.050701,0.046252,-2.262157,-5.592998,4.672545,0.002000,-0.419769,0.000000
274.000000,0.002000,-0.203146,-0.058459,-0.138996,0.128732,-0.646248,2.142869,15.491830,7.946975,11.078216,0.002000,-0.824150,0.000000
275.000000,0.002000,0.589445,0.174781,0.280939,-3.099328,1.016589,0.219532,-13.986379,-2.658924,-7.436900,0.002000,1.727442,0.000000
276.000000,0.002000,-0.035874,-2.440696,-2.647487,0.033070,0.395126,0.872120,0.055035,0.963211,0.991570,0.002000,0.593488,0.000000
277.000000,0.002000,0.324036,0.449768,-0.591731,1.187408,-0.455610,-0.309886,-6.231943,-7.651301,10.468309,0.002000,0.034347,0.000000
278.000000,0.002000,-0.348015,0.046991,0.054248,1.943300,-0.747169,-0.680166,19.231017,-2.671605,-6.851420,0.002000,0.625991,0.000000
279.000000,0.002000,-0.111777,-0.569204,-0.028371,-0.615768,-3.309807,-0.586147,2.157827,17.607008,0.414308,0.002000,0.116749,0.000000
280.000000,0.002000,0.375024,0.190530,-0.119193,0.393042,-0.767073,-0.568950,-16.491589,-8.723551,5.746896,0.002000,-0.470614,0.000000
281.000000,0.002000,0.845136,0.059969,0.696400,-0.607616,1.316392,-2.087825,-7.186128,-0.220902,-6.003393,0.002000,0.296740,0.000000
282.000000,0.002000,1.670433,0.527350,0.339791,-1.334103,0.826278,2.490821,-4.475570,-1.215341,-0.845189,0.002000,-0.203146,0.000000
283.000000,0.002000,-0.020531,-0.682033,-0.384259,-1.693491,-0.579689,0.454059,0.199995,11.918031,6.426781,0.002000,0.589445,0.000000
284.000000,0.002000,-4.479976,-0.356840,2.732661,-0.553186,-0.643403,0.033191,0.605007,0.054171,-0.370438,0.002000,-0.035874,0.000000
285.000000,0.002000,-0.680671,0.250734,-0.357415,-0.403679,0.896385,0.762106,12.836635,-4.360857,6.526919,0.002000,0.324036,0.000000
286.000000,0.002000,-1.244887,-0.292397,-0.183269,0.468695,-2.809959,-0.652807,7.449671,2.046343,1.137466,0.002000,-0.348015,0.000000
287.000000,0.002000,0.224198,0.521123,-0.153654,-0.769419,-0.963725,1.154818,-7.187045,-14.840605,4.444512,0.002000,-0.111777,0.000000
288.000000,0.002000,-0.075977,-0.013120,-0.003470,0.974419,-1.423397,1.984389,-2.444205,2.163793,-2.080358,0.002000,0.375024,0.000000
289.000000,0.002000,-0.367023,-0.027923,0.075340,-1.546359,1.887514,-0.457217,18.715001,4.228277,-6.415833,0.002000,0.845136,0.000000
290.000000,0.002000,-0.057054,-0.211447,0.209028,-1.572630,-3.303088,1.520305,1.084993,10.888852,-10.756021,0.002000,1.670433,0.000000
291.000000,0.002000,0.888669,-0.110406,-0.739059,-1.520351,-1.055692,3.351490,-6.517811,1.598249,5.335713,0.002000,-0.020531,0.000000
292.000000,0.002000,0.352007,-0.075039,0.460664,-0.471174,-2.165760,1.431927,-11.030061,0.630437,-14.853342,0.002000,-4.479976,0.000000
293.000000,0.002000,-0.000707,-0.069238,0.018469,3.200049,-1.666845,0.998056,-2.476132,4.802574,0.863198,0.002000,-0.680671,0.000000
294.000000,0.002000,1.588295,-0.342167,1.236446,0.812712,-1.301554,-0.456282,-2.742957,0.706210,-2.316922,0.002000,-1.244887,0.000000
295.000000,0.002000,0.359910,0.150161,-0.066903,-0.566087,-0.339380,-2.196277,-17.910361,-7.311443,3.441127,0.002000,0.224198,0.000000
296.000000,0.002000,-0.203572,0.423221,-0.530907,-2.526980,1.791183,1.490869,4.658036,-11.074520,13.121773,0.002000,-0.075977,0.000000
297.000000,0.002000,0.087833,0.124789,-0.267182,1.761779,-1.747973,-2.304162,-7.615197,-4.137915,15.892306,0.002000,-0.367023,0.000000
298.000000,0.002000,0.370746,0.114463,-0.036163,4.791300,-2.114037,0.666517,-19.998173,-5.455416,3.077304,0.002000,-0.057054,0.000000
299.000000,0.002000,2.463816,1.883838,1.439233,0.265265,1.148002,0.082310,-1.100191,-0.806559,-0.652089,0.002000,0.888669,0.000000
300.000000,0.002000,0.314029,-1.150164,-0.268762,2.445052,0.832594,3.388219,-1.689552,7.483870,1.738189,0.002000,0.352007,0.000000
301.000000,0.002000,0.135798,-1.081843,-0.988903,-0.567931,-1.086999,-0.373826,-0.568502,4.515100,4.004873,0.002000,-0.000707,0.000000
302.000000,0.002000,0.148039,0.154191,-0.865957,-1.185966,1.320751,-2.039307,-2.997765,-1.735674,12.020951,0.002000,1.588295,0.000000
303.000000,0.002000,-2.096936,-1.676754,0.843806,1.294817,-0.097407,0.747556,1.557422,1.234341,-0.818205,0.002000,0.359910,0.000000
304.000000,0.002000,-0.008174,-0.377719,-0.306049,2.208738,-1.434478,-2.457059,-1.690544,19.721238,10.185321,0.002000,-0.203572,0.000000
305.000000,0.002000,-1.881714,-0.613535,1.013077,-0.834643,0.610706,0.631412,2.709991,0.896212,-1.483049,0.002000,0.087833,0.000000
306.000000,0.002000,-0.139632,0.047030,-0.063550,-4.471864,-0.211391,-0.948395,12.983288,-10.354791,0.094138,0.002000,0.370746,0.000000
307.000000,0.002000,-0.197637,-0.510261,0.038804,-0.225424,0.742635,3.444960,4.115549,16.608141,-0.899926,0.002000,2.463816,0.000000
308.000000,0.002000,2.529184,-1.140030,-0.923894,-0.614086,1.390261,0.585903,-1.603681,0.795044,0.739138,0.002000,0.314029,0.000000
309.000000,0.002000,1.334248,0.096923,0.491194,-2.836565,1.416789,-1.332077,-5.783867,-0.010463,-2.197749,0.002000,0.135798,0.000000
310.000000,0.002000,0.533778,-0.623287,0.063875,-0.177945,1.131544,2.355574,-7.337799,9.759952,-1.785561,0.002000,0.148039,0.000000
311.000000,0.002000,-0.141902,-1.861887,2.041042,0.999383,0.856516,-0.941982,0.085632,1.476771,-1.554870,0.002000,-2.096936,0.000000
312.000000,0.002000,1.163045,0.129348,-0.891859,2.800404,0.662616,-0.341680,-4.917482,-0.278069,3.578300,0.002000,-0.008174,0.000000
313.000000,0.002000,-1.628597,0.210734,-1.556269,1.200651,1.426104,1.330948,2.218055,-0.242037,2.154296,0.002000,-1.881714,0.000000
314.000000,0.002000,0.320449,-0.465881,0.033632,-2.079984,1.132961,2.479655,-10.331704,14.354588,-0.907168,0.002000,-0.139632,0.000000
315.000000,0.002000,-2.005578,-1.236827,-0.239343,-2.337166,-0.486041,-0.281798,2.374821,1.513342,0.249498,0.002000,-0.197637,0.000000
316.000000,0.002000,-0.364123,-0.023277,1.068666,-2.259774,-0.569453,0.359154,2.646442,0.590698,-8.841215,0.002000,2.529184,0.000000
317.000000,0.002000,-0.269699,-0.003497,0.534811,-3.055334,2.241555,1.808153,6.765209,-1.284687,-16.204409,0.002000,1.334248,0.000000
318.000000,0.002000,-0.194797,-0.308591,-0.478478,0.181233,3.640631,-0.458306,5.043696,11.151780,13.160799,0.002000,0.533778,0.000000
319.000000,0.002000,-0.241391,-0.087470,-0.416210,1.605262,1.159438,-2.439471,8.840087,5.860314,16.368770,0.002000,-0.141902,0.000000
320.000000,0.002000,-1.224467,-2.400205,-3.583357,-0.171312,0.572779,-0.439931,0.261620,0.486059,0.777715,0.002000,1.163045,0.000000
321.000000,0.002000,-0.079026,-0.158357,0.041379,-3.544489,-1.183166,1.697475,3.485521,14.467083,-8.046745,0.002000,-1.628597,0.000000
322.000000,0.002000,-0.579397,-0.299509,0.108486,-0.804728,2.530278,0.355862,14.119058,7.588298,-3.223847,0.002000,0.320449,0.000000
323.000000,0.002000,-0.255620,0.766484,-0.112088,0.459280,-1.620489,1.475578,4.763195,-14.408916,1.866605,0.002000,-2.005578,0.000000
324.000000,0.002000,-0.360473,0.212801,-0.486610,2.601100,-0.028265,0.131276,10.468465,-5.221465,14.361917,0.002000,-0.364123,0.000000
325.000000,0.002000,0.384389,0.494358,-3.029348,0.650882,2.161794,0.251182,-0.362151,-0.006438,1.762282,0.002000,-0.269699,0.000000
326.000000,0.002000,0.582289,-0.156802,1.032010,1.111907,1.443318,2.820394,-3.830255,1.228608,-7.147911,0.002000,-0.194797,0.000000
327.000000,0.002000,-0.065751,0.002837,-0.065458,1.043973,-1.499248,1.233871,-1.421706,-0.309416,6.517259,0.002000,-0.241391,0.000000
328.000000,0.002000,0.220521,0.017311,-0.127157,0.522653,-1.880613,3.349890,-14.471447,-3.289246,10.238225,0.002000,-1.224467,0.000000
329.000000,0.002000,-0.071485,-0.228782,0.291960,0.360642,-0.152731,0.376123,1.603387,8.026447,-15.549141,0.002000,-0.079026,0.000000
330.000000,0.002000,-0.051248,0.626040,-0.225352,1.603365,1.084160,-1.466196,0.001962,-16.448237,5.680939,0.002000,-0.579397,0.000000
331.000000,0.002000,0.172190,-0.170038,0.255139,-1.781664,0.181405,0.684830,-11.220547,7.645108,-12.611871,0.002000,-0.255620,0.000000
332.000000,0.002000,-0.229823,-0.013447,-0.340950,0.676536,-1.241837,3.116010,8.781217,5.221218,16.958414,0.002000,-0.360473,0.000000
333.000000,0.002000,-0.240262,0.059376,-0.506741,-4.834926,0.031513,0.572398,6.305214,-1.359008,13.441254,0.002000,0.384389,0.000000
334.000000,0.002000,0.233590,-0.140663,0.394840,-0.201474,1.289799,4.333261,-9.498343,5.452044,-15.363463,0.002000,0.582289,0.000000
335.000000,0.002000,-0.192495,0.074304,0.178859,-3.525901,0.716020,0.231056,13.228660,-3.144361,-9.426930,0.002000,-0.065751,0.000000
336.000000,0.002000,0.271935,0.318977,-0.004915,-1.488670,-0.228970,-3.976359,-12.288642,-13.258759,-0.823053,0.002000,0.220521,0.000000
337.000000,0.002000,0.022888,0.403611,-0.119125,1.038157,1.450612,3.750965,-1.537030,-17.938680,4.285875,0.002000,-0.071485,0.000000
338.000000,0.002000,2.919854,2.109878,-0.724433,0.493391,-0.303047,1.285472,-1.141851,-0.843767,0.325494,0.002000,-0.051248,0.000000
339.000000,0.002000,0.079039,0.452467,-0.169312,-3.087850,0.620501,-0.477822,-4.637781,-18.404746,8.380169,0.002000,0.172190,0.000000
340.000000,0.002000,-2.333508,1.469692,0.733593,-0.684224,-1.166062,-0.690361,1.689574,-1.088709,-0.537533,0.002000,-0.229823,0.000000
341.000000,0.002000,-0.236984,0.333745,0.212381,0.804775,-1.294629,-1.685563,7.207941,-14.938294,-11.606873,0.002000,-0.240262,0.000000
342.000000,0.002000,0.052408,0.042706,-3.716447,-0.525647,0.840926,0.453520,-0.033541,-0.075967,1.327239,0.002000,0.233590,0.000000
343.000000,0.002000,0.486528,0.286528,-0.543090,2.369517,-2.555358,-0.404472,-9.512279,-4.404181,10.262783,0.002000,-0.192495,0.000000
344.000000,0.002000,-0.199674,0.177424,-0.044178,0.532162,2.445248,-0.557210,11.293742,-11.270169,-4.546541,0.002000,0.271935,0.000000
345.000000,0.002000,-1.036348,-0.752952,0.615759,1.123056,0.013642,-0.141964,4.925929,3.617971,-3.038299,0.002000,0.022888,0.000000
346.000000,0.002000,1.919626,-0.132728,1.883425,-0.243010,1.406815,-0.669830,-1.585246,0.177227,-1.526008,0.002000,2.919854,0.000000
347.000000,0.002000,-0.340903,1.674215,-0.341122,0.276740,0.160175,2.145424,0.992657,-4.585826,0.901057,0.002000,0.079039,0.000000
348.000000,0.002000,0.485493,0.207997,-0.291017,0.352576,-0.314336,-0.440600,-14.829903,-6.085510,9.106638,0.002000,-2.333508,0.000000
349.000000,0.002000,-0.741088,0.034704,-0.596359,1.546562,1.981800,-0.750912,9.293730,0.143020,7.323683,0.002000,-0.236984,0.000000
350.000000,0.002000,0.694958,0.962312,-0.396854,1.142986,0.041566,1.708216,-4.589600,-6.122940,2.588848,0.002000,0.052408,0.000000
351.000000,0.002000,0.521204,0.498055,0.258749,-2.632114,-2.938950,1.375261,-10.167029,-9.181485,-5.426061,0.002000,0.486528,0.000000
352.000000,0.002000,-0.012900,-1.451996,-1.032105,1.857262,0.833217,-2.838272,-0.060703,3.620236,2.523025,0.002000,-0.199674,0.000000
353.000000,0.002000,-1.554028,-0.729208,-0.851643,1.125149,2.154382,1.035406,3.109767,1.760634,1.623589,0.002000,-1.036348,0.000000
354.000000,0.002000,-0.226595,-0.398136,-0.099546,1.414030,2.129790,2.110931,9.435872,18.183963,3.123767,0.002000,1.919626,0.000000
355.000000,0.002000,-0.023708,-0.051531,-0.013334,-0.748063,-0.173277,1.567789,-1.674924,3.420181,2.264917,0.002000,-0.340903,0.000000
356.000000,0.002000,0.120861,0.140674,0.194964,2.637265,1.121864,-3.229010,-8.603741,-8.200034,-14.616336,0.002000,0.485493,0.000000
357.000000,0.002000,-0.703781,-1.316831,0.353535,-1.067443,-1.851167,1.935933,3.208262,5.361945,-0.869018,0.002000,-0.741088,0.000000
358.000000,0.002000,0.821012,-0.534366,0.120881,-1.228722,-1.404446,-3.189375,-8.862289,5.781679,-1.941444,0.002000,0.694958,0.000000
359.000000,0.002000,0.921492,-0.340291,0.507412,0.520774,-2.150479,-0.988582,-7.221592,3.253048,-3.991697,0.002000,0.521204,0.000000
360.000000,0.002000,-0.095715,-0.789604,0.316877,4.099182,1.797092,-0.756792,0.404372,11.922784,-4.718170,0.002000,-0.012900,0.000000
361.000000,0.002000,-0.156379,0.139999,-0.220929,-1.533645,0.235185,1.658584,14.871058,-11.895604,11.111920,0.002000,-1.554028,0.000000
362.000000,0.002000,-0.422793,0.287102,-0.355270,1.539934,3.059275,0.337116,13.058129,-8.262752,13.022616,0.002000,-0.226595,0.000000
363.000000,0.002000,0.375446,0.438730,-0.450766,-0.868244,-1.013109,1.799505,-8.740180,-8.629709,9.503543,0.002000,-0.023708,0.000000
364.000000,0.002000,0.678976,-0.639081,-0.111416,-0.996480,-1.354695,-0.622315,-8.312794,6.757831,2.632206,0.002000,0.120861,0.000000
365.000000,0.002000,0.738152,1.178414,-5.452497,-0.167157,0.042800,-0.373930,-0.085300,-0.131264,0.607402,0.002000,-0.703781,0.000000
366.000000,0.002000,0.150578,-0.164581,-0.023534,0.510385,1.676089,-1.300823,-10.543536,17.251127,4.666898,0.002000,0.821012,0.000000
367.000000,0.002000,0.086393,-0.183269,0.560615,-1.786214,-2.039420,3.143465,-2.634992,5.313716,-17.006166,0.002000,0.921492,0.000000
368.000000,0.002000,0.561854,1.585261,-1.366210,1.409085,-1.846577,-0.202891,-0.998483,-2.526232,2.245104,0.002000,-0.095715,0.000000
369.000000,0.002000,-0.247002,-0.142271,0.078233,-1.948792,-1.155029,-2.857534,14.569012,8.139423,-7.074522,0.002000,-0.156379,0.000000
370.000000,0.002000,-0.067078,0.043341,-0.786088,0.608712,2.300638,1.602248,0.594597,-1.231319,14.460494,0.002000,-0.422793,0.000000
371.000000,0.002000,0.909368,-0.489692,0.026123,2.723033,-0.820787,0.651547,-9.093061,4.694947,-0.475213,0.002000,0.375446,0.000000
372.000000,0.002000,1.967456,-1.210202,-3.627092,0.143658,0.157851,-0.383088,-0.491381,0.288633,0.875751,0.002000,0.678976,0.000000
373.000000,0.002000,0.987978,-0.523273,-1.025299,2.173634,-0.343045,0.940186,-3.699036,2.029088,3.857899,0.002000,0.738152,0.000000
374.000000,0.002000,-0.491420,-0.393279,-1.711210,-1.140638,1.003964,0.182555,1.126742,0.777183,4.149644,0.002000,0.150578,0.000000
375.000000,0.002000,-0.292105,-1.377873,1.268667,-1.260583,1.799980,-0.905702,0.247595,3.040953,-2.533264,0.002000,0.086393,0.000000
376.000000,0.002000,-0.074501,-0.145295,0.015330,-0.423231,-1.846166,1.374043,4.475882,12.127861,0.833842,0.002000,0.561854,0.000000
377.000000,0.002000,-1.057072,-1.940595,1.455026,0.366168,-0.108616,-1.487466,0.939856,1.712401,-1.267860,0.002000,-0.247002,0.000000
378.000000,0.002000,-0.423586,1.561231,-1.136966,-0.417844,1.192878,-1.346345,0.962589,-3.000487,2.337033,0.002000,-0.067078,0.000000
379.000000,0.002000,0.023190,-0.113723,0.052251,0.017868,0.156656,0.514793,-6.285505,13.533202,-3.981220,0.002000,0.909368,0.000000
380.000000,0.002000,0.075129,-0.564791,0.104820,-0.644812,-1.862279,-1.793308,-2.954227,17.147447,-2.990066,0.002000,1.967456,0.000000
381.000000,0.002000,3.529695,-0.275439,-1.634216,-0.285306,-0.277708,0.314276,-1.099685,0.097951,0.508454,0.002000,0.987978,0.000000
382.000000,0.002000,-0.740768,-0.212900,-0.010654,0.200796,-2.429334,1.462524,14.083451,4.675583,0.194972,0.002000,-0.491420,0.000000
383.000000,0.002000,0.309239,0.151996,-0.064311,-0.135380,-0.608115,3.852367,-15.502824,-10.404948,3.752042,0.002000,-0.292105,0.000000
384.000000,0.002000,-0.079500,0.360658,0.022142,-0.692073,3.103723,-3.116708,3.857110,-16.339167,-2.352587,0.002000,-0.074501,0.000000
385.000000,0.002000,-0.104249,-0.076277,0.005450,-2.476704,-0.358038,4.569435,7.785995,12.731311,-3.915689,0.002000,-1.057072,0.000000
386.000000,0.002000,-0.207361,0.206321,-0.041069,-2.859905,4.049037,0.422826,12.760560,-16.124266,-1.095521,0.002000,-0.423586,0.000000
387.000000,0.002000,-2.741215,-1.436187,2.194842,0.543340,-0.342318,-0.284979,0.920685,0.483825,-0.741920,0.002000,0.023190,0.000000
388.000000,0.002000,0.155278,-0.069850,0.207286,0.332949,-3.824193,2.301661,-13.613748,4.241917,-12.289413,0.002000,0.075129,0.000000
389.000000,0.002000,-1.410878,0.830441,-0.648485,-0.169387,1.237051,1.718360,3.897730,-2.384127,1.561224,0.002000,3.529695,0.000000
390.000000,0.002000,0.184090,0.041764,0.487292,0.176537,-1.807894,3.022309,-5.327214,-2.000016,-15.646227,0.002000,-0.740768,0.000000
391.000000,0.002000,-0.288096,0.838751,0.246297,-0.389918,1.737243,1.040671,3.676985,-11.353524,-3.515539,0.002000,0.309239,0.000000
392.000000,0.002000,-0.671717,0.146750,0.125490,1.657418,2.873152,-0.663086,16.415349,-3.282131,-2.920414,0.002000,-0.079500,0.000000
393.000000,0.002000,-0.329860,-0.157658,-0.726703,-1.689297,-1.459571,0.076735,4.937327,3.357636,13.550306,0.002000,-0.104249,0.000000
394.000000,0.002000,-0.276365,0.063294,0.091836,1.103015,4.737348,-0.017286,18.062650,-5.014885,-8.692807,0.002000,-0.207361,0.000000
395.000000,0.002000,0.107532,0.872238,-0.432266,0.777610,2.389629,-0.311218,-1.742395,-10.048732,5.758922,0.002000,-2.741215,0.000000
396.000000,0.002000,0.211098,0.165703,-0.139516,0.737543,-0.384055,-1.244920,-12.901128,-9.587511,7.503582,0.002000,0.155278,0.000000
397.000000,0.002000,0.713344,0.236888,0.003936,2.105522,-1.063730,-0.997044,-13.514086,-4.855559,-0.845274,0.002000,-1.410878,0.000000
398.000000,0.002000,2.050231,0.238821,-0.194180,-0.505813,-0.019747,0.087662,-3.597420,-0.328501,0.302990,0.002000,0.184090,0.000000
399.000000,0.002000,0.499844,-1.136692,-0.835178,-0.366801,-2.466476,-1.157698,-1.923229,4.483841,3.143196,0.002000,-0.288096,0.000000
400.000000,0.002000,-0.743754,-0.578281,-0.106369,-0.593181,3.789314,-2.173034,9.099342,7.218028,1.410099,0.002000,-0.671717,0.000000
401.000000,0.002000,4.336529,-0.273321,-2.807156,0.287101,-0.329303,0.086843,-0.617168,0.044013,0.393055,0.002000,-0.329860,0.000000
402.000000,0.002000,0.071944,-0.155127,-0.455393,1.290405,-3.789902,1.090584,-6.083539,7.862298,17.845465,0.002000,-0.276365,0.000000
403.000000,0.002000,-1.965259,-0.954649,1.783636,1.299952,-0.049078,0.062101,1.458595,0.719731,-1.336310,0.002000,0.107532,0.000000
404.000000,0.002000,-0.228757,-0.071689,0.069182,1.007788,1.454686,5.717546,13.499062,7.534094,-6.291625,0.002000,0.211098,0.000000
405.000000,0.002000,0.353501,0.310635,-0.196922,0.068845,0.394755,-2.609997,-13.436499,-10.701854,7.266797,0.002000,0.713344,0.000000
406.000000,0.002000,-0.059379,0.311677,-0.178402,-0.692033,-0.961440,-2.459156,0.970337,-14.152454,6.405107,0.002000,2.050231,0.000000
407.000000,0.002000,0.099951,0.394573,0.363672,-0.698834,-0.585694,-0.370974,-5.098031,-12.957268,-12.227177,0.002000,0.499844,0.000000
408.000000,0.002000,-0.967118,1.009876,-0.328369,0.509245,1.264149,0.210739,4.639329,-4.770248,1.219465,0.002000,-0.743754,0.000000
409.000000,0.002000,-0.354855,0.351840,0.275815,0.436115,0.629471,0.155985,12.179716,-11.679859,-9.830425,0.002000,4.336529,0.000000
410.000000,0.002000,0.223553,1.454438,-0.821901,-0.283222,0.807834,-1.956050,-0.793985,-4.381403,2.572748,0.002000,0.071944,0.000000
411.000000,0.002000,-0.907714,-0.677534,-0.173471,2.194791,1.050898,-1.770733,7.353818,5.541461,1.553077,0.002000,-1.965259,0.000000
412.000000,0.002000,-2.614333,-3.626998,1.865071,0.331504,-0.489320,-0.324027,0.443108,0.621536,-0.317102,0.002000,-0.228757,0.000000
413.000000,0.002000,0.394201,-0.232228,0.133858,-0.319139,0.189196,1.060656,-13.767822,9.846150,-6.685916,0.002000,0.353501,0.000000
414.000000,0.002000,2.112461,2.402977,1.823545,-0.507175,0.997557,-0.092094,-0.751908,-0.863273,-0.701257,0.002000,-0.059379,0.000000
415.000000,0.002000,-0.602513,-0.531844,-0.547055,-1.026051,0.165714,-1.869499,6.376204,6.103258,6.782652,0.002000,0.099951,0.000000
416.000000,0.002000,-0.326454,0.049010,-0.462363,0.686350,2.805079,-3.292875,11.927955,-0.721660,14.058625,0.002000,-0.967118,0.000000
417.000000,0.002000,0.388783,0.580613,2.150114,-0.429043,-1.153862,-1.836928,-0.542382,-0.786682,-2.940322,0.002000,-0.354855,0.000000
418.000000,0.002000,0.082228,0.161203,1.103632,0.797237,1.449783,1.739472,-0.863847,-0.915984,-8.908948,0.002000,0.223553,0.000000
419.000000,0.002000,2.551437,3.691270,-1.266403,0.380158,0.229721,-1.451466,-0.491928,-0.706355,0.249331,0.002000,-0.907714,0.000000
420.000000,0.002000,1.056492,0.627387,1.799765,-0.069003,0.494664,0.760955,-1.973819,-0.867714,-2.484769,0.002000,-2.614333,0.000000
421.000000,0.002000,-0.070715,0.204751,0.235445,0.292103,-1.078320,-3.165088,1.517677,-9.875769,-13.379531,0.002000,0.394201,0.000000
422.000000,0.002000,-1.208796,-0.821058,0.503900,2.796580,1.561120,-0.692914,4.513632,3.163864,-1.983661,0.002000,2.112461,0.000000
423.000000,0.002000,-0.859686,-5.009551,3.786521,-0.411031,-0.670151,0.545903,0.065693,0.388159,-0.294572,0.002000,-0.602513,0.000000
424.000000,0.002000,0.891298,2.564272,2.325430,0.729586,-0.070752,0.864218,-0.374095,-1.001176,-0.928717,0.002000,-0.326454,0.000000
425.000000,0.002000,-0.878307,0.414508,0.355690,0.711589,-0.355249,1.792719,9.381568,-4.394673,-4.276080,0.002000,0.388783,0.000000
426.000000,0.002000,-0.735763,0.849501,0.582419,0.344894,-0.005278,1.426737,4.918046,-5.442092,-3.888174,0.002000,0.082228,0.000000
427.000000,0.002000,-0.260588,-1.069319,-0.423457,-1.955338,2.157405,0.075376,1.865001,7.864868,3.092278,0.002000,2.551437,0.000000
428.000000,0.002000,-0.324723,0.228125,0.555832,-1.564640,2.444989,-1.381042,6.287328,-4.917859,-14.022367,0.002000,1.056492,0.000000
429.000000,0.002000,0.413727,-0.212657,-0.151292,-2.839232,-0.947596,1.501667,-16.112655,11.005426,5.296175,0.002000,-0.070715,0.000000
430.000000,0.002000,2.230251,-1.460810,-0.193434,-1.332133,0.828772,0.800484,-1.746041,1.497469,-0.157534,0.002000,-1.208796,0.000000
431.000000,0.002000,-0.321369,0.650943,0.060739,-1.044597,-0.991364,1.160615,6.607827,-13.599588,-2.085995,0.002000,-0.859686,0.000000
432.000000,0.002000,-0.258875,-0.390295,0.370313,-3.259944,-2.053881,2.461195,6.192268,12.365342,-12.243864,0.002000,0.891298,0.000000
433.000000,0.002000,0.082595,0.150299,-0.215136,-2.176403,-1.680144,0.291767,-7.451184,-4.267047,9.246224,0.002000,-0.878307,0.000000
434.000000,0.002000,1.841923,1.882992,0.784783,1.374197,-1.307814,-1.698210,-1.439743,-1.552194,-0.680614,0.002000,-0.735763,0.000000
435.000000,0.002000,-0.117388,-0.660774,0.001153,-0.790969,-0.756826,2.928813,1.534100,16.420996,-1.030917,0.002000,-0.260588,0.000000
436.000000,0.002000,-0.698094,-0.559684,0.477826,1.110360,-1.003350,2.216965,7.210173,6.377801,-5.165778,0.002000,-0.324723,0.000000
437.000000,0.002000,-0.248369,0.284935,-0.436924,1.021219,-0.379444,1.537186,8.987353,-8.377308,14.884343,0.002000,0.413727,0.000000
438.000000,0.002000,-0.097000,-0.108770,-0.407259,0.119066,0.017908,-2.607720,2.812082,7.795294,18.620840,0.002000,2.230251,0.000000
439.000000,0.002000,0.275174,-0.425669,0.138996,-0.117126,-1.756035,-2.116731,-9.968956,14.472970,-4.426499,0.002000,-0.321369,0.000000
440.000000,0.002000,-0.054150,-0.009727,-0.805730,1.569052,0.355578,0.713811,-0.354802,1.014111,14.824100,0.002000,-0.258875,0.000000
441.000000,0.002000,0.108192,-0.237158,0.241483,1.005072,3.743960,0.552024,-8.231897,14.577775,-11.814948,0.002000,0.082595,0.000000
442.000000,0.002000,-0.084767,-0.234056,-0.166827,2.032159,2.168215,-1.297111,4.816159,22.607320,5.929786,0.002000,1.841923,0.000000
443.000000,0.002000,-0.042257,-1.088875,0.720246,0.589242,0.386553,0.524617,1.852448,4.956291,-2.972624,0.002000,-0.117388,0.000000
444.000000,0.002000,-0.046428,-0.161363,0.075164,3.028313,-0.905294,-3.007184,1.292105,14.514509,-9.274376,0.002000,-0.698094,0.000000
445.000000,0.002000,0.288821,0.133468,-0.359476,0.551119,-0.171437,1.424105,-13.088704,-3.995069,10.658448,0.002000,-0.248369,0.000000
446.000000,0.002000,-0.421112,-0.562027,-1.044605,-1.217301,-1.262589,-1.018962,2.785695,3.966361,6.560244,0.002000,-0.097000,0.000000
447.000000,0.002000,0.151552,-0.684727,-0.522038,-0.147575,-0.681908,-0.995024,-2.541545,10.138387,6.844862,0.002000,0.275174,0.000000
448.000000,0.002000,-0.229686,0.322531,-1.268408,-1.505325,0.925200,1.606259,1.257754,-1.781522,7.268467,0.002000,-0.054150,0.000000
449.000000,0.002000,-0.018794,0.475442,-0.026441,1.496276,-2.067909,1.280359,0.498820,-18.533845,0.169770,0.002000,0.108192,0.000000
450.000000,0.002000,-0.582760,0.879019,-0.512220,-1.797509,1.693211,0.333131,4.589694,-7.020637,4.016641,0.002000,-0.084767,0.000000
451.000000,0.002000,1.495520,-4.838938,-0.788047,-0.622613,-1.150523,1.203229,-0.205880,0.688604,0.104147,0.002000,-0.042257,0.000000
452.000000,0.002000,-3.046932,3.968730,1.850529,0.226828,0.922479,0.177897,0.394361,-0.513495,-0.249496,0.002000,-0.046428,0.000000
453.000000,0.002000,1.396164,-0.656418,-0.179795,-2.834260,1.047178,-0.952649,-4.781393,2.544306,0.543001,0.002000,0.288821,0.000000
454.000000,0.002000,-0.307653,-0.204313,0.156850,-1.814005,2.096761,3.825023,14.357299,11.632082,-8.038491,0.002000,-0.421112,0.000000
455.000000,0.002000,0.874029,0.944622,0.340654,-0.917753,-2.409927,0.077935,-4.839200,-4.832985,-2.046073,0.002000,0.151552,0.000000
456.000000,0.002000,-0.048080,0.151064,-0.236522,-2.068809,1.406102,0.361068,-0.233082,-7.630753,15.882776,0.002000,-0.229686,0.000000
457.000000,0.002000,0.645712,1.871492,-0.720222,-0.292807,-0.580297,-0.288050,-1.111545,-3.137508,1.240668,0.002000,-0.018794,0.000000
458.000000,0.002000,0.174922,0.558592,0.412972,-0.181272,0.795733,-2.536040,-5.508021,-10.450086,-8.889205,0.002000,-0.582760,0.000000
459.000000,0.002000,0.118457,0.178582,-1.093660,2.337883,-2.032983,0.059025,-2.010212,-0.719757,8.779573,0.002000,1.495520,0.000000
460.000000,0.002000,0.047735,-0.114374,0.079742,1.409967,1.609461,0.393667,-9.672370,18.327956,-5.717108,0.002000,-3.046932,0.000000
461.000000,0.002000,-0.331875,-0.253942,-0.996474,-2.628272,0.465395,-0.155298,2.792378,3.394039,9.486957,0.002000,1.396164,0.000000
462.000000,0.002000,0.695712,0.479029,0.918143,0.781191,-1.017653,-1.000545,-4.480765,-2.840438,-5.938040,0.002000,-0.307653,0.000000
463.000000,0.002000,0.624530,-0.634027,0.036634,-1.329957,0.233874,-1.650233,-9.239977,8.656024,-0.501026,0.002000,0.874029,0.000000
464.000000,0.002000,0.052458,0.566045,-0.528904,3.250564,0.722742,-0.145820,-2.213451,-10.949460,11.041997,0.002000,-0.048080,0.000000
465.000000,0.002000,-0.120404,-0.527178,0.331944,0.424921,-0.424677,-4.933633,1.634383,14.554010,-9.300445,0.002000,0.645712,0.000000
466.000000,0.002000,-0.054464,-0.871537,-2.272690,-1.298600,1.439922,0.774854,0.052086,0.967281,2.477494,0.002000,0.174922,0.000000
467.000000,0.002000,-0.075616,-0.097481,-0.122727,1.599654,1.503915,2.359934,-0.538821,0.910727,15.804980,0.002000,0.118457,0.000000
468.000000,0.002000,-3.547809,-0.159097,0.947242,0.459933,-0.408368,0.582591,1.310308,0.062165,-0.348524,0.002000,0.047735,0.000000
469.000000,0.002000,-0.591579,-0.123004,0.145576,0.545082,-0.920266,1.147958,16.313413,4.884111,-4.228154,0.002000,-0.331875,0.000000
470.000000,0.002000,-3.609503,1.522315,-0.028321,0.282783,0.828365,-0.115991,1.116048,-0.478976,0.018907,0.002000,0.695712,0.000000
471.000000,0.002000,-0.236967,0.795848,0.552746,1.575517,-1.245220,-2.912963,1.786462,-9.604573,-7.062137,0.002000,0.624530,0.000000
472.000000,0.002000,-1.856784,0.958024,-2.116536,0.456935,-1.319101,-0.611948,1.197940,-0.625269,1.406730,0.002000,0.052458,0.000000
473.000000,0.002000,-4.724690,2.424065,5.890639,-1.956753,-0.161277,1.096802,0.188289,-0.096260,-0.236691,0.002000,-0.120404,0.000000
474.000000,0.002000,0.479365,0.141545,0.428878,-1.664346,-2.573658,2.323312,-9.440332,-0.660618,-12.483567,0.002000,-0.054464,0.000000
475.000000,0.002000,-0.513268,0.449957,0.241337,3.184857,0.362466,0.150372,11.085876,-9.793772,-6.230714,0.002000,-0.075616,0.000000
476.000000,0.002000,-0.843574,0.319456,-1.504016,-0.799764,-1.189817,-1.721964,2.185117,-0.663940,4.135484,0.002000,-3.547809,0.000000
477.000000,0.002000,-0.259761,-0.241433,-0.508026,2.633265,1.609210,-1.167693,7.137491,8.240872,13.957865,0.002000,-0.591579,0.000000
478.000000,0.002000,1.560365,5.675141,-2.506503,-0.046316,0.951647,-0.406585,-0.120145,-0.433128,0.196427,0.002000,-3.609503,0.000000
479.000000,0.002000,-0.466987,0.422764,0.005465,-1.197615,-0.032150,-3.086737,12.778192,-13.749361,-0.746447,0.002000,-0.236967,0.000000
480.000000,0.002000,0.535949,0.586325,0.016197,4.176108,1.244481,-1.885250,-7.722536,-10.346952,-1.012116,0.002000,-1.856784,0.000000
481.000000,0.002000,-0.896772,1.123070,-1.289881,-1.582725,-0.389698,-0.246538,1.602924,-2.761498,3.074615,0.002000,-4.724690,0.000000
482.000000,0.002000,-0.993218,-1.369498,-0.833103,-0.745491,0.019950,-1.455278,2.130446,3.040740,1.852902,0.002000,0.479365,0.000000
483.000000,0.002000,6.634163,-2.425152,-1.561542,1.244232,-0.487524,-0.152631,-0.346999,0.128232,0.081496,0.002000,-0.513268,0.000000
484.000000,0.002000,0.128835,-0.382467,0.230131,1.617006,0.026968,1.953729,-5.989908,16.019566,-9.046819,0.002000,-0.843574,0.000000
485.000000,0.002000,-0.284399,-0.159869,0.042192,-0.118665,0.306304,0.125164,15.489769,18.457929,-4.075583,0.002000,-0.259761,0.000000
486.000000,0.002000,-0.287097,0.077387,1.433266,-1.772820,-1.880717,0.420681,1.371070,0.097819,-6.154676,0.002000,1.560365,0.000000
487.000000,0.002000,-0.678771,1.948711,2.902991,-0.509713,-1.158131,0.015524,0.286769,-0.749841,-1.155659,0.002000,-0.466987,0.000000
488.000000,0.002000,1.377595,-1.007476,0.433718,-1.413092,0.773292,-1.919880,-3.563195,2.521136,-1.095184,0.002000,0.535949,0.000000
489.000000,0.002000,-0.206552,0.079446,-0.613555,0.110672,-2.689602,-2.685841,3.423875,-1.348529,17.546101,0.002000,-0.896772,0.000000
490.000000,0.002000,-1.080698,-0.897255,0.987128,1.349713,0.077316,0.353395,3.016686,2.623949,-2.887283,0.002000,-0.993218,0.000000
491.000000,0.002000,0.080051,0.139909,0.469726,-1.008048,0.216691,0.796932,-6.470551,-6.314284,-17.514563,0.002000,6.634163,0.000000
492.000000,0.002000,-0.036592,0.081328,-0.469805,0.672616,0.681525,1.077747,0.470709,-0.983068,21.325424,0.002000,0.128835,0.000000
493.000000,0.002000,0.113484,0.271681,0.932411,2.366113,0.346921,1.397107,-1.488843,-2.763485,-10.756694,0.002000,-0.284399,0.000000
494.000000,0.002000,0.183700,-0.071260,-0.433506,-2.036434,0.737020,0.944191,-5.806004,5.184743,16.792627,0.002000,-0.287097,0.000000
495.000000,0.002000,-0.110908,0.027556,0.324497,0.061523,-1.055395,1.772459,5.041394,-2.542180,-14.245403,0.002000,-0.678771,0.000000
496.000000,0.002000,-1.035171,-0.794076,-0.108428,-1.240290,-2.547405,-1.521300,5.985595,4.748606,0.729346,0.002000,1.377595,0.000000
497.000000,0.002000,1.405096,-8.743592,-4.169817,-0.658451,-1.526658,-0.421201,-0.029841,0.186071,0.088000,0.002000,-0.206552,0.000000
498.000000,0.002000,0.588105,-0.102048,-0.027478,1.935365,2.196420,-0.669243,-16.797142,4.617884,0.832640,0.002000,-1.080698,0.000000
499.000000,0.002000,1.088771,0.483036,-0.730548,3.131744,-0.692292,-0.403419,-5.301850,-2.423456,3.547993,0.002000,0.080051,0.000000
500.000000,0.002000,-0.179748,-0.119282,-0.278700,0.604018,4.216478,-1.408381,8.737418,7.358896,12.728326,0.002000,-0.036592,0.000000
501.000000,0.002000,-0.035929,0.079389,0.156750,-1.570823,-1.502383,0.195961,1.077284,-8.919771,-12.381502,0.002000,0.113484,0.000000
502.000000,0.002000,0.952895,-0.240568,0.412928,1.255322,1.621376,-0.937407,-9.372506,2.640846,-3.575749,0.002000,0.183700,0.000000
503.000000,0.002000,0.034582,0.418163,-0.049364,0.309706,0.831406,2.563111,-2.706484,-17.293012,1.060785,0.002000,-0.110908,0.000000
504.000000,0.002000,-0.532222,-0.379767,0.547976,0.828269,-1.922626,3.101895,7.904168,6.690328,-8.819968,0.002000,-1.035171,0.000000
505.000000,0.002000,0.783583,1.112534,0.752025,0.199072,0.310934,0.659990,-3.110018,-3.894068,-2.796293,0.002000,1.405096,0.000000
506.000000,0.002000,0.292469,0.512641,-0.437217,1.301040,0.900918,-1.714269,-5.798660,-9.535990,10.533317,0.002000,0.588105,0.000000
507.000000,0.002000,-1.043774,0.346358,0.713573,-1.459949,0.157591,-1.202688,6.113057,-1.807272,-4.293354,0.002000,1.088771,0.000000
508.000000,0.002000,-0.923484,1.358304,-0.865688,-0.065490,0.625096,-1.521649,2.157435,-3.161635,2.102636,0.002000,-0.179748,0.000000
509.000000,0.002000,-0.561163,-0.090984,-0.952063,-1.475718,0.775685,-2.333983,4.604039,1.627139,8.284010,0.002000,-0.035929,0.000000
510.000000,0.002000,-2.513580,0.432785,3.596960,0.197004,-0.416230,0.178470,0.554921,-0.122561,-0.801641,0.002000,0.952895,0.000000
511.000000,0.002000,4.834422,-4.054456,0.628317,0.762415,-0.086170,1.268111,-0.369704,0.313298,-0.049202,0.002000,0.034582,0.000000
512.000000,0.002000,-0.421802,0.173303,0.296395,2.039787,0.848405,2.309944,13.128594,-6.163333,-10.549847,0.002000,-0.532222,0.000000
513.000000,0.002000,-3.108487,-0.869137,-1.819978,-0.368570,-0.168714,0.931738,1.147128,0.315890,0.676856,0.002000,0.783583,0.000000
514.000000,0.002000,0.483577,0.981689,-0.407413,1.861445,-0.491536,-0.690662,-4.220853,-7.301783,3.551128,0.002000,0.292469,0.000000
515.000000,0.002000,-0.777304,2.015502,1.632994,0.595860,-1.424649,-0.730423,0.660144,-1.649832,-1.403091,0.002000,-1.043774,0.000000
516.000000,0.002000,0.152234,-0.003008,0.437892,-0.879200,-0.039917,0.613365,-7.396783,-0.456490,-17.473586,0.002000,-0.923484,0.000000
517.000000,0.002000,-0.135252,0.161758,-0.312825,0.342372,-3.823200,-2.443827,3.444625,-9.569349,14.131969,0.002000,-0.561163,0.000000
518.000000,0.002000,0.041270,0.243154,0.310464,-0.277145,-0.181029,3.058524,-3.666132,-8.548915,-14.858192,0.002000,-2.513580,0.000000
519.000000,0.002000,-0.463075,0.491180,0.054753,-0.369392,-0.908624,-0.031015,7.795421,-14.135228,-2.002345,0.002000,4.834422,0.000000
520.000000,0.002000,0.498772,0.550690,-0.088692,-0.945999,1.332387,-0.892965,-10.759058,-11.039151,1.382357,0.002000,-0.421802,0.000000
521.000000,0.002000,-0.466956,0.237451,0.327531,-2.230222,-3.600225,0.492296,12.767325,-7.489668,-9.713824,0.002000,-3.108487,0.000000
522.000000,0.002000,0.277751,0.127985,0.055557,-1.580935,2.426776,0.096455,-15.438408,-6.342630,-5.697421,0.002000,0.483577,0.000000
523.000000,0.002000,0.037159,0.096176,0.441470,-3.051817,2.372072,2.394511,-2.238126,-1.916342,-18.272320,0.002000,-0.777304,0.000000
524.000000,0.002000,1.110108,1.277910,-0.095556,-1.764143,-1.946129,0.089811,-3.196371,-3.616858,0.189984,0.002000,0.152234,0.000000
525.000000,0.002000,-1.717362,-1.541941,-1.132287,-0.247160,-0.228920,-0.807837,1.470348,1.687852,1.180077,0.002000,-0.135252,0.000000
526.000000,0.002000,0.340454,0.199933,0.509832,-0.230679,1.514892,-3.002705,-8.384603,-4.912421,-14.318066,0.002000,0.041270,0.000000
527.000000,0.002000,-0.061513,0.092375,0.350417,3.885937,0.517109,-1.544397,1.485951,-6.145007,-19.464145,0.002000,-0.463075,0.000000
528.000000,0.002000,1.480416,-0.138066,-0.881159,-2.535919,1.188648,-1.369763,-3.937420,0.527696,2.480724,0.002000,0.498772,0.000000
529.000000,0.002000,0.473776,-0.319534,-0.098641,-0.522907,2.080495,-1.234411,-13.819165,11.122152,2.571288,0.002000,-0.466956,0.000000
530.000000,0.002000,2.030955,-3.949079,-1.656250,0.968039,-0.018961,0.043309,-0.363912,0.711124,0.292569,0.002000,0.277751,0.000000
531.000000,0.002000,0.856503,0.106562,-0.992390,-0.402429,-0.158252,2.424844,-4.942077,-0.263179,5.411159,0.002000,0.037159,0.000000
532.000000,0.002000,0.255855,-0.789572,-0.950865,-3.467943,-0.067165,-0.223807,-1.717409,4.601869,6.029274,0.002000,1.110108,0.000000
533.000000,0.002000,0.697377,-1.004618,0.833865,2.625436,-0.455492,-0.765253,-2.980718,4.011240,-3.272485,0.002000,-1.717362,0.000000
534.000000,0.002000,0.264409,-0.216861,-0.009343,0.679697,-0.764890,-1.148481,-12.936860,13.371634,0.730889,0.002000,0.340454,0.000000
535.000000,0.002000,1.128205,1.387847,1.108984,-1.262858,-1.267931,-1.471845,-1.937879,-2.260716,-1.929562,0.002000,-0.061513,0.000000
536.000000,0.002000,0.864784,1.034887,0.371669,2.225021,1.794415,1.053860,-4.247057,-5.010296,-2.125427,0.002000,1.480416,0.000000
537.000000,0.002000,-0.223555,-0.706053,0.430077,-2.147090,-2.731139,-1.455232,2.712595,10.473280,-6.971111,0.002000,0.473776,0.000000
538.000000,0.002000,-1.066477,3.133509,0.002182,0.179143,0.391793,-0.219754,0.428987,-1.351061,-0.063366,0.002000,2.030955,0.000000
539.000000,0.002000,-1.140233,-0.946208,0.250867,1.655607,0.761682,-2.424654,4.594301,3.714105,-1.004042,0.002000,0.856503,0.000000
540.000000,0.002000,0.648441,-0.298589,0.241473,1.753397,0.784059,0.649304,-12.428623,6.133310,-4.367272,0.002000,0.255855,0.000000
541.000000,0.002000,0.180191,-1.519141,-1.712396,0.227645,-0.027812,-0.211256,-0.184050,2.028695,2.231245,0.002000,0.697377,0.000000
542.000000,0.002000,-0.791836,0.091207,0.236801,-1.752148,-0.128594,-2.761340,12.577593,-1.622973,-5.608380,0.002000,0.264409,0.000000
543.000000,0.002000,0.042852,0.280439,-0.233241,-2.309016,-3.589310,-0.398638,-2.218505,-13.136609,12.766709,0.002000,1.128205,0.000000
544.000000,0.002000,0.291732,-0.293245,0.253693,2.176428,-0.362012,0.488466,-10.499163,14.141526,-8.695251,0.002000,0.864784,0.000000
545.000000,0.002000,-0.888512,0.710635,0.512939,-2.689361,0.606865,1.979503,6.102061,-4.631164,-3.497871,0.002000,-0.223555,0.000000
546.000000,0.002000,0.414877,-0.206605,0.342760,-1.275003,-0.167358,0.764968,-12.881401,7.036851,-10.947674,0.002000,-1.066477,0.000000
547.000000,0.002000,0.346238,-0.385669,0.388273,0.535834,0.480136,-0.620652,-7.895193,10.260639,-10.137143,0.002000,-1.140233,0.000000
548.000000,0.002000,-0.140137,-1.196868,-0.816890,-1.272664,-2.632159,-1.179857,0.410678,5.028466,3.548863,0.002000,0.648441,0.000000
549.000000,0.002000,-0.446042,1.867182,-1.156397,2.345064,-0.630056,0.083814,0.621736,-2.697911,1.575283,0.002000,0.180191,0.000000
550.000000,0.002000,-0.236727,-0.090942,-0.666050,-1.442856,2.343980,-2.452972,5.139756,3.875065,14.989481,0.002000,-0.791836,0.000000
551.000000,0.002000,3.357179,1.589909,-0.492339,-0.104306,-0.399005,-0.995667,-1.199220,-0.503889,0.203299,0.002000,0.042852,0.000000
552.000000,0.002000,-0.642034,0.420711,-0.484831,1.103901,-1.152367,-1.775492,9.668271,-6.460358,7.333441,0.002000,0.291732,0.000000
553.000000,0.002000,2.037669,-1.616263,-0.624592,-0.790198,0.510393,1.523852,-1.734138,1.422491,0.531911,0.002000,-0.888512,0.000000
554.000000,0.002000,-0.251519,0.098335,-0.091199,-1.517787,2.202365,-0.079436,12.628880,-10.183093,3.302736,0.002000,0.414877,0.000000
555.000000,0.002000,0.465807,-0.214983,-0.308000,3.699773,0.813473,-1.433190,-13.361225,6.714972,8.737200,0.002000,0.346238,0.000000
556.000000,0.002000,-0.168921,0.556576,-0.096173,0.333706,-4.001774,1.962648,5.051414,-18.040146,2.199421,0.002000,-0.140137,0.000000
557.000000,0.002000,0.376664,0.108139,-0.375394,3.225624,0.628928,1.151710,-13.902954,-2.558076,10.810113,0.002000,-0.446042,0.000000
558.000000,0.002000,1.167441,-1.180020,1.116444,-1.243660,-0.560347,-2.195667,-2.166585,2.146726,-2.094763,0.002000,-0.236727,0.000000
559.000000,0.002000,1.340286,0.317928,0.988560,-1.298394,-1.861206,1.333371,-3.658649,-1.104668,-2.821529,0.002000,3.357179,0.000000
560.000000,0.002000,0.210447,2.593679,-0.296164,-0.037059,-0.393824,2.007404,-0.151897,-2.368462,0.239587,0.002000,-0.642034,0.000000
561.000000,0.002000,-0.483602,0.182492,0.727245,-0.638803,-1.589045,0.175338,6.322803,-2.118996,-10.982996,0.002000,2.037669,0.000000
562.000000,0.002000,-0.743860,2.653894,0.005070,1.900221,1.208525,-0.032255,0.587098,-2.127148,0.001106,0.002000,-0.251519,0.000000
563.000000,0.002000,-0.088831,-0.034865,0.442637,-4.075507,3.815354,-1.780658,4.109147,0.500393,-20.046685,0.002000,0.465807,0.000000
564.000000,0.002000,-0.818804,0.084636,0.204870,0.008749,3.650956,-3.089515,14.418943,-2.215242,-3.183315,0.002000,-0.168921,0.000000
565.000000,0.002000,-0.060454,2.825061,1.469886,1.012369,0.594535,0.307561,0.020605,-1.547139,-0.796291,0.002000,0.376664,0.000000
566.000000,0.002000,0.863002,-0.275618,-0.454470,2.330434,-1.709725,0.087848,-9.680039,3.088184,3.848064,0.002000,1.167441,0.000000
567.000000,0.002000,2.158011,-0.175114,0.617248,-1.703455,0.488969,-1.343957,-3.014542,0.316971,-0.883479,0.002000,1.340286,0.000000
568.000000,0.002000,-0.071482,-0.267570,0.236592,-1.303370,-2.496908,1.290298,2.697005,14.539926,-11.031045,0.002000,0.210447,0.000000
569.000000,0.002000,0.627665,-1.338381,-0.963006,-0.334932,1.040233,-1.695363,-1.687372,3.491860,2.368079,0.002000,-0.483602,0.000000
570.000000,0.002000,1.318340,-3.046638,2.757276,0.193406,1.084181,-0.560813,-0.287598,0.717492,-0.644568,0.002000,-0.743860,0.000000
571.000000,0.002000,-0.319217,-0.602332,0.024397,0.764808,-1.544345,-2.840664,6.227461,14.836433,-0.519214,0.002000,-0.088831,0.000000
572.000000,0.002000,-0.390456,-0.146925,-0.315160,-2.718782,4.154208,2.818270,13.066156,8.231957,12.694379,0.002000,-0.818804,0.000000
573.000000,0.002000,-0.080393,0.461639,-0.261098,-0.349557,-1.720384,0.434960,2.020793,-17.664975,9.477410,0.002000,-0.060454,0.000000
574.000000,0.002000,1.130694,0.198296,0.679536,0.305851,-1.296103,-2.277550,-5.995275,-0.858270,-3.577337,0.002000,0.863002,0.000000
575.000000,0.002000,1.069837,2.783489,-0.074752,0.197796,-1.241939,-0.233204,-0.737139,-1.788736,0.037024,0.002000,2.158011,0.000000
576.000000,0.002000,-0.037604,0.359288,-0.228817,3.887036,-0.793081,1.844093,0.375218,-21.113147,11.427423,0.002000,-0.071482,0.000000
577.000000,0.002000,0.608400,-0.013636,0.003672,1.082860,0.980873,3.278746,-17.550068,1.562087,-0.507947,0.002000,0.627665,0.000000
578.000000,0.002000,0.270438,0.301402,-1.184874,-2.332536,-3.379855,1.275145,-2.098246,-2.067588,7.491931,0.002000,1.318340,0.000000
579.000000,0.002000,-0.050810,0.330734,-1.686595,-0.123958,-0.692529,-2.510327,0.266217,-0.902109,5.021154,0.002000,-0.319217,0.000000
580.000000,0.002000,-0.224053,-0.242218,-0.818480,1.976473,-0.628485,2.461635,2.686909,3.921687,11.681836,0.002000,-0.390456,0.000000
581.000000,0.002000,-0.270597,-0.401531,0.329633,-3.132236,1.210036,2.540423,6.359299,15.112650,-10.909051,0.002000,-0.080393,0.000000
582.000000,0.002000,-0.077974,1.861083,2.825076,-0.487987,-0.184476,-0.972682,0.002081,-0.797448,-1.290788,0.002000,1.130694,0.000000
583.000000,0.002000,1.716993,3.244894,2.551578,0.900038,0.515410,-1.543437,-0.357135,-0.687165,-0.537904,0.002000,1.069837,0.000000
584.000000,0.002000,-0.206851,0.076256,0.508509,2.355865,-2.055906,-1.570845,4.868956,-4.072013,-17.410740,0.002000,-0.037604,0.000000
585.000000,0.002000,-0.146574,1.491831,-1.253087,-1.624841,1.185960,-0.610918,0.243408,-2.968707,2.626457,0.002000,0.608400,0.000000
586.000000,0.002000,0.223342,-0.012835,-0.112574,2.306225,-2.268452,0.570090,-12.029246,2.060198,7.993528,0.002000,0.270438,0.000000
587.000000,0.002000,-0.948389,-0.595271,0.411439,-3.472064,-0.421417,0.290995,6.654955,4.369093,-3.181004,0.002000,-0.050810,0.000000
588.000000,0.002000,-0.512557,0.469077,-1.025568,-0.684265,-0.219927,-1.993337,3.768403,-3.257229,7.032611,0.002000,-0.224053,0.000000
589.000000,0.002000,0.430104,-0.745615,0.435606,-0.444579,3.223890,1.145825,-4.809961,8.519823,-5.597131,0.002000,-0.270597,0.000000
590.000000,0.002000,1.205934,0.709083,1.652003,-1.320740,-1.875787,-0.586781,-1.844377,-0.968319,-2.491460,0.002000,-0.077974,0.000000
591.000000,0.002000,0.350318,-0.303618,-0.081087,-1.243565,-1.031819,1.114495,-13.420681,11.824844,3.932188,0.002000,1.716993,0.000000
592.000000,0.002000,0.034027,0.598120,-0.205529,-0.670929,1.212471,-1.206809,-1.606935,-15.711391,5.237923,0.002000,-0.206851,0.000000
593.000000,0.002000,-1.007131,1.302231,0.911394,1.744774,-1.249440,-1.520258,2.605956,-3.148956,-2.068927,0.002000,-0.146574,0.000000
594.000000,0.002000,-0.196502,-0.994727,2.116235,0.771148,1.890215,-0.438776,0.193200,1.201621,-2.583830,0.002000,0.223342,0.000000
595.000000,0.002000,-0.403778,-0.148822,-0.149889,3.429247,-1.008643,0.938633,13.922828,7.976231,10.969790,0.002000,-0.948389,0.000000
596.000000,0.002000,-2.904170,1.453480,0.680567,0.858260,-0.986319,0.170768,1.424608,-0.701817,-0.317506,0.002000,-0.512557,0.000000
597.000000,0.002000,-0.303916,1.597623,0.164219,-2.143847,1.124167,-0.824523,1.159409,-5.319013,-0.693036,0.002000,0.430104,0.000000
598.000000,0.002000,0.207321,-0.286918,0.517639,-0.145884,2.746274,0.206329,-6.811569,9.206328,-13.032177,0.002000,1.205934,0.000000
599.000000,0.002000,-0.475145,-0.287695,-0.138203,-1.371458,1.346509,4.503012,14.524392,10.052584,5.220840,0.002000,0.350318,0.000000
600.000000,0.002000,0.027788,-0.709908,0.575110,0.999586,-1.305485,2.718247,-0.877828,9.059010,-7.226607,0.002000,0.034027,0.000000
601.000000,0.002000,-0.513736,0.712891,0.438391,-1.423501,0.901395,-2.686518,5.094229,-8.603801,-5.358744,0.002000,-1.007131,0.000000
602.000000,0.002000,-0.352647,0.435008,-0.650335,-0.082740,0.651348,-2.329088,5.752451,-7.345036,11.273677,0.002000,-0.196502,0.000000
603.000000,0.002000,-2.016403,-0.116305,-0.454559,0.957735,1.657139,1.471418,3.531904,0.248548,0.776648,0.002000,-0.403778,0.000000
604.000000,0.002000,-0.025399,-0.334319,-0.096231,-3.458631,2.386841,0.498506,-2.137097,19.392040,2.772473,0.002000,-2.904170,0.000000
605.000000,0.002000,0.000804,-0.416481,-0.585724,-2.072977,0.611083,0.497853,-0.513858,9.464133,11.795791,0.002000,-0.303916,0.000000
606.000000,0.002000,3.144408,1.909963,-2.159376,-0.132885,1.201686,-0.492158,-0.759566,-0.463351,0.561266,0.002000,0.207321,0.000000
607.000000,0.002000,0.608863,0.222502,0.664332,-0.827670,-1.667801,1.613413,-7.734297,-2.261935,-8.718229,0.002000,-0.475145,0.000000
608.000000,0.002000,-0.216227,0.187543,0.139064,-1.180422,1.354895,2.734803,12.752083,-11.607368,-2.360474,0.002000,0.027788,0.000000
609.000000,0.002000,1.619587,0.061644,1.288631,-1.684646,-0.726117,-1.102913,-2.731745,0.011100,-2.327054,0.002000,-0.513736,0.000000
610.000000,0.002000,-0.373250,-0.082717,-0.374948,-1.024550,1.445286,-0.565805,13.519529,3.356472,12.773942,0.002000,-0.352647,0.000000
611.000000,0.002000,0.011363,0.325080,0.383067,0.055999,-3.245439,-0.046673,-0.181549,-11.560395,-17.075112,0.002000,-2.016403,0.000000
612.000000,0.002000,-0.360888,0.110548,0.258119,0.944235,-0.521179,0.602789,14.466298,-1.241983,-11.334052,0.002000,-0.025399,0.000000
613.000000,0.002000,-0.144414,-0.052262,-0.059142,1.913141,3.076123,-1.873143,8.263996,5.437889,7.088201,0.002000,0.000804,0.000000
614.000000,0.002000,-0.536742,0.248200,0.495796,2.477944,0.029615,0.792396,10.807088,-4.414612,-9.765168,0.002000,3.144408,0.000000
615.000000,0.002000,0.513852,0.185312,0.742671,1.076988,-1.325920,1.175770,-6.319107,-1.948175,-9.932680,0.002000,0.608863,0.000000
616.000000,0.002000,0.547313,0.123717,-0.196248,0.341405,0.903949,3.452326,-17.535005,-3.753043,7.857663,0.002000,-0.216227,0.000000
617.000000,0.002000,0.436813,-0.305696,0.331049,1.104453,-2.279940,0.415703,-12.113360,11.127878,-7.708976,0.002000,1.619587,0.000000
618.000000,0.002000,-0.055810,-0.095714,-0.344369,1.286448,-1.278076,1.094585,2.604892,6.487254,17.975530,0.002000,-0.373250,0.000000
619.000000,0.002000,0.720283,0.623304,-2.079281,-0.465554,-0.533370,1.971694,-0.976924,-0.859443,2.875997,0.002000,0.011363,0.000000
620.000000,0.002000,-0.008828,-0.785012,-0.352956,0.478858,-1.686989,0.014983,-0.705383,10.859239,4.721109,0.002000,-0.360888,0.000000
621.000000,0.002000,-0.227867,0.131731,-0.605653,-2.313010,-2.187315,-1.941336,5.243364,-3.750592,16.602114,0.002000,-0.144414,0.000000
622.000000,0.002000,0.747032,-0.324926,-0.300590,-0.628799,-0.432801,2.941517,-10.500729,4.982596,4.307459,0.002000,-0.536742,0.000000
623.000000,0.002000,-0.110011,0.238199,0.138888,-0.476982,0.806219,1.013982,5.367880,-12.013826,-9.130653,0.002000,0.513852,0.000000
624.000000,0.002000,-0.293720,-0.356786,0.029752,0.824732,-1.206837,-0.296805,11.571617,17.115367,-0.265373,0.002000,0.547313,0.000000
625.000000,0.002000,0.279148,2.385972,1.502926,-0.400592,-1.356001,-0.466017,-0.224015,-1.756575,-1.117575,0.002000,0.436813,0.000000
626.000000,0.002000,0.110335,0.528913,-0.462430,-2.024387,1.377781,-2.423168,-2.644098,-11.977784,10.257322,0.002000,-0.055810,0.000000
627.000000,0.002000,0.199864,0.284623,-0.208959,1.979391,1.638670,1.618283,-13.241841,-12.592796,7.837946,0.002000,0.720283,0.000000
628.000000,0.002000,0.409706,-0.581878,-0.177789,0.379696,-1.171268,2.919121,-7.787504,12.860010,4.211438,0.002000,-0.008828,0.000000
629.000000,0.002000,-0.701843,0.303493,-0.274898,-1.573778,0.847508,3.365768,12.840222,-5.267875,4.927493,0.002000,-0.227867,0.000000
630.000000,0.002000,0.236432,-0.053755,0.602405,0.453193,0.533705,-2.268983,-5.941076,1.494028,-15.415355,0.002000,0.747032,0.000000
631.000000,0.002000,-0.828640,-0.148697,-0.370766,-3.234769,-2.497060,-1.891140,10.858560,2.568097,5.404899,0.002000,-0.110011,0.000000
632.000000,0.002000,0.637509,-0.273598,-0.173586,0.809912,-1.662581,0.761963,-13.921344,7.783336,2.807838,0.002000,-0.293720,0.000000
633.000000,0.002000,2.731081,1.097113,-2.769359,0.401905,-0.769475,0.424728,-0.774598,-0.300292,0.788493,0.002000,0.279148,0.000000
634.000000,0.002000,0.331837,-0.076744,0.043447,1.659490,2.945575,-2.959852,-19.002479,6.229160,-3.664085,0.002000,0.110335,0.000000
635.000000,0.002000,-0.202670,0.027092,-0.233176,-1.473065,2.824267,-2.984945,15.376399,-1.096960,11.420366,0.002000,0.199864,0.000000
636.000000,0.002000,-0.067266,-0.390216,0.112467,0.140406,-1.941892,1.125892,2.707358,18.810808,-1.357709,0.002000,0.409706,0.000000
637.000000,0.002000,-1.008207,-1.462478,-0.670232,-0.458452,-0.719583,-1.247284,2.222761,3.243127,1.433197,0.002000,-0.701843,0.000000
638.000000,0.002000,-0.992280,-0.203023,-0.484907,-3.047128,-1.070611,-1.762991,8.245053,1.264594,5.411153,0.002000,0.236432,0.000000
639.000000,0.002000,0.696227,-0.133152,-0.112642,3.598830,-0.195288,2.050949,-14.742009,3.605178,0.218656,0.002000,-0.828640,0.000000
640.000000,0.002000,0.123110,0.019554,0.044294,4.076298,1.114497,2.994791,-10.752405,0.396672,-2.897236,0.002000,0.637509,0.000000
641.000000,0.002000,-0.513639,0.244740,-0.590530,1.683422,-2.501545,-0.572563,8.624822,-3.006043,10.079170,0.002000,2.731081,0.000000
642.000000,0.002000,-0.102270,-0.132463,0.052250,0.693247,2.690246,2.656305,8.235993,9.937127,-7.818081,0.002000,0.331837,0.000000
643.000000,0.002000,-0.049887,1.413652,0.708976,2.760626,-1.264321,-1.009514,0.139963,-5.034198,-2.628815,0.002000,-0.202670,0.000000
644.000000,0.002000,-0.044400,-0.526855,0.002648,2.773208,2.410605,-3.243366,1.804251,18.161275,-0.793455,0.002000,-0.067266,0.000000
645.000000,0.002000,0.051244,0.335796,0.011843,2.015580,0.835460,-1.688200,-3.898962,-17.261682,-1.444390,0.002000,-1.008207,0.000000
646.000000,0.002000,-0.263698,0.822320,1.521332,0.939246,-1.211019,-2.469662,0.667967,-2.165762,-4.200731,0.002000,-0.992280,0.000000
647.000000,0.002000,-1.123207,1.106404,-1.353472,0.449385,-0.496075,-1.415648,1.990647,-1.770663,2.302680,0.002000,0.696227,0.000000
648.000000,0.002000,-0.469734,-0.919922,0.381836,-1.895852,0.367947,0.179810,3.080983,8.147571,-3.111197,0.002000,0.123110,0.000000
649.000000,0.002000,-0.091886,0.048025,-0.141487,-0.006638,1.694327,1.864725,-0.187462,-0.340736,12.781601,0.002000,-0.513639,0.000000
650.000000,0.002000,-0.505422,-3.815219,-0.008602,1.202984,-0.586862,-0.515334,0.154705,1.213671,0.017176,0.002000,-0.102270,0.000000
651.000000,0.002000,-3.758780,1.369535,0.732314,-0.065513,-0.303265,-0.856360,1.046082,-0.377475,-0.200560,0.002000,-0.049887,0.000000
652.000000,0.002000,-0.071282,-0.559565,-0.369290,1.993761,-0.063708,-1.958881,1.248382,13.201206,8.400952,0.002000,-0.044400,0.000000
653.000000,0.002000,-1.288713,2.451733,2.195770,0.401396,-0.799316,0.051375,0.528635,-0.982978,-0.904115,0.002000,0.051244,0.000000
654.000000,0.002000,-0.382402,0.275785,0.012496,2.315967,0.876109,4.846683,13.547793,-5.985090,5.374900,0.002000,-0.263698,0.000000
655.000000,0.002000,-0.463715,1.558613,0.526358,-2.189625,-1.401357,-1.522379,1.381859,-4.568115,-1.597478,0.002000,-1.123207,0.000000
656.000000,0.002000,0.404890,0.111172,1.615139,-0.601094,0.158521,0.663734,-1.299468,-0.381973,-4.753295,0.002000,-0.469734,0.000000
657.000000,0.002000,0.248762,-0.101807,0.163952,-1.479901,-0.382741,3.291511,-13.601522,6.725568,-8.918182,0.002000,-0.091886,0.000000
658.000000,0.002000,-0.149535,0.056269,-0.153015,4.209017,-0.268248,0.581575,6.521765,-7.086613,14.215343,0.002000,-0.505422,0.000000
659.000000,0.002000,-0.935580,-0.837098,-0.562985,0.608288,1.217004,2.006062,4.615439,4.376709,2.960828,0.002000,-3.758780,0.000000
660.000000,0.002000,-0.022757,0.414808,0.411758,2.445280,1.111995,-0.187487,1.445318,-11.561723,-13.045486,0.002000,-0.071282,0.000000
661.000000,0.002000,0.017971,0.357156,0.219190,3.358542,-3.049679,-1.396675,-2.159032,-14.161677,-9.862173,0.002000,-1.288713,0.000000
662.000000,0.002000,0.681084,-0.090482,-0.236102,2.322318,1.851035,4.065663,-13.223600,2.695070,5.792269,0.002000,-0.382402,0.000000
663.000000,0.002000,0.678742,0.224732,-0.648066,1.004571,0.351768,-3.201320,-8.623255,-2.229623,7.914263,0.002000,-0.463715,0.000000
664.000000,0.002000,-0.239255,-0.450834,0.186523,1.669753,0.796852,-1.504090,6.348336,16.158643,-4.589788,0.002000,0.404890,0.000000
665.000000,0.002000,0.267260,-0.545821,-0.068034,-1.801818,-2.446366,-0.529799,-7.058950,14.835546,2.434928,0.002000,0.248762,0.000000
666.000000,0.002000,-0.135105,0.319379,0.404429,-0.268591,3.388206,1.264409,4.116171,-10.036972,-15.278789,0.002000,-0.149535,0.000000
667.000000,0.002000,0.235273,0.154656,0.454765,-1.772989,-2.978565,-1.301566,-2.937518,-5.171246,-19.038810,0.002000,-0.935580,0.000000
668.000000,0.002000,0.013174,0.143421,0.227278,-3.234766,3.562607,3.543550,-1.505199,-6.623063,-14.841488,0.002000,-0.022757,0.000000
669.000000,0.002000,-1.000528,0.284203,-0.035837,1.497887,0.894952,1.833612,11.076072,-3.564848,1.010469,0.002000,0.017971,0.000000
670.000000,0.002000,-0.273305,0.001014,0.380834,-1.205383,1.675660,1.451159,8.924264,1.856219,-15.087695,0.002000,0.681084,0.000000
671.000000,0.002000,0.012619,-1.105459,0.287318,0.724728,-1.423874,1.831990,-0.207000,8.421799,-2.273384,0.002000,0.678742,0.000000
672.000000,0.002000,0.358917,0.110415,0.085050,1.458159,-0.300783,0.409263,-19.558670,-5.486283,-3.249602,0.002000,-0.239255,0.000000
673.000000,0.002000,1.808372,-3.805104,1.812024,-0.765218,0.450376,1.559557,-0.367739,0.752255,-0.352049,0.002000,0.267260,0.000000
674.000000,0.002000,1.696534,1.319764,2.922500,0.039779,-0.857122,-0.113032,-0.632363,-0.487229,-1.117927,0.002000,-0.135105,0.000000
675.000000,0.002000,0.514995,-1.605639,0.439966,1.541128,-0.407855,1.014964,-1.478889,4.205210,-1.085098,0.002000,0.235273,0.000000
676.000000,0.002000,0.212945,0.305236,0.434069,-0.749338,-0.260413,0.779703,-7.395474,-8.544542,-13.338224,0.002000,0.013174,0.000000
677.000000,0.002000,0.067547,0.101477,-0.546360,1.959842,0.873295,-1.716769,-2.851538,-2.509648,18.595838,0.002000,-1.000528,0.000000
678.000000,0.002000,-0.058388,-0.304533,0.011936,-0.283930,-0.486055,3.683746,1.186794,24.617807,-1.537675,0.002000,-0.273305,0.000000
679.000000,0.002000,-0.635999,0.981585,0.964756,2.168570,-1.457539,-1.878928,2.284577,-4.244511,-4.102084,0.002000,0.012619,0.000000
680.000000,0.002000,-1.377100,-2.467289,1.968934,0.548256,0.491018,0.055879,0.599056,1.068182,-0.856022,0.002000,0.358917,0.000000
681.000000,0.002000,-1.014834,-0.944055,0.360211,-0.718191,0.226551,-0.471785,4.358093,4.308968,-1.768800,0.002000,1.808372,0.000000
682.000000,0.002000,0.010209,0.197260,0.006709,0.500827,-2.783011,-0.074278,-4.924948,-12.783216,-1.646857,0.002000,1.696534,0.000000
683.000000,0.002000,-1.362363,-1.214398,2.477265,-0.229014,0.269266,-0.279044,0.797567,0.712820,-1.424988,0.002000,0.514995,0.000000
684.000000,0.002000,1.192018,-1.090237,0.497537,-0.993058,1.224343,-0.383372,-3.424703,3.028593,-1.402748,0.002000,0.212945,0.000000
685.000000,0.002000,-0.563295,-0.165251,-0.107301,1.458978,-3.125782,-0.606916,16.725244,6.393907,3.054160,0.002000,0.067547,0.000000
686.000000,0.002000,-0.066791,0.099137,0.315241,-0.611721,-3.747753,0.809065,2.211088,-6.097598,-17.703517,0.002000,-0.058388,0.000000
687.000000,0.002000,-0.328623,-3.982971,0.371744,0.061651,0.631969,0.759448,0.073292,1.123895,-0.084428,0.002000,-0.635999,0.000000
688.000000,0.002000,-0.024391,0.689498,-0.693219,1.214139,2.884082,0.036976,-0.181548,-8.459067,8.575246,0.002000,-1.377100,0.000000
689.000000,0.002000,-0.615440,2.914474,0.956531,-0.359874,-1.057819,-0.717736,0.355098,-1.644217,-0.547961,0.002000,-1.014834,0.000000
690.000000,0.002000,0.624532,-1.021184,-1.106454,-0.074264,1.537978,2.527474,-2.085352,3.334595,3.424475,0.002000,0.010209,0.000000
691.000000,0.002000,-1.263588,-1.816442,0.515185,1.651492,1.444731,-0.190910,1.672843,2.534065,-0.717298,0.002000,-1.362363,0.000000
692.000000,0.002000,-0.120652,0.529119,-0.232067,0.065034,0.181558,0.627555,3.107469,-16.460617,8.429471,0.002000,1.192018,0.000000
693.000000,0.002000,0.126235,0.458565,0.636296,0.968828,0.602910,-1.795192,-2.356296,-7.359981,-13.412628,0.002000,-0.563295,0.000000
694.000000,0.002000,0.855713,-0.172407,0.415655,-2.244170,-1.347935,-0.343531,-9.812508,1.379746,-4.717158,0.002000,-0.066791,0.000000
695.000000,0.002000,1.038931,1.694558,-0.259013,-0.892264,1.447839,0.167950,-2.072612,-3.026632,0.652079,0.002000,-0.328623,0.000000
696.000000,0.002000,2.419399,-0.248598,-0.365051,-1.757803,-0.088255,0.654374,-2.628476,0.303682,0.382303,0.002000,-0.024391,0.000000
697.000000,0.002000,2.481440,2.582153,0.669378,1.038396,-0.230880,0.616212,-0.941383,-0.939901,-0.208862,0.002000,-0.615440,0.000000
698.000000,0.002000,-0.071063,0.100181,0.077325,1.209042,-0.947387,2.104089,5.471151,-7.306180,-8.533916,0.002000,0.624532,0.000000
699.000000,0.002000,-0.431855,-1.057906,0.164768,-0.551117,0.143853,0.048819,2.987532,8.949671,-1.568157,0.002000,-1.263588,0.000000
700.000000,0.002000,-1.185247,-0.147732,0.069976,0.649432,1.433321,2.629065,8.511782,2.006152,-0.446103,0.002000,-0.120652,0.000000
701.000000,0.002000,-0.171600,-0.019753,-0.299304,-0.894961,1.273176,0.225090,7.433086,2.912946,19.042797,0.002000,0.126235,0.000000
702.000000,0.002000,-0.599173,0.871751,0.830035,3.195466,-1.702144,0.622466,3.003800,-4.754596,-4.205247,0.002000,0.855713,0.000000
703.000000,0.002000,0.618601,-0.736436,0.618559,-1.149525,-0.204922,0.894831,-4.827883,5.277264,-4.475108,0.002000,1.038931,0.000000
704.000000,0.002000,1.937077,0.740952,-0.655389,-2.029522,-0.001772,1.170168,-2.981087,-1.079530,1.037700,0.002000,2.419399,0.000000
705.000000,0.002000,1.934262,-1.011226,6.792600,0.472124,-0.445251,1.372138,-0.105049,0.055404,-0.368276,0.002000,2.481440,0.000000
706.000000,0.002000,-0.979627,-0.076561,-0.018182,3.456232,0.075534,2.724682,11.661506,0.987341,0.196910,0.002000,-0.071063,0.000000
707.000000,0.002000,-0.532240,0.085333,-0.212281,0.417629,-1.986973,-5.229409,18.391964,-2.275707,6.547917,0.002000,-0.431855,0.000000
708.000000,0.002000,-0.069717,-0.126823,0.734322,1.544280,1.006576,2.715832,0.130659,3.077789,-14.671683,0.002000,-1.185247,0.000000
709.000000,0.002000,0.038771,0.561435,0.164785,-0.401882,0.246925,-1.122345,-1.531316,-21.294909,-5.617665,0.002000,-0.171600,0.000000
710.000000,0.002000,-0.143434,-0.288828,-0.516264,-0.411034,1.908025,0.669644,2.635654,10.099120,14.430371,0.002000,-0.599173,0.000000
711.000000,0.002000,-2.862887,0.315558,1.049900,0.306026,-0.472591,1.743250,1.809888,0.210765,-0.436543,0.002000,0.618601,0.000000
712.000000,0.002000,-0.037602,0.003193,0.015240,1.731701,-1.473133,0.260304,-3.668498,-2.345423,-2.204280,0.002000,1.937077,0.000000
713.000000,0.002000,-1.712737,-0.865971,0.317939,-0.498826,1.252816,-0.788097,3.508733,1.832763,-0.669133,0.002000,1.934262,0.000000
714.000000,0.002000,-0.139422,0.859920,0.270131,-0.688360,-1.427516,0.559071,1.651403,-12.149188,-4.151709,0.002000,-0.979627,0.000000
715.000000,0.002000,-2.251928,-3.421416,2.760702,-0.357961,-0.431829,-0.319447,0.350101,0.551585,-0.425200,0.002000,-0.532240,0.000000
716.000000,0.002000,1.074608,1.584904,0.361682,1.353984,0.336450,-0.414311,-2.114621,-3.267723,-0.839327,0.002000,-0.069717,0.000000
717.000000,0.002000,1.344587,1.809440,0.038583,0.113051,0.992052,0.770499,-1.938341,-2.655468,0.061941,0.002000,0.038771,0.000000
718.000000,0.002000,1.985873,-0.249137,2.177522,-0.531690,-1.043667,-0.041011,-1.298425,0.211015,-1.434843,0.002000,-0.143434,0.000000
719.000000,0.002000,0.490968,0.700295,0.301048,-1.990693,3.064920,2.348054,-6.917720,-9.143006,-4.193255,0.002000,-2.862887,0.000000
720.000000,0.002000,0.253024,-0.138741,-0.707015,-3.912049,-0.583544,2.874520,-5.703533,3.474094,13.604473,0.002000,-0.037602,0.000000
721.000000,0.002000,0.162283,-0.282142,-0.020811,-2.809305,-1.384905,-1.678408,-14.147988,16.228968,1.716945,0.002000,-1.712737,0.000000
722.000000,0.002000,0.125376,0.067330,0.157665,-3.794556,0.285321,-2.959447,-12.284129,-3.596386,-10.483129,0.002000,-0.139422,0.000000
723.000000,0.002000,0.187243,-0.230822,0.072875,0.075767,4.191858,0.888654,-12.715512,15.520647,-3.428370,0.002000,-2.251928,0.000000
724.000000,0.002000,4.183108,0.183309,-0.730231,0.486861,0.105591,0.855773,-1.038167,-0.036423,0.175943,0.002000,1.074608,0.000000
725.000000,0.002000,0.153826,-0.369473,0.553065,1.242747,0.900314,2.503730,-3.894372,9.514656,-12.156542,0.002000,1.344587,0.000000
726.000000,0.002000,0.455337,0.943071,1.752492,-0.148414,0.155016,1.487695,-0.778022,-1.597513,-3.150025,0.002000,1.985873,0.000000
727.000000,0.002000,0.230361,0.047724,-0.428371,-2.287777,3.796737,-2.339672,-9.633958,-0.511088,15.123787,0.002000,0.490968,0.000000
728.000000,0.002000,0.372048,0.475338,0.093408,3.090508,-0.034174,-2.477753,-11.517753,-11.962028,-1.881952,0.002000,0.253024,0.000000
729.000000,0.002000,-0.809525,-0.023795,-0.274938,-0.308075,-2.343899,0.602736,12.333846,0.256840,7.525144,0.002000,0.162283,0.000000
730.000000,0.002000,-0.487765,0.559371,-0.001798,-2.962876,-1.118697,0.429767,9.916350,-12.374960,-0.455275,0.002000,0.125376,0.000000
731.000000,0.002000,-0.589222,-0.386490,-0.121442,0.741977,-0.576526,-0.268993,11.878100,8.185591,3.074055,0.002000,0.187243,0.000000
732.000000,0.002000,-0.523483,-0.005240,0.216339,-0.006753,-3.708418,1.319513,11.140475,2.894850,-7.028646,0.002000,4.183108,0.000000
733.000000,0.002000,0.467986,3.100725,0.901317,-0.732073,-0.005415,-1.236185,-0.272158,-1.568453,-0.495426,0.002000,0.153826,0.000000
734.000000,0.002000,-0.029858,-0.217621,-0.276376,-2.743063,1.622951,0.673617,-3.866599,11.343658,17.198605,0.002000,0.455337,0.000000
735.000000,0.002000,0.619824,-0.120502,0.486246,3.215760,-1.608744,-0.500086,-10.645417,2.709559,-8.277873,0.002000,0.230361,0.000000
736.000000,0.002000,-0.426866,-0.141014,0.510548,0.411256,-1.506279,1.345778,10.719587,3.850087,-13.289997,0.002000,0.372048,0.000000
737.000000,0.002000,-0.015536,-0.084528,-0.082283,1.063311,3.186133,-2.314310,-2.480912,4.769901,9.889739,0.002000,-0.809525,0.000000
738.000000,0.002000,-2.536474,0.512206,1.902571,1.180551,-0.299563,-0.605324,1.364571,-0.242553,-0.958151,0.002000,-0.487765,0.000000
739.000000,0.002000,0.471651,0.603649,0.130439,-1.931608,0.188285,-4.924352,-9.190742,-11.571748,-2.458311,0.002000,-0.589222,0.000000
740.000000,0.002000,0.031330,0.379255,0.152424,1.026564,-0.380109,0.895234,-2.586599,-16.221764,-7.900260,0.002000,-0.523483,0.000000
741.000000,0.002000,0.297446,0.023562,-0.377021,2.650484,-1.116313,3.386895,-11.111972,0.362246,14.211944,0.002000,0.467986,0.000000
742.000000,0.002000,0.051700,-0.088871,0.331694,-1.222406,-3.181408,-0.082429,-3.336082,4.164820,-20.201115,0.002000,-0.029858,0.000000
743.000000,0.002000,0.729208,-0.457307,-0.739639,0.517962,0.587872,-2.152656,-5.533760,3.763521,5.540910,0.002000,0.619824,0.000000
744.000000,0.002000,-0.265347,0.153445,-0.348028,2.259455,-3.314806,-0.357010,10.061481,-5.849696,16.657209,0.002000,-0.426866,0.000000
745.000000,0.002000,4.477672,-0.769483,-1.906489,0.017741,0.612679,-1.231719,-0.726150,0.131816,0.308617,0.002000,-0.015536,0.000000
746.000000,0.002000,1.357736,0.819114,0.248437,2.085571,1.260683,0.325708,-4.585730,-2.726594,-0.903334,0.002000,-2.536474,0.000000
747.000000,0.002000,-0.371607,-1.259472,-2.873810,-0.626738,1.267701,-0.427063,0.221055,0.761230,1.523415,0.002000,0.471651,0.000000
748.000000,0.002000,0.809397,-2.093745,-0.386450,-0.311166,2.162409,0.465932,-1.570265,4.293180,0.405471,0.002000,0.031330,0.000000
749.000000,0.002000,2.634249,0.867400,1.508068,-1.154145,-0.376804,-0.457780,-1.438287,-0.424402,-0.859999,0.002000,0.297446,0.000000
750.000000,0.002000,-0.188750,0.143463,0.046649,0.715464,-1.640624,-1.276185,9.020480,-10.536589,-5.494308,0.002000,0.051700,0.000000
751.000000,0.002000,0.791461,0.289423,0.565840,-1.404954,-2.383313,0.136904,-8.667062,-2.260794,-6.719699,0.002000,0.729208,0.000000
752.000000,0.002000,-1.187377,0.568921,-0.749575,-1.473969,-2.113185,-2.623483,4.818926,-2.117460,3.008883,0.002000,-0.265347,0.000000
753.000000,0.002000,0.414659,1.061428,-0.891430,0.364348,1.121165,-0.837109,-1.991669,-4.658898,4.084650,0.002000,4.477672,0.000000
754.000000,0.002000,-0.688509,-1.267241,0.219016,0.527874,0.068967,-0.239893,2.718774,5.535331,-0.694648,0.002000,1.357736,0.000000
755.000000,0.002000,0.898114,-0.627941,0.394304,1.273921,0.727688,3.271469,-6.535832,4.266233,-2.939532,0.002000,-0.371607,0.000000
756.000000,0.002000,-0.270198,1.241163,-0.070830,-1.230392,3.345148,1.172574,1.637607,-7.909240,0.475247,0.002000,0.809397,0.000000
757.000000,0.002000,1.233963,-0.237117,0.316836,1.694319,-0.375365,0.617079,-6.758112,1.492059,-1.738410,0.002000,2.634249,0.000000
758.000000,0.002000,0.168884,-0.352853,0.208865,0.355861,-0.337078,-1.245294,-8.972078,15.547047,-8.329976,0.002000,-0.188750,0.000000
759.000000,0.002000,0.086731,0.466045,0.114304,-3.388152,0.997449,2.094047,-4.332088,-17.134837,-3.746059,0.002000,0.791461,0.000000
760.000000,0.002000,0.356557,-0.649469,-0.290083,-2.770753,-2.356657,0.963202,-5.534794,11.208720,5.180269,0.002000,-1.187377,0.000000
761.000000,0.002000,0.204281,0.166630,-0.449493,-4.077003,0.779428,-0.431823,-7.562434,-4.987133,16.415579,0.002000,0.414659,0.000000
762.000000,0.002000,-0.393850,0.850786,-0.084336,1.229470,2.726053,1.683235,5.134542,-11.313105,1.034220,0.002000,-0.688509,0.000000
763.000000,0.002000,0.330694,-0.197657,-0.066579,-4.029076,-1.176727,0.925199,-13.963986,15.217838,6.579870,0.002000,0.898114,0.000000
764.000000,0.002000,-0.330465,0.032434,0.009095,-1.796747,-0.184044,-2.386131,19.160946,-0.053573,-6.021485,0.002000,-0.270198,0.000000
765.000000,0.002000,2.681821,1.022770,1.220122,0.134188,-0.164078,1.714544,-1.573944,-0.606300,-0.541245,0.002000,1.233963,0.000000
766.000000,0.002000,-0.098458,0.403928,-0.363775,0.888030,2.599133,2.770994,2.089075,-13.914795,11.790492,0.002000,0.168884,0.000000
767.000000,0.002000,0.832201,0.282203,-0.008182,-0.870082,2.410482,1.739440,-12.491991,-4.510512,0.180738,0.002000,0.086731,0.000000
768.000000,0.002000,-0.288386,0.583855,-0.267712,-1.795603,0.278912,-2.147475,4.714831,-12.381779,5.032106,0.002000,0.356557,0.000000
769.000000,0.002000,-0.323943,0.071962,-0.046637,0.101139,-0.686935,-1.422612,18.218487,-9.901886,2.591265,0.002000,0.204281,0.000000
770.000000,0.002000,0.628643,-0.685974,0.307011,2.098790,0.890794,-0.377143,-6.879437,7.105052,-3.208712,0.002000,-0.393850,0.000000
771.000000,0.002000,0.277556,2.437412,0.116255,0.203623,-1.795054,-0.269278,-0.327205,-2.679393,-0.168503,0.002000,0.330694,0.000000
772.000000,0.002000,-0.012961,0.341857,-1.609661,0.259346,2.218015,-0.639563,-0.100720,-1.064458,4.931320,0.002000,-0.330465,0.000000
773.000000,0.002000,-0.171690,1.425518,-0.471764,-0.909355,2.068655,1.254659,0.760461,-5.619024,1.897197,0.002000,2.681821,0.000000
774.000000,0.002000,-0.358770,0.180324,-0.112322,0.481121,1.456428,-0.945387,17.402468,-7.140862,3.832864,0.002000,-0.098458,0.000000
775.000000,0.002000,2.624354,-2.014617,1.686435,-0.750359,0.410766,0.052849,-0.901333,0.744166,-0.577106,0.002000,0.832201,0.000000
776.000000,0.002000,2.383192,-1.783646,-2.298034,0.179351,0.835123,-0.336540,-0.832857,0.632309,0.786433,0.002000,-0.288386,0.000000
777.000000,0.002000,0.388621,0.197303,-0.173538,-2.664788,0.860839,-2.630244,-14.718875,-8.357330,6.839016,0.002000,-0.323943,0.000000
778.000000,0.002000,-0.548767,-0.761562,0.050109,0.357111,0.420618,-2.212394,6.979749,9.845296,-0.311068,0.002000,0.628643,0.000000
779.000000,0.002000,-0.340443,0.211969,0.209359,-2.252119,-3.622296,-2.082684,14.447383,-8.161572,-8.888728,0.002000,0.277556,0.000000
780.000000,0.002000,0.062117,-1.241659,0.392939,1.325451,-2.606537,1.098761,-0.436082,6.985445,-2.169281,0.002000,-0.012961,0.000000
781.000000,0.002000,0.020147,0.684713,1.630441,1.219714,0.845077,-0.919395,-0.268147,-1.421256,-4.213329,0.002000,-0.171690,0.000000
782.000000,0.002000,0.597526,0.495072,-0.067120,2.532025,-0.951178,1.735132,-11.790087,-8.670681,0.696775,0.002000,-0.358770,0.000000
783.000000,0.002000,0.734357,-1.225156,-4.065617,0.152001,0.285292,0.489338,-0.189087,0.309860,0.983700,0.002000,2.624354,0.000000
784.000000,0.002000,0.315919,-0.103707,0.378324,4.451516,0.027660,-0.009673,-11.855849,4.580697,-14.610567,0.002000,2.383192,0.000000
785.000000,0.002000,1.781930,-2.513847,0.799546,0.753425,-0.854883,-1.000063,-0.956056,1.320610,-0.418388,0.002000,0.388621,0.000000
786.000000,0.002000,-1.364900,0.801218,-0.764415,-1.649752,0.363912,0.998191,3.266955,-2.719558,2.328206,0.002000,-0.548767,0.000000
787.000000,0.002000,0.187172,3.213638,-1.999339,0.183042,0.045886,-1.155980,-0.070014,-1.114554,0.710064,0.002000,-0.340443,0.000000
788.000000,0.002000,-0.118213,0.606679,-0.235660,-2.195413,-1.395485,-2.674147,2.156729,-14.839968,6.441989,0.002000,0.062117,0.000000
789.000000,0.002000,0.216524,-0.199179,0.267376,-0.464405,2.313969,-2.190185,-15.445571,7.910806,-3.526071,0.002000,0.020147,0.000000
790.000000,0.002000,-0.047241,-0.425188,1.243054,0.267138,1.466835,0.127198,0.110134,2.299532,-6.866731,0.002000,0.597526,0.000000
791.000000,0.002000,-2.603677,2.124973,-0.054838,1.074993,-0.431450,-0.532508,1.243078,-0.948179,0.017218,0.002000,0.734357,0.000000
792.000000,0.002000,0.236801,0.759816,-0.092248,-2.046713,0.406867,-1.650589,-4.328416,-13.564422,1.601956,0.002000,0.315919,0.000000
793.000000,0.002000,-0.357208,0.071883,-0.599554,2.048015,-1.229264,2.281596,8.852489,-0.599868,15.072345,0.002000,1.781930,0.000000
794.000000,0.002000,-0.478159,-0.120742,-0.324288,1.650690,-1.824141,2.772370,15.598339,4.433635,11.798015,0.002000,-1.364900,0.000000
795.000000,0.002000,-0.341223,0.252791,1.704850,0.046495,0.846892,-2.790103,0.873939,-0.708469,-4.618044,0.002000,0.187172,0.000000
796.000000,0.002000,-0.168476,1.426438,1.141167,0.938157,-0.057856,-1.035455,0.288793,-3.779903,-2.942755,0.002000,-0.118213,0.000000
797.000000,0.002000,-0.018411,0.048156,-0.366351,-0.005356,-1.250517,-2.227526,-2.481279,-2.069020,18.401655,0.002000,0.216524,0.000000
798.000000,0.002000,0.311751,0.384778,-0.380696,1.745348,-2.120031,-0.370716,-10.601170,-10.727900,10.915119,0.002000,-0.047241,0.000000
799.000000,0.002000,-1.629242,0.435942,-2.167953,-0.787621,1.281575,-0.480553,1.294921,-0.368084,1.734720,0.002000,-2.603677,0.000000
800.000000,0.002000,-0.336202,0.218289,0.281421,1.772114,2.183499,-1.799250,18.196370,-5.768043,-13.071045,0.002000,0.236801,0.000000
801.000000,0.002000,-0.129703,0.047427,0.767793,-0.306699,1.657283,-0.216733,1.082077,0.133942,-13.896966,0.002000,-0.357208,0.000000
802.000000,0.002000,0.115827,0.299561,0.056806,0.217731,2.848084,0.055423,-8.905964,-16.367561,-4.171699,0.002000,-0.478159,0.000000
803.000000,0.002000,0.471038,-0.541054,-0.544798,-3.338892,0.671839,1.189542,-6.014637,7.630183,7.406853,0.002000,-0.341223,0.000000
804.000000,0.002000,-0.518269,0.496262,-0.331006,-0.786383,-0.010586,1.637381,10.752477,-11.201385,6.520722,0.002000,-0.168476,0.000000
805.000000,0.002000,-0.410638,-0.075335,-0.313852,3.303551,-1.677985,0.784336,14.755601,4.290587,13.597215,0.002000,-0.018411,0.000000
806.000000,0.002000,-1.921584,-2.220602,-4.014291,0.032722,-0.063654,-0.392095,0.305154,0.353386,0.636195,0.002000,0.311751,0.000000
807.000000,0.002000,0.539581,-0.571513,0.044029,0.742446,1.651067,-1.020862,-8.823347,9.427318,-0.959080,0.002000,-1.629242,0.000000
808.000000,0.002000,-0.175860,-0.124305,-0.293316,0.137074,-2.880717,-0.467653,6.759263,10.386096,19.424822,0.002000,-0.336202,0.000000
809.000000,0.002000,-0.695486,0.271205,-0.157235,-0.922758,1.619760,1.578857,14.305885,-5.103104,3.533572,0.002000,-0.129703,0.000000
810.000000,0.002000,-0.028142,0.485772,0.084238,-1.167428,0.570278,-0.215108,0.912423,-18.876410,-3.261520,0.002000,0.115827,0.000000
811.000000,0.002000,-0.052298,-0.441880,-0.204572,-0.347296,-0.019642,-4.966993,0.380184,17.673800,9.145517,0.002000,0.471038,0.000000
812.000000,0.002000,-0.749863,0.250127,0.797488,0.387753,0.667398,1.251627,6.512064,-1.712594,-7.206479,0.002000,-0.518269,0.000000
813.000000,0.002000,1.180523,0.423429,-0.654908,1.186736,0.019711,-0.476428,-5.647188,-1.653137,3.109960,0.002000,-0.410638,0.000000
814.000000,0.002000,-0.226104,-0.064707,-1.101561,0.816950,1.142637,1.992016,1.529698,1.082536,9.780287,0.002000,-1.921584,0.000000
815.000000,0.002000,-0.442225,1.241235,-0.097707,-0.426611,-1.403868,0.461801,2.492516,-7.255455,0.515884,0.002000,0.539581,0.000000
816.000000,0.002000,-0.184729,0.427626,-0.297977,-2.773846,1.636492,-0.551136,5.925568,-15.203632,9.541682,0.002000,-0.175860,0.000000
817.000000,0.002000,0.870001,-0.904594,0.473075,-1.590196,1.141779,-1.598508,-4.407545,4.787573,-2.350932,0.002000,-0.695486,0.000000
818.000000,0.002000,-0.008226,2.957398,-1.756044,1.308304,-0.641099,-0.192455,0.016855,-1.340868,0.779562,0.002000,-0.028142,0.000000
819.000000,0.002000,-0.338202,-0.165812,0.569785,-2.700344,0.798146,1.364994,6.500722,1.679258,-13.310999,0.002000,-0.052298,0.000000
820.000000,0.002000,0.115031,0.685193,1.756278,0.682806,0.487057,1.799176,-0.362449,-1.438400,-3.946988,0.002000,-0.749863,0.000000
821.000000,0.002000,0.968929,-1.796920,-1.006732,0.901429,0.149573,-0.274505,-1.283634,2.443206,1.325299,0.002000,1.180523,0.000000
822.000000,0.002000,3.130220,-1.654991,0.633578,0.392645,-0.020815,-0.251518,-1.206919,0.656646,-0.250616,0.002000,-0.226104,0.000000
823.000000,0.002000,0.044869,1.705727,2.235754,-0.305220,-0.206592,-1.471485,-0.083681,-1.222540,-1.691600,0.002000,-0.442225,0.000000
824.000000,0.002000,0.089760,-0.444729,0.507802,-0.077090,0.344092,1.335063,-2.568509,10.833085,-11.905686,0.002000,-0.184729,0.000000
825.000000,0.002000,3.626114,-0.409070,-1.233149,-0.027860,-0.820472,-1.766462,-1.160921,0.165040,0.382017,0.002000,0.870001,0.000000
826.000000,0.002000,0.427661,-0.357266,-0.480202,2.259735,-0.277797,0.715990,-8.902628,7.509551,9.033009,0.002000,-0.008226,0.000000
827.000000,0.002000,0.672647,0.051081,0.207857,1.722822,-0.761977,0.410540,-14.603516,-0.110902,-6.008391,0.002000,-0.338202,0.000000
828.000000,0.002000,0.579202,-0.352431,-0.528533,-0.511391,-1.307865,1.064542,-8.545178,5.666400,7.588904,0.002000,0.115031,0.000000
829.000000,0.002000,-1.399143,-0.756123,-0.400571,1.438174,0.876401,2.350594,4.465593,2.552995,1.292164,0.002000,0.968929,0.000000
830.000000,0.002000,-0.476936,-0.549362,0.321933,1.661804,3.079699,-0.933085,8.236645,10.083252,-6.059954,0.002000,3.130220,0.000000
831.000000,0.002000,0.684239,-0.763264,0.407592,-0.159149,-0.608279,-2.276182,-6.026891,6.523107,-3.587097,0.002000,0.044869,0.000000
832.000000,0.002000,-0.080156,-0.014189,-0.058129,-2.324369,5.167875,-0.748367,2.244153,5.284101,5.280376,0.002000,0.089760,0.000000
833.000000,0.002000,0.090597,0.737380,-0.325733,0.242195,-0.751703,1.513162,-1.726424,-11.995926,5.467432,0.002000,3.626114,0.000000
834.000000,0.002000,0.282430,0.495428,-0.249640,0.480082,-3.379599,0.666658,-8.291560,-12.841335,6.491475,0.002000,0.427661,0.000000
835.000000,0.002000,1.135975,-0.098949,0.061401,-2.730496,-2.203235,-1.904412,-9.047049,1.053352,-0.570756,0.002000,0.672647,0.000000
836.000000,0.002000,-0.823601,-2.869771,1.338322,-0.594218,-0.931832,0.047217,0.410375,1.377565,-0.629843,0.002000,0.579202,0.000000
837.000000,0.002000,-1.145421,0.033318,0.145367,1.704017,0.051159,-2.000846,9.078120,-0.400744,-1.401611,0.002000,-1.399143,0.000000
838.000000,0.002000,0.448940,-0.150656,0.713079,-1.583098,-0.650369,0.784309,-6.004973,4.696435,-11.044517,0.002000,-0.476936,0.000000
839.000000,0.002000,0.751690,0.221914,0.149013,1.194046,-0.367182,-0.353251,-12.995098,-4.337512,-4.054870,0.002000,0.684239,0.000000
840.000000,0.002000,0.405802,0.151713,-1.163774,0.729814,-1.101425,0.621258,-2.761113,-0.609174,7.280508,0.002000,-0.080156,0.000000
841.000000,0.002000,-0.599712,0.599902,0.982920,-1.485290,-0.271228,-1.125840,3.263959,-3.336197,-6.021112,0.002000,0.090597,0.000000
842.000000,0.002000,0.188290,0.205916,-0.119400,-0.217901,-0.087839,1.493077,-12.412465,-10.716735,5.085809,0.002000,0.282430,0.000000
843.000000,0.002000,-0.111831,-0.090081,-0.117110,1.002554,-0.368825,0.524713,7.885821,3.792199,9.286704,0.002000,1.135975,0.000000
844.000000,0.002000,-0.483088,0.018569,-1.029385,0.259810,0.551843,-0.773532,4.170768,-0.141154,8.332823,0.002000,-0.823601,0.000000
845.000000,0.002000,-0.744777,-2.443631,-0.870921,-1.186497,0.821426,-0.777737,0.567004,2.120975,0.712712,0.002000,-1.145421,0.000000
846.000000,0.002000,0.189778,0.027406,0.202116,-0.066840,1.875741,-2.221221,-11.737886,-0.900853,-14.177396,0.002000,0.448940,0.000000
847.000000,0.002000,-2.189344,0.986206,0.384359,1.507412,-1.183865,0.377730,2.473386,-1.102104,-0.420889,0.002000,0.751690,0.000000
848.000000,0.002000,-0.066445,-0.452379,-0.680200,-0.649312,2.435389,0.062872,0.884238,8.373260,10.864966,0.002000,0.405802,0.000000
849.000000,0.002000,2.206751,2.074309,-1.531740,0.864864,-0.364899,0.582455,-1.006948,-0.960946,0.725071,0.002000,-0.599712,0.000000
850.000000,0.002000,0.371196,0.511760,0.108840,-0.486542,-0.367883,-0.502563,-7.879761,-14.440263,-1.146683,0.002000,0.188290,0.000000
851.000000,0.002000,0.789617,0.450765,0.328625,-0.617854,-0.342826,-2.095791,-9.404630,-5.123341,-3.760753,0.002000,-0.111831,0.000000
852.000000,0.002000,0.369795,0.002447,-0.022970,0.203533,2.067070,2.579881,-19.575409,0.916635,0.633077,0.002000,-0.483088,0.000000
853.000000,0.002000,-0.453514,-0.263744,0.018995,-0.563778,3.372712,0.657428,15.563543,11.508734,-1.531955,0.002000,-0.744777,0.000000
854.000000,0.002000,-0.291799,-0.235397,-0.479219,2.176919,0.618543,-1.105415,9.297531,8.275309,13.099258,0.002000,0.189778,0.000000
855.000000,0.002000,-0.390915,-0.701908,-0.501377,-2.285595,2.063321,0.861141,4.344814,8.949813,6.099572,0.002000,-2.189344,0.000000
856.000000,0.002000,-0.141874,0.363396,0.156518,1.028591,-1.232314,0.957832,4.687864,-15.798225,-7.230208,0.002000,-0.066445,0.000000
857.000000,0.002000,-0.565899,0.134398,-0.544933,-2.356391,1.111983,-0.373682,10.785612,-1.421453,10.748663,0.002000,2.206751,0.000000
858.000000,0.002000,-0.208660,-0.181396,1.180767,-1.157226,-0.408766,-0.803590,1.355805,1.477285,-7.920722,0.002000,0.371196,0.000000
859.000000,0.002000,0.769257,-0.672075,0.162180,3.357362,-0.455200,-1.165962,-7.480832,6.558847,-1.772966,0.002000,0.789617,0.000000
860.000000,0.002000,-0.221522,0.451285,0.048886,-1.096915,-0.045329,-3.224412,7.744095,-15.518139,-2.555793,0.002000,0.369795,0.000000
861.000000,0.002000,2.725905,-0.915874,1.128997,-0.439570,-2.003693,0.605331,-1.586368,0.509679,-0.662474,0.002000,-0.453514,0.000000
862.000000,0.002000,0.214065,0.010854,-0.019103,0.195962,2.454253,-2.077852,-15.428724,-2.439333,-1.615450,0.002000,-0.291799,0.000000
863.000000,0.002000,1.213096,0.143224,-0.322214,2.846411,-1.851164,0.159770,-7.495439,-0.585629,1.871832,0.002000,-0.390915,0.000000
864.000000,0.002000,-0.394486,-4.849086,-0.649998,0.431127,-0.126297,-0.489857,0.052612,0.737913,0.135025,0.002000,-0.141874,0.000000
865.000000,0.002000,0.769714,-1.012165,-1.944512,-0.116736,-0.752522,1.925167,-0.844008,1.335286,2.419013,0.002000,-0.565899,0.000000
866.000000,0.002000,-0.416374,-0.862136,0.342726,1.307931,0.993553,-1.885782,3.563453,8.985126,-3.493533,0.002000,-0.208660,0.000000
867.000000,0.002000,0.736153,0.337246,0.173419,-4.011693,-2.495158,-0.130941,-11.616198,-5.527902,-2.732789,0.002000,0.769257,0.000000
868.000000,0.002000,0.516169,-0.940596,0.797112,0.290616,-0.336139,-2.698280,-2.772049,4.773052,-4.268902,0.002000,-0.221522,0.000000
869.000000,0.002000,-0.103012,0.250565,-0.222989,-0.668466,-1.064972,-4.388087,3.378069,-12.274039,10.361300,0.002000,2.725905,0.000000
870.000000,0.002000,0.159578,0.334699,-0.245231,-2.437526,1.680642,3.890117,-6.971795,-14.362816,9.944360,0.002000,0.214065,0.000000
871.000000,0.002000,0.012780,0.178685,-0.242617,-0.501776,-2.168309,-2.702637,-0.607775,-11.110062,13.969404,0.002000,1.213096,0.000000
872.000000,0.002000,-1.391654,-2.883258,-0.817985,0.273656,0.450700,-0.223569,0.648671,1.405218,0.363927,0.002000,-0.394486,0.000000
873.000000,0.002000,0.668328,1.655583,3.097919,-0.097634,-0.342328,-0.713931,-0.271792,-0.608925,-1.231426,0.002000,0.769714,0.000000
874.000000,0.002000,-1.878502,-2.070956,-2.677495,0.129461,0.283838,0.687755,0.577752,0.652428,0.883982,0.002000,-0.416374,0.000000
875.000000,0.002000,0.078466,-1.217052,-0.715802,-0.541076,2.920145,1.805891,-0.340706,5.095993,3.101311,0.002000,0.736153,0.000000
876.000000,0.002000,-1.212612,0.622369,0.043160,0.712189,-0.003803,0.544377,6.316085,-3.366560,-0.332166,0.002000,0.516169,0.000000
877.000000,0.002000,-0.170163,-0.258905,2.812835,0.868942,0.286405,-1.153996,0.160423,0.185705,-2.033580,0.002000,-0.103012,0.000000
878.000000,0.002000,1.809174,-0.008766,-0.106189,1.279453,-0.208008,-1.198199,-4.585644,0.095408,0.249123,0.002000,0.159578,0.000000
879.000000,0.002000,0.269232,-0.193520,-0.440831,1.332905,-0.263383,-2.165237,-8.820976,7.697125,13.734003,0.002000,0.012780,0.000000
880.000000,0.002000,-0.786281,0.205689,-0.099437,4.411753,-0.948143,-1.922301,14.063503,-3.095170,2.351013,0.002000,-1.391654,0.000000
881.000000,0.002000,0.134304,0.261964,-0.003259,1.153218,2.025429,-1.182573,-10.373491,-14.136172,1.379696,0.002000,0.668328,0.000000
882.000000,0.002000,0.029637,-1.176666,0.222807,1.205194,2.672470,2.400824,0.346909,8.181451,-0.802997,0.002000,-1.878502,0.000000
883.000000,0.002000,-0.316802,0.111263,0.444029,3.367477,-1.441485,-0.697787,10.429164,-5.072981,-15.090978,0.002000,0.078466,0.000000
884.000000,0.002000,-0.347389,0.381016,-0.554533,1.255048,-0.582994,1.035673,6.432169,-8.473453,11.872526,0.002000,-1.212612,0.000000
885.000000,0.002000,-1.285869,-0.798762,-1.150083,2.378192,0.999883,0.372102,2.675398,1.788031,2.547381,0.002000,-0.170163,0.000000
886.000000,0.002000,-0.238973,1.215447,0.274689,1.487161,-0.133491,0.186246,1.587755,-7.868585,-1.841558,0.002000,1.809174,0.000000
887.000000,0.002000,0.275974,0.055023,0.038863,1.682375,3.773565,-2.554362,-16.293218,1.262586,-3.206817,0.002000,0.269232,0.000000
888.000000,0.002000,-0.651465,-0.073131,0.340879,3.763167,2.831573,-1.715746,12.815353,2.316603,-6.882746,0.002000,-0.786281,0.000000
889.000000,0.002000,-0.137314,0.005606,0.123792,1.914328,1.189530,-1.248493,8.246885,3.006394,-6.095322,0.002000,0.134304,0.000000
890.000000,0.002000,3.336618,1.237024,2.256573,-0.407294,0.273567,0.559256,-0.849867,-0.294233,-0.592574,0.002000,0.029637,0.000000
891.000000,0.002000,-0.985451,0.980160,-0.758806,0.223894,1.290091,1.297828,3.493678,-3.524236,2.749196,0.002000,-0.316802,0.000000
892.000000,0.002000,-0.255170,-0.251563,0.485314,1.188145,1.697918,1.041289,5.803416,7.210398,-14.873908,0.002000,-0.347389,0.000000
893.000000,0.002000,2.734472,0.436959,-1.891071,0.016693,-1.388838,0.107165,-1.257352,-0.186711,0.874973,0.002000,-1.285869,0.000000
894.000000,0.002000,-0.011592,-0.514869,-0.483486,0.920493,-2.021950,2.051928,-0.333424,11.819459,10.354313,0.002000,-0.238973,0.000000
895.000000,0.002000,1.317160,0.231990,0.887709,1.836710,1.491271,-0.352322,-4.273310,-0.807587,-3.036525,0.002000,0.275974,0.000000
896.000000,0.002000,0.443897,0.560575,0.190919,0.337675,-2.651969,-1.084717,-9.215353,-12.401872,-4.691015,0.002000,-0.651465,0.000000
