# 
#                 columns are tag, mass, x, y, z, vx, vy, vz, ax, ay, az, EK, EU, E
#                 Time=10.000000
# 
1.000000,0.002000,0.799722,-0.009506,0.192710,3.315448,-2.262663,-2.886198,-12.125328,0.975415,-3.076415,80.573060,-161.824438,-81.251378
2.000000,0.002000,2.259283,2.389000,-1.716822,-1.155573,0.597429,-1.856737,-0.870945,-0.906060,0.638100,0.000000,0.000000,0.000000
3.000000,0.002000,-0.282293,-0.800256,1.224970,0.020860,0.911139,-1.283258,0.847493,2.932940,-4.976938,0.000000,0.000000,0.000000
4.000000,0.002000,0.105415,-0.112754,0.909035,0.142542,2.542391,1.163051,-2.135803,1.737059,-11.205838,0.000000,0.000000,0.000000
5.000000,0.002000,-0.251676,-0.030734,0.014436,-2.502189,-0.462524,-2.921121,10.565673,4.443977,-6.040989,0.000000,0.000000,0.000000
6.000000,0.002000,-0.312225,0.012416,-0.489687,-1.281231,-1.843225,-1.982624,10.684128,1.831141,14.700433,0.000000,0.000000,0.000000
7.000000,0.002000,0.716683,-0.051117,-3.353307,0.130386,0.708846,-0.457590,-0.340299,0.061570,1.547623,0.002000,1577139022369446083322798405560457826463402338589605888.000000,-0.009506
8.000000,0.002000,-0.573852,0.157303,-1.228303,0.124423,0.680469,-0.612023,2.872266,-0.631193,6.304976,0.002000,930382473798674171610975997523362011431124862008408021056652788629504.000000,2.389000
9.000000,0.002000,-1.727791,0.743508,1.426065,1.227190,-0.574855,-0.712321,2.151753,-0.864338,-1.733642,0.002000,0.799722,-0.800256
10.000000,0.002000,-1.546216,1.209390,2.377623,-0.142994,-0.932109,-0.932472,0.946840,-0.768632,-1.492021,0.002000,2.259283,-0.112754
11.000000,0.002000,0.248213,0.371008,-0.114753,0.928628,0.401411,-2.853335,-10.602243,-12.671128,3.860835,0.002000,-0.282293,-0.030734
12.000000,0.002000,-0.803137,1.933798,0.737752,0.289242,-1.772985,-0.533674,1.257279,-2.930525,-1.175577,0.002000,0.105415,0.012416
13.000000,0.002000,-0.460015,-0.636884,-0.464707,2.204642,0.786751,-2.156418,5.473829,9.405898,5.627715,0.002000,-0.251676,-0.051117
14.000000,0.002000,1.480829,0.536751,-0.717757,1.670990,1.222581,0.210095,-4.486485,-0.514381,1.972524,0.002000,-0.312225,0.157303
15.000000,0.002000,0.471919,-0.350121,-0.012379,-4.908438,1.130671,-2.166467,-11.952257,10.914414,-1.096077,0.002000,0.716683,0.743508
16.000000,0.002000,-0.020623,1.813927,0.518143,0.514656,-1.569824,-2.131365,-0.013861,-4.211581,-1.255497,0.002000,-0.573852,1.209390
17.000000,0.002000,-0.878001,-0.434602,-0.310628,1.370502,1.125249,0.335845,8.859530,5.105861,3.013200,0.002000,-1.727791,0.371008
18.000000,0.002000,0.092882,-0.227399,-0.276586,-1.736535,-3.288616,0.122743,-4.404359,15.775801,12.984803,0.002000,-1.546216,1.933798
19.000000,0.002000,-0.049705,-0.031255,0.135768,0.006135,1.385725,-0.449739,3.623692,9.005626,-7.552959,0.002000,0.248213,-0.636884
20.000000,0.002000,-0.096262,0.374932,0.120477,-3.119249,1.885257,-1.127017,5.366029,-13.211897,-7.085543,0.002000,-0.803137,0.536751
21.000000,0.002000,0.487576,0.063053,-0.004011,2.606488,-0.682497,-2.682788,-17.985749,1.433781,-1.155733,0.002000,-0.460015,-0.350121
22.000000,0.002000,-1.140847,-0.952408,-0.588655,0.439324,1.037198,0.428022,3.678640,3.469203,2.018929,0.002000,1.480829,1.813927
23.000000,0.002000,-1.402378,0.177190,-1.053277,-0.854586,2.241816,1.334584,3.698715,-0.217189,2.845422,0.002000,0.471919,-0.434602
24.000000,0.002000,-0.049654,-0.558262,-0.083968,1.235471,2.268840,-0.231393,0.990978,15.610458,2.497982,0.002000,-0.020623,-0.227399
25.000000,0.002000,0.154645,0.321747,0.394841,-0.690887,3.397440,1.044052,-4.554863,-9.842318,-14.942603,0.002000,-0.878001,-0.031255
26.000000,0.002000,1.607223,0.667694,-0.409150,0.450926,-1.153266,-1.061902,-4.304332,-1.655261,1.096210,0.002000,0.092882,0.374932
27.000000,0.002000,0.251936,0.685946,-0.149177,1.953661,-1.811428,0.880834,-5.871051,-14.853223,3.196025,0.002000,-0.049705,0.063053
28.000000,0.002000,-0.014025,-0.231588,-0.908710,0.122739,1.190787,0.467776,0.465733,3.447882,11.125596,0.002000,-0.096262,-0.952408
29.000000,0.002000,1.029686,0.259568,-4.735756,-0.313392,-0.299406,0.288417,-0.184218,-0.034839,0.816620,0.002000,0.487576,0.177190
30.000000,0.002000,0.134646,0.358768,0.011878,-1.676291,-3.317582,-3.989204,-3.116020,-17.086563,3.821233,0.002000,-1.140847,-0.558262
31.000000,0.002000,-0.681357,0.387858,0.097681,2.754276,0.921928,0.034523,13.569983,-6.309483,-3.187187,0.002000,-1.402378,0.321747
32.000000,0.002000,-0.078472,0.058195,0.102862,-1.472061,2.263262,-0.032795,6.590791,-4.981891,-9.783790,0.002000,-0.049654,0.667694
33.000000,0.002000,-0.064544,-0.075299,0.609617,-0.406306,1.894391,-2.654690,4.849916,2.024905,-17.860036,0.002000,0.154645,0.685946
34.000000,0.002000,-0.791647,-0.382593,-0.277142,1.967498,2.961201,-1.421962,9.835217,5.871544,3.937144,0.002000,1.607223,-0.231588
35.000000,0.002000,-1.105705,0.908158,-1.638335,1.887014,-0.612571,1.287196,1.742827,-1.292033,2.674561,0.002000,0.251936,0.259568
36.000000,0.002000,1.209967,0.695312,-1.339442,-2.204174,0.096789,1.181424,-2.532133,-1.261480,2.903743,0.002000,-0.014025,0.358768
37.000000,0.002000,-1.252128,-0.170809,-3.778004,-1.007642,-0.632819,-1.334626,0.337339,0.080141,1.083541,0.002000,1.029686,0.387858
38.000000,0.002000,0.374077,-0.839450,0.798953,0.643563,0.728175,-0.544820,-4.815315,6.462103,-5.877436,0.002000,0.134646,0.058195
39.000000,0.002000,0.195555,-0.266983,0.674242,1.291538,-0.975497,-0.479775,-4.256361,5.884951,-12.046543,0.002000,-0.681357,-0.075299
40.000000,0.002000,-0.618231,-0.589487,-1.368432,0.907599,-0.471992,0.837501,1.988234,2.171599,4.379036,0.002000,-0.078472,-0.382593
41.000000,0.002000,0.206741,-0.492712,0.404154,-1.460645,2.634065,0.241504,-5.113287,12.983681,-8.536689,0.002000,-0.064544,0.908158
42.000000,0.002000,1.511806,-1.311994,1.663329,0.131368,-0.564274,1.556960,-1.419166,1.278054,-1.475263,0.002000,-0.791647,0.695312
43.000000,0.002000,-0.578813,-1.316505,0.180781,-1.365892,2.562913,1.434429,2.057940,5.509735,-0.557213,0.002000,-1.105705,-0.170809
44.000000,0.002000,0.192726,-0.690672,-0.001809,0.711138,0.399888,-1.326884,-4.796421,12.252544,-0.991702,0.002000,1.209967,-0.839450
45.000000,0.002000,-0.925413,0.141367,0.334587,1.877675,-0.116629,1.403379,10.910022,-0.831365,-3.559573,0.002000,-1.252128,-0.266983
46.000000,0.002000,-0.026930,-0.045344,0.535936,1.915068,-0.218451,1.002686,1.153993,1.938902,-14.220082,0.002000,0.374077,-0.589487
47.000000,0.002000,1.465605,0.263053,-0.058691,1.173681,0.902528,0.649233,-5.989166,-0.512606,0.203330,0.002000,0.195555,-0.492712
48.000000,0.002000,0.392755,-0.579807,0.189835,0.857016,-0.227076,0.084575,-7.731934,11.293447,-2.149200,0.002000,-0.618231,-1.311994
49.000000,0.002000,-0.780166,0.086649,-0.499797,-3.654476,0.385081,-2.975077,10.709154,-0.647811,7.863568,0.002000,0.206741,-1.316505
50.000000,0.002000,0.071609,-0.061134,0.067403,0.300129,4.988582,1.014927,-5.213619,8.383841,-5.856532,0.002000,1.511806,-0.690672
51.000000,0.002000,-0.530714,-0.831613,-0.292766,-0.221991,-0.775698,-0.314530,4.616010,8.499491,2.354203,0.002000,-0.578813,0.141367
52.000000,0.002000,0.329209,0.254002,0.397825,-1.221077,0.494900,1.436867,-9.744853,-3.071510,-11.808097,0.002000,0.192726,-0.045344
53.000000,0.002000,-0.942572,0.169680,0.393551,-0.883709,0.273374,0.943963,10.218526,-0.883393,-3.496251,0.002000,-0.925413,0.263053
54.000000,0.002000,-0.510250,-0.252831,-1.390839,1.544219,0.862960,-0.794500,1.852614,1.280508,5.514982,0.002000,-0.026930,-0.579807
55.000000,0.002000,0.627783,0.462994,-0.073164,1.025278,0.291016,1.789194,-12.467077,-7.794207,1.360304,0.002000,1.465605,0.086649
56.000000,0.002000,0.149206,-0.423878,-0.539811,-1.632169,1.911298,0.227934,-3.850610,9.920572,9.839402,0.002000,0.392755,-0.061134
57.000000,0.002000,-1.145578,-0.809856,-1.583298,-2.358345,0.628222,-0.611802,1.778118,1.417772,2.621749,0.002000,-0.780166,-0.831613
58.000000,0.002000,-0.392746,-1.607027,0.654690,0.442340,1.436907,-1.235060,0.893659,4.052747,-1.553107,0.002000,0.071609,0.254002
59.000000,0.002000,0.271176,-0.346210,-0.125207,-1.128091,1.891328,-2.605723,-10.125819,15.259206,3.281050,0.002000,-0.530714,0.169680
60.000000,0.002000,0.151465,-0.050639,0.200275,-1.138718,-0.779167,-0.256007,-9.219356,6.711284,-10.965228,0.002000,0.329209,-0.252831
61.000000,0.002000,0.051756,0.505224,0.027242,3.904735,0.319123,-1.161157,-3.052139,-17.961628,-2.828241,0.002000,-0.942572,0.462994
62.000000,0.002000,3.317501,-0.555081,2.509845,-1.018859,0.116507,0.196572,-0.845918,0.159424,-0.641128,0.002000,-0.510250,-0.423878
63.000000,0.002000,0.201336,0.351586,0.066158,-0.084057,-2.927130,-1.876736,-10.555565,-14.495550,-1.019213,0.002000,0.627783,-0.809856
64.000000,0.002000,0.468341,-0.010935,0.032371,-0.613301,4.314087,0.414330,-17.933150,2.596486,-2.672528,0.002000,0.149206,-1.607027
65.000000,0.002000,0.119468,-0.481206,0.347065,2.984863,2.031141,0.766001,-4.716507,13.024618,-7.568750,0.002000,-1.145578,-0.346210
66.000000,0.002000,-1.073328,1.018295,0.265536,-0.980437,-0.433745,-0.932208,4.907192,-4.769028,-0.622319,0.002000,-0.392746,-0.050639
67.000000,0.002000,1.229096,-2.107977,1.219280,0.969855,-1.046986,0.640357,-0.973233,1.725071,-1.043919,0.002000,0.271176,0.505224
68.000000,0.002000,0.689342,-0.949233,0.690792,0.737448,-2.334116,-0.552115,-3.349914,4.729856,-3.067776,0.002000,0.151465,-0.555081
69.000000,0.002000,-1.128192,2.454368,-0.061793,0.840773,1.202794,1.124366,1.093082,-2.214660,0.031034,0.002000,0.051756,0.351586
70.000000,0.002000,-0.200593,-0.142835,0.279839,1.976404,-4.025099,2.356084,7.203231,9.671522,-10.328507,0.002000,3.317501,-0.010935
71.000000,0.002000,-0.241891,-0.300088,0.100383,-2.437912,0.097437,-3.847681,7.970995,13.285687,-2.917595,0.002000,0.201336,-0.481206
72.000000,0.002000,0.149275,0.273852,0.370057,-1.081509,0.397357,-4.490935,-9.479126,-3.293533,-16.186652,0.002000,0.468341,1.018295
73.000000,0.002000,0.429052,0.526994,2.098552,1.234801,-0.306055,2.222954,-0.585465,-0.641551,-3.140226,0.002000,0.119468,-2.107977
74.000000,0.002000,-0.086454,0.660976,0.068082,0.215894,-1.737396,-0.453291,2.284120,-16.196064,-2.563091,0.002000,-1.073328,-0.949233
75.000000,0.002000,1.980683,-0.472234,0.306711,-1.824193,0.102631,1.111852,-3.336963,0.994049,-0.623831,0.002000,1.229096,2.454368
76.000000,0.002000,0.050257,0.017213,-0.132195,-4.686567,0.121059,-0.665075,-14.266575,8.558014,10.719304,0.002000,0.689342,-0.142835
77.000000,0.002000,0.144803,-0.053918,-0.410862,-0.962799,-1.855281,-2.972699,-4.763518,8.663745,15.698823,0.002000,-1.128192,-0.300088
78.000000,0.002000,0.320948,0.463982,-0.910647,-0.762959,-0.781449,0.242594,-3.512147,-4.049699,9.483653,0.002000,-0.200593,0.273852
79.000000,0.002000,-0.429527,-0.547539,-0.464000,3.024758,-0.190943,-1.063431,5.568120,9.206506,6.628524,0.002000,-0.241891,0.526994
80.000000,0.002000,2.753516,2.558811,-2.052515,-1.017272,0.396026,0.219378,-0.706717,-0.632437,0.508468,0.002000,0.149275,0.660976
81.000000,0.002000,0.134469,-0.201161,-0.000419,1.506917,0.278697,-0.977369,-6.174187,17.060630,-5.622517,0.002000,0.429052,-0.472234
82.000000,0.002000,-0.222628,-0.117019,1.142626,2.052057,1.107970,1.928790,1.438276,1.270308,-8.512202,0.002000,-0.086454,0.017213
83.000000,0.002000,-0.756775,0.018907,-0.784574,2.868615,1.517595,-0.609091,6.811136,0.149946,7.332758,0.002000,1.980683,-0.053918
84.000000,0.002000,0.023730,-2.430413,1.853408,0.230888,0.301165,-0.127402,-0.019942,1.488687,-1.125975,0.002000,0.050257,0.463982
85.000000,0.002000,-0.369722,0.374570,-0.143548,3.286722,-0.728477,-4.353281,13.728201,-12.727698,3.939895,0.002000,0.144803,-0.547539
86.000000,0.002000,0.615344,-0.928755,-0.193923,-0.002820,0.269016,-1.830235,-4.389462,7.026287,1.263869,0.002000,0.320948,2.558811
87.000000,0.002000,0.033406,-0.702012,-0.229117,1.240065,-3.204906,0.204202,-1.840935,13.165615,4.185647,0.002000,-0.429527,-0.201161
88.000000,0.002000,0.092917,-0.378544,-0.163072,-2.214443,0.106932,-0.892584,-3.798019,16.219436,6.218225,0.002000,2.753516,-0.117019
89.000000,0.002000,-1.038486,-2.034751,0.035535,-1.033184,0.282430,0.279861,1.256949,2.631540,-0.054460,0.002000,0.134469,0.018907
90.000000,0.002000,0.177240,0.273456,-0.051949,0.260351,-0.570261,1.192538,-7.619647,-9.665115,1.202600,0.002000,-0.222628,-2.430413
91.000000,0.002000,-1.157206,-4.466898,-0.553166,0.848112,0.905271,1.277552,0.188099,0.846197,0.124194,0.002000,-0.756775,0.374570
92.000000,0.002000,-0.677710,-0.395878,-0.277875,0.993780,0.068437,-0.127121,10.174815,7.442453,3.936638,0.002000,0.023730,-0.928755
93.000000,0.002000,-0.103347,-0.071762,1.643210,1.898184,-1.539624,-1.465127,0.211261,0.447935,-5.020741,0.002000,-0.369722,-0.702012
94.000000,0.002000,1.536722,0.047649,0.228164,3.270196,-0.765478,-1.000537,-5.565822,0.215357,-0.970633,0.002000,0.615344,-0.378544
95.000000,0.002000,1.137927,-0.412857,-0.382677,-0.935503,0.107259,-0.173377,-6.296283,2.877166,2.068266,0.002000,0.033406,-2.034751
96.000000,0.002000,-0.158683,0.766181,-0.530686,-0.909987,0.743189,-1.408055,1.221559,-9.975321,7.278606,0.002000,0.092917,0.273456
97.000000,0.002000,0.806598,0.382025,0.009854,-1.742408,1.553349,-1.294280,-11.663566,-4.441481,-1.281376,0.002000,-1.038486,-4.466898
98.000000,0.002000,0.460308,1.332319,-4.286760,0.028633,-0.356545,0.655141,-0.101656,-0.273009,0.928925,0.002000,0.177240,-0.395878
99.000000,0.002000,-0.006797,-0.287909,0.113521,-0.728733,0.201220,-0.385908,2.370967,17.544232,-3.645946,0.002000,-1.157206,-0.071762
100.000000,0.002000,-0.093784,-0.196567,0.162102,-2.195315,-0.442811,1.888112,4.738133,12.862078,-7.881704,0.002000,-0.677710,0.047649
101.000000,0.002000,-0.155019,-0.314243,0.411773,-3.578736,0.450571,2.422960,2.934547,9.295081,-11.430124,0.002000,-0.103347,-0.412857
102.000000,0.002000,-0.278997,-0.078025,0.402972,2.176758,-3.304863,0.776538,10.566315,5.787186,-13.468739,0.002000,1.536722,0.766181
103.000000,0.002000,2.156741,-0.494036,-0.279092,1.711088,-0.044218,-0.592473,-3.057342,0.853136,0.430472,0.002000,1.137927,0.382025
104.000000,0.002000,0.216208,-0.326174,0.217762,-1.072766,1.129021,0.488926,-8.394518,12.465034,-7.394096,0.002000,-0.158683,1.332319
105.000000,0.002000,-0.119954,-0.487122,0.900586,3.202838,1.742074,1.584048,0.859874,4.824517,-8.409314,0.002000,0.806598,-0.287909
106.000000,0.002000,0.096033,-0.163249,0.233108,-1.339376,0.616931,0.653552,-5.980151,12.581895,-8.846087,0.002000,0.460308,-0.196567
107.000000,0.002000,-0.214192,0.005474,-0.189180,0.904411,3.741287,0.287635,11.129515,-1.196639,11.963953,0.002000,-0.006797,-0.314243
108.000000,0.002000,0.841771,0.543380,-0.643172,0.203218,0.382000,-0.715306,-6.674469,-3.954587,4.836680,0.002000,-0.093784,-0.078025
109.000000,0.002000,-0.121346,0.388713,-0.581699,2.936200,0.606052,0.576475,2.458461,-8.015587,14.089805,0.002000,-0.155019,-0.494036
110.000000,0.002000,2.038835,-0.775868,-0.871889,1.827677,-0.440792,-0.003974,-2.500799,1.018381,1.030921,0.002000,-0.278997,-0.326174
111.000000,0.002000,0.559903,-0.357498,-0.112423,0.450817,1.972486,-2.057244,-12.110578,9.287105,2.221235,0.002000,2.156741,-0.487122
112.000000,0.002000,-1.767865,-2.502664,0.412138,-0.198039,1.011767,-0.474763,1.006114,1.460613,-0.253446,0.002000,0.216208,-0.163249
113.000000,0.002000,-0.581089,1.465560,0.630285,-3.654393,1.313118,-1.176052,1.729380,-4.370452,-1.994327,0.002000,-0.119954,0.005474
114.000000,0.002000,-0.490733,0.610059,0.921654,-1.176676,-1.514271,-0.760899,3.511839,-3.787917,-6.705684,0.002000,0.096033,0.543380
115.000000,0.002000,-0.203391,-0.509573,-0.256454,-0.095376,2.756864,0.821277,2.506978,14.162755,4.307076,0.002000,-0.214192,0.388713
116.000000,0.002000,0.251007,0.228491,0.112276,0.367017,-0.004634,-1.076355,-15.607161,-0.471348,-3.580568,0.002000,0.841771,-0.775868
117.000000,0.002000,-0.447613,0.463095,-0.181385,1.404985,2.657251,-1.083800,11.837574,-11.258414,4.562425,0.002000,-0.121346,-0.357498
118.000000,0.002000,-0.483239,0.693846,0.511390,0.957782,0.603372,1.099975,5.608491,-7.572428,-5.939437,0.002000,2.038835,-2.502664
119.000000,0.002000,0.635314,0.908656,-0.304063,1.026024,1.860306,-1.989217,-5.136919,-7.412190,2.912127,0.002000,0.559903,1.465560
120.000000,0.002000,-0.225417,0.279348,-0.433446,1.540748,1.766111,2.194681,6.151200,-6.749152,16.358354,0.002000,-1.767865,0.610059
121.000000,0.002000,0.323925,0.245517,0.198840,-1.994835,1.616338,-3.645817,-14.442470,-6.194265,-9.472004,0.002000,-0.581089,-0.509573
122.000000,0.002000,-0.068564,-0.115806,-0.020695,2.142899,0.865117,1.767682,3.104774,12.936479,-1.748263,0.002000,-0.490733,0.228491
123.000000,0.002000,0.703317,-1.479663,0.368898,-0.214777,1.825040,0.169448,-1.864295,4.358556,-0.645763,0.002000,-0.203391,0.463095
124.000000,0.002000,-0.782827,0.412869,-0.319802,0.783285,-1.231674,-0.874897,11.091464,-5.341956,4.197708,0.002000,0.251007,0.693846
125.000000,0.002000,0.181557,-0.044873,0.244048,-4.768278,2.350738,0.707829,-11.159848,7.561890,-12.474925,0.002000,-0.447613,0.908656
126.000000,0.002000,-0.007599,2.122437,1.841354,-0.226747,-0.777429,0.805201,-0.093372,-1.583487,-1.624942,0.002000,-0.483239,0.279348
127.000000,0.002000,-0.659317,0.994705,-0.925586,-2.808415,1.463825,0.572007,2.700562,-3.358595,4.294747,0.002000,0.635314,0.245517
128.000000,0.002000,-1.371802,-3.066220,0.549467,0.440112,1.334399,-0.031464,0.609467,1.404388,-0.238485,0.002000,-0.225417,-0.115806
129.000000,0.002000,-1.122192,1.684058,0.811881,-0.420777,-0.310826,-0.064466,1.795652,-2.654161,-1.423734,0.002000,0.323925,-1.479663
130.000000,0.002000,1.236490,-0.355578,0.514101,-0.959734,1.786690,-0.223290,-5.481922,2.689888,-2.247397,0.002000,-0.068564,0.412869
131.000000,0.002000,-0.215482,0.298407,0.360636,-0.111931,-3.135672,2.692146,8.741367,-8.150537,-13.719443,0.002000,0.703317,-0.044873
132.000000,0.002000,0.441729,0.087479,0.274161,0.873775,4.011097,-1.011120,-15.972755,-0.604002,-8.523045,0.002000,-0.782827,2.122437
133.000000,0.002000,-2.136577,-0.117322,-1.516323,-0.439224,-1.281910,-1.564513,1.991744,0.206640,1.469400,0.002000,0.181557,0.994705
134.000000,0.002000,0.446082,-0.296817,1.068694,-2.486681,2.095752,-1.602902,-3.120615,2.511138,-6.885431,0.002000,-0.007599,-3.066220
135.000000,0.002000,0.870361,1.483699,-2.230313,-0.340071,-0.137754,1.433826,-0.659451,-1.157978,1.808147,0.002000,-0.659317,1.684058
136.000000,0.002000,0.647436,0.279039,-0.475672,-0.891857,0.033450,-0.718433,-11.688751,-3.127607,8.492791,0.002000,-1.371802,-0.355578
137.000000,0.002000,-0.340239,-0.789829,0.188231,-0.560621,-1.423796,-1.427378,4.228727,11.402987,-2.782124,0.002000,-1.122192,0.298407
138.000000,0.002000,-2.057484,0.558667,0.402561,-1.081258,-0.991763,0.009745,2.749876,-0.868111,-0.518939,0.002000,1.236490,0.087479
139.000000,0.002000,-0.716096,1.259116,-0.187712,0.743012,0.344870,0.020385,3.575173,-5.321742,0.691284,0.002000,-0.215482,-0.117322
140.000000,0.002000,-0.845877,-1.314376,0.577114,0.382871,1.987752,2.106980,2.466844,4.074869,-1.829399,0.002000,0.441729,-0.296817
141.000000,0.002000,-0.517966,-2.869104,2.369178,0.567356,0.195036,-1.276527,0.135895,1.025104,-0.819905,0.002000,-2.136577,1.483699
142.000000,0.002000,0.395652,0.410401,0.099585,0.869486,2.280942,2.038026,-11.887324,-11.705569,-3.835083,0.002000,0.446082,0.279039
143.000000,0.002000,0.752379,2.429569,0.632127,-0.507529,-2.886343,-0.805588,-0.979522,-2.317233,-0.663662,0.002000,0.870361,-0.789829
144.000000,0.002000,-0.098681,0.380003,0.275234,0.059880,-0.233368,3.154483,4.049544,-12.440323,-13.132632,0.002000,0.647436,0.558667
145.000000,0.002000,-0.530515,-0.147135,0.185110,-1.664241,1.347313,-2.916522,14.895978,5.702209,-6.027923,0.002000,-0.340239,1.259116
146.000000,0.002000,0.413064,0.153456,-0.169609,-0.569573,1.058561,1.383551,-15.143094,-2.510853,4.294449,0.002000,-2.057484,-1.314376
147.000000,0.002000,-0.136934,-0.439725,-0.303193,2.411724,0.802488,-1.413524,2.443778,16.612062,9.893618,0.002000,-0.716096,-2.869104
148.000000,0.002000,-0.452441,0.060079,0.167016,-2.484520,-2.550894,4.146383,18.508035,-0.609191,-6.257320,0.002000,-0.845877,0.410401
149.000000,0.002000,0.010641,0.349661,0.032445,-2.561073,-1.126541,-1.764055,0.091295,-13.674231,3.703946,0.002000,-0.517966,2.429569
150.000000,0.002000,-0.395832,-0.252570,0.161374,1.648958,-1.751713,3.676971,11.248230,10.065888,-5.853663,0.002000,0.395652,0.380003
151.000000,0.002000,0.290301,0.023181,-0.025322,-1.520648,-4.675123,-3.489768,-14.827566,2.435133,0.116269,0.002000,0.752379,-0.147135
152.000000,0.002000,0.507541,-0.568718,-0.548846,-0.142558,-0.090094,2.873700,-10.867019,9.773127,10.024252,0.002000,-0.098681,0.153456
153.000000,0.002000,0.546093,0.898090,0.399224,0.278178,-3.400176,0.210032,-5.127638,-7.419100,-3.641841,0.002000,-0.530515,-0.439725
154.000000,0.002000,0.011583,-0.104161,-0.482451,0.207320,1.049951,0.550278,-1.271918,7.312484,15.520134,0.002000,0.413064,0.060079
155.000000,0.002000,-0.092357,-0.086208,-0.209567,0.338106,-0.298219,0.177025,5.752433,8.296710,11.399873,0.002000,-0.136934,0.349661
156.000000,0.002000,-3.846452,0.909188,-1.315719,0.435231,-0.315434,-0.925632,1.037560,-0.207807,0.342628,0.002000,-0.452441,-0.252570
157.000000,0.002000,-1.206850,-4.266915,-0.349099,0.415189,0.760321,0.296697,0.246778,0.896831,0.057802,0.002000,0.010641,0.023181
158.000000,0.002000,-0.541858,0.015814,0.254769,1.504556,0.031368,0.764144,15.864653,0.093161,-7.627181,0.002000,-0.395832,-0.568718
159.000000,0.002000,-1.225232,-0.423392,-0.577921,-0.353519,-0.064560,2.121467,5.720439,2.614976,2.671976,0.002000,0.290301,0.898090
160.000000,0.002000,1.740406,-0.070812,1.091450,-1.671601,0.990126,-0.535235,-3.035744,0.191992,-1.753355,0.002000,0.507541,-0.104161
161.000000,0.002000,-0.286160,-0.625367,0.192563,-2.411587,-0.221383,2.854999,4.718834,12.898569,-3.019573,0.002000,0.546093,-0.086208
162.000000,0.002000,0.100827,-2.019003,3.007543,-0.526569,-1.706651,0.359557,-0.023437,0.780575,-1.158834,0.002000,0.011583,0.909188
163.000000,0.002000,0.706639,2.521465,1.460062,-0.935470,-0.422226,0.044795,-0.496718,-1.739315,-0.993599,0.002000,-0.092357,-4.266915
164.000000,0.002000,0.190997,0.281629,-0.249123,2.517194,-1.868873,0.144126,-10.294321,-8.046565,9.325186,0.002000,-3.846452,0.015814
165.000000,0.002000,-0.367576,0.902082,-1.532252,-1.179306,-0.259563,-3.599462,-0.239300,-2.354046,4.074307,0.002000,-1.206850,-0.423392
166.000000,0.002000,-0.848512,-0.791118,-0.911971,-0.963162,0.421683,-1.457120,3.428310,3.408705,3.643610,0.002000,-0.541858,-0.070812
167.000000,0.002000,-0.973238,-0.198024,0.164123,-0.827178,-0.400255,-1.825959,9.690666,3.004045,-2.493847,0.002000,-1.225232,-0.625367
168.000000,0.002000,-0.225871,0.538208,-0.386540,1.263631,-0.810277,0.062342,6.041716,-10.381094,9.728786,0.002000,1.740406,-2.019003
169.000000,0.002000,-0.508290,-1.711020,-0.260986,0.142074,0.443672,-0.633342,1.144944,3.973684,0.614471,0.002000,-0.286160,2.521465
170.000000,0.002000,-1.667765,0.967258,0.008980,-2.459262,0.758719,0.684411,3.629793,-2.020602,-0.056557,0.002000,0.100827,0.281629
171.000000,0.002000,-0.588572,-0.072841,-0.061396,-3.147280,2.207186,-3.647449,16.928426,4.574665,2.527054,0.002000,0.706639,0.902082
172.000000,0.002000,1.563332,0.311988,0.021945,-3.074998,-1.696156,0.898721,-5.622821,-0.593534,-0.253623,0.002000,0.190997,-0.791118
173.000000,0.002000,0.905900,-0.091611,-0.548898,0.268138,0.812060,-0.212878,-8.414751,2.091153,4.974737,0.002000,-0.367576,-0.198024
174.000000,0.002000,2.365897,1.854139,-1.584618,-0.171035,0.549564,0.155852,-1.026587,-0.997566,0.742349,0.002000,-0.848512,0.538208
175.000000,0.002000,0.306817,1.831341,0.654477,1.526390,-1.098753,-1.265576,-0.654833,-3.818400,-1.386333,0.002000,-0.973238,-1.711020
176.000000,0.002000,-0.854241,1.625270,1.406955,1.040745,0.304846,-1.393738,1.237686,-2.047372,-1.864460,0.002000,-0.225871,0.967258
177.000000,0.002000,-1.680457,-3.997513,-4.455875,-0.519897,1.152601,0.164354,0.134896,0.330635,0.360350,0.002000,-0.508290,-0.072841
178.000000,0.002000,-0.264841,-0.037544,-0.052031,0.682969,-2.703067,0.168375,13.786404,11.477432,-0.925249,0.002000,-1.667765,0.311988
179.000000,0.002000,-0.095745,-0.316069,0.625662,1.456799,1.470933,-0.634780,1.751733,6.887835,-11.711793,0.002000,-0.588572,-0.091611
180.000000,0.002000,-0.515352,0.297409,-0.607732,-1.137053,-0.771573,-0.658744,8.691867,-4.504673,9.917275,0.002000,1.563332,1.854139
181.000000,0.002000,-0.300792,1.551788,0.113594,0.426071,0.190569,0.766842,0.672411,-5.159284,-0.549058,0.002000,0.905900,1.831341
182.000000,0.002000,-2.094237,-0.846298,-0.343802,-1.911690,0.477134,0.784878,2.798680,1.170585,0.440475,0.002000,2.365897,1.625270
183.000000,0.002000,-0.033807,0.534441,1.045889,-1.391740,4.333669,-1.148244,0.484836,-3.145823,-8.444455,0.002000,0.306817,-3.997513
184.000000,0.002000,0.639817,-0.068382,-0.073401,0.112846,0.955705,2.594309,-13.274929,2.146087,2.360109,0.002000,-0.854241,-0.037544
185.000000,0.002000,1.349738,0.269205,-0.429964,0.564096,-0.926029,0.347629,-6.133279,-0.689185,1.950902,0.002000,-1.680457,-0.316069
186.000000,0.002000,-1.763841,0.630041,-2.713880,0.849764,-1.340994,0.228946,0.915254,-0.263410,1.482476,0.002000,-0.264841,0.297409
187.000000,0.002000,-1.562352,-1.070260,2.291825,-0.567552,0.473320,0.300074,0.986001,0.693894,-1.527528,0.002000,-0.095745,1.551788
188.000000,0.002000,0.174055,-1.028281,0.910052,-0.443468,-1.315688,-1.422072,0.261058,5.574150,-4.144558,0.002000,-0.515352,-0.846298
189.000000,0.002000,1.484666,-3.343400,-0.666078,-0.611711,-0.530013,0.329065,-0.523211,1.179075,0.231622,0.002000,-0.300792,0.534441
190.000000,0.002000,-0.268630,-0.091183,-0.165307,-0.051719,0.376286,-0.480937,11.241084,9.430576,4.215647,0.002000,-2.094237,-0.068382
191.000000,0.002000,-0.526517,-0.455634,-0.305320,-1.733459,-0.823590,-0.256075,9.783067,10.790946,4.856921,0.002000,-0.033807,0.269205
192.000000,0.002000,0.376754,0.306226,-0.287364,4.596048,0.236721,0.709824,-12.740114,-8.179681,7.958467,0.002000,0.639817,0.630041
193.000000,0.002000,-0.089237,0.069722,0.239992,-1.043251,1.839640,0.696657,6.236801,-0.458219,-12.370677,0.002000,1.349738,-1.070260
194.000000,0.002000,-0.438743,-0.499035,0.213445,4.500620,-1.712674,-2.359856,7.921526,10.565943,-3.847719,0.002000,-1.763841,-1.028281
195.000000,0.002000,-0.760336,0.020084,0.660004,-0.036683,-0.545486,2.188588,7.289153,0.282620,-7.271704,0.002000,-1.562352,-3.343400
196.000000,0.002000,-0.374999,-0.023259,0.227046,-1.689088,1.796440,-0.463705,14.288957,9.228897,-9.192454,0.002000,0.174055,-0.091183
197.000000,0.002000,-2.501920,-0.473715,4.945811,-0.544540,-0.710248,0.974528,0.281306,0.063347,-0.563333,0.002000,1.484666,-0.455634
198.000000,0.002000,0.488969,0.771316,-0.208345,-1.014274,-1.455855,-0.047273,-6.976943,-10.531635,2.676779,0.002000,-0.268630,0.306226
199.000000,0.002000,-0.260304,-0.030756,0.314704,-1.130307,-2.956074,-0.363799,10.144540,2.751418,-12.799855,0.002000,-0.526517,0.069722
200.000000,0.002000,-0.194848,-0.022198,0.575338,-0.055880,1.506269,2.774651,3.293320,0.604902,-15.450303,0.002000,0.376754,-0.499035
201.000000,0.002000,-1.114239,0.223358,-1.033121,-2.038014,-0.017274,-1.747865,4.371038,-0.573956,4.028770,0.002000,-0.089237,0.020084
202.000000,0.002000,-1.700743,2.164236,0.851474,0.029129,0.758813,0.265325,1.304088,-1.646877,-0.624170,0.002000,-0.438743,-0.023259
203.000000,0.002000,-0.387690,-1.048936,1.250257,0.174603,-1.742865,-0.415811,1.082768,3.295857,-3.686697,0.002000,-0.760336,-0.473715
204.000000,0.002000,-0.479536,-0.056571,-0.308117,1.738200,-4.316631,-1.392986,16.155494,-0.292478,10.730051,0.002000,-0.374999,0.771316
205.000000,0.002000,-0.553455,-0.525531,0.266303,-1.455828,0.721466,2.735744,9.423225,9.277962,-5.037125,0.002000,-2.501920,-0.030756
206.000000,0.002000,0.024032,0.263524,-0.047708,-3.919124,0.681465,-1.185773,2.242021,-8.789798,3.421633,0.002000,0.488969,-0.022198
207.000000,0.002000,4.381485,-1.355864,0.383908,-0.702231,0.372788,-0.183892,-0.864410,0.275187,-0.093864,0.002000,-0.260304,0.223358
208.000000,0.002000,0.993252,0.011986,0.224115,0.907077,-0.384835,-1.006119,-10.299619,0.809948,-2.499975,0.002000,-0.194848,2.164236
209.000000,0.002000,0.072844,-0.457143,0.326137,2.363085,2.558488,0.551069,0.144273,19.088447,-10.003513,0.002000,-1.114239,-1.048936
210.000000,0.002000,0.385956,-0.178043,0.505347,3.981462,-0.054377,-0.337241,-9.100428,5.526897,-11.170135,0.002000,-1.700743,-0.056571
211.000000,0.002000,-0.311671,-0.097339,0.261061,-3.284864,1.208818,0.365030,10.222620,8.394284,-9.459645,0.002000,-0.387690,-0.525531
212.000000,0.002000,0.076054,-0.101632,0.036257,-1.144567,1.485316,1.304075,-10.930176,7.909929,3.530828,0.002000,-0.479536,0.263524
213.000000,0.002000,0.389995,-0.082872,-0.614428,1.197374,-0.726631,2.156672,-8.049938,4.106843,13.037626,0.002000,-0.553455,-1.355864
214.000000,0.002000,1.803533,-1.533363,-0.274811,0.585165,0.139084,0.741843,-2.015434,1.826213,0.299506,0.002000,0.024032,0.011986
215.000000,0.002000,0.721592,-0.694965,-0.311784,-1.760848,1.525694,-2.400123,-6.439520,6.431094,2.369418,0.002000,4.381485,-0.457143
216.000000,0.002000,0.078246,1.037746,0.260178,0.058278,-0.698027,-1.389926,-1.195304,-10.290138,-2.883731,0.002000,0.993252,-0.178043
217.000000,0.002000,0.193103,-1.214497,0.922068,0.208258,1.319324,-1.995281,-0.970599,4.513685,-3.239935,0.002000,0.072844,-0.097339
218.000000,0.002000,0.555815,-2.896268,-2.417035,-1.384783,0.103815,0.261331,-0.186765,0.967796,0.782757,0.002000,0.385956,-0.101632
219.000000,0.002000,-0.334085,0.236766,0.024279,-0.834028,-0.229315,-1.196235,15.395350,-8.830170,-0.095586,0.002000,-0.311671,-0.082872
220.000000,0.002000,-0.500995,-0.554687,-2.512791,0.463206,-0.031772,-0.223211,0.496931,0.584812,2.290705,0.002000,0.076054,-1.533363
221.000000,0.002000,0.939364,-1.516582,-1.192817,1.585624,-0.427159,-1.634668,-1.399170,2.215165,1.611229,0.002000,0.389995,-0.694965
222.000000,0.002000,0.302402,0.067522,0.040483,1.000440,0.924508,-1.620309,-16.089776,1.440882,-1.564101,0.002000,1.803533,1.037746
223.000000,0.002000,0.281671,0.618110,-1.975026,-0.391775,0.303904,1.601943,-0.555312,-0.976122,3.424149,0.002000,0.721592,-1.214497
224.000000,0.002000,-0.005205,-1.962505,1.612231,-0.456513,0.049860,1.861882,-0.055172,1.918302,-1.631444,0.002000,0.078246,-2.896268
225.000000,0.002000,0.095154,-0.511042,1.359991,-1.314495,-0.197453,-0.906394,-0.563413,2.299094,-5.822718,0.002000,0.193103,0.236766
226.000000,0.002000,0.091258,0.108011,-0.766852,-2.001031,-0.923087,-1.861204,-0.881488,-0.961703,14.714945,0.002000,0.555815,-0.554687
227.000000,0.002000,-0.236874,-0.180178,-0.169572,-0.679000,-2.021931,-4.068655,9.194159,14.576228,5.568226,0.002000,-0.334085,-1.516582
228.000000,0.002000,-1.283649,-0.877337,-1.521751,0.390210,0.590020,-2.463666,1.961728,1.465669,2.288611,0.002000,-0.500995,0.067522
229.000000,0.002000,-2.862484,-0.632492,1.263583,0.120356,-2.197654,1.526951,1.555565,0.402709,-0.719228,0.002000,0.939364,0.618110
230.000000,0.002000,3.534318,3.225970,-1.677858,0.654554,0.340667,-0.771383,-0.547470,-0.491261,0.254922,0.002000,0.302402,-1.962505
231.000000,0.002000,0.271208,-0.149736,0.578002,0.457048,2.881835,-3.132484,-7.317552,6.720353,-14.090781,0.002000,0.281671,-0.511042
232.000000,0.002000,-0.270579,-1.618631,-0.825573,0.034328,-0.786236,-0.742793,0.514041,3.770268,1.664445,0.002000,-0.005205,0.108011
233.000000,0.002000,-0.017583,0.504359,0.311343,0.368606,1.728845,3.106132,-1.254877,-14.387231,-12.560722,0.002000,0.095154,-0.180178
234.000000,0.002000,1.226388,-1.703619,-1.422943,0.082548,-1.221542,0.581867,-1.235861,1.771017,1.373370,0.002000,0.091258,-0.877337
235.000000,0.002000,-0.558699,0.380035,-0.070445,4.392138,0.079241,-1.046351,12.477145,-9.807983,-0.572256,0.002000,-0.236874,-0.632492
236.000000,0.002000,-0.462259,-1.836127,1.591408,-1.881966,-1.194762,0.347881,0.521439,1.839093,-1.650177,0.002000,-1.283649,3.225970
237.000000,0.002000,-0.647235,0.149655,0.250975,-1.404998,2.908334,1.701086,15.329611,-1.761136,-6.540368,0.002000,-2.862484,-0.149736
238.000000,0.002000,1.017953,-0.273006,-0.249063,-0.307193,-0.405625,-0.508178,-8.885844,2.966818,1.704227,0.002000,3.534318,-1.618631
239.000000,0.002000,-0.556357,0.637655,0.588613,-2.313477,-1.190882,1.533030,6.084430,-6.318450,-6.145217,0.002000,0.271208,0.504359
240.000000,0.002000,-0.153211,-0.344772,0.254846,-1.374878,-0.118095,-1.108083,3.625121,13.732314,-11.213848,0.002000,-0.270579,-1.703619
241.000000,0.002000,-0.032805,-0.701686,0.092365,-2.084760,2.498936,-0.254384,-0.021427,13.817031,-2.025074,0.002000,-0.017583,0.380035
242.000000,0.002000,-0.760713,-0.797960,-1.400523,1.181502,0.605662,2.568948,1.862185,2.353816,3.389046,0.002000,1.226388,-1.836127
243.000000,0.002000,-0.333696,0.178358,0.419735,1.548555,0.314866,-2.842279,9.846697,-5.315504,-11.223973,0.002000,-0.558699,0.149655
244.000000,0.002000,-0.244190,0.317283,0.333772,-1.958333,-1.356218,0.671203,9.694778,-9.955210,-12.602680,0.002000,-0.462259,-0.273006
245.000000,0.002000,0.171560,4.799421,-10.020125,-0.802734,0.318778,-0.272733,-0.002797,-0.069781,0.146920,0.002000,-0.647235,0.637655
246.000000,0.002000,1.968186,-1.921903,1.087304,-0.003651,-0.173008,-0.017650,-1.306842,1.279134,-0.705975,0.002000,1.017953,-0.344772
247.000000,0.002000,-0.521745,1.480671,1.838840,1.431653,1.443871,0.959047,0.553423,-1.657735,-2.198776,0.002000,-0.556357,-0.701686
248.000000,0.002000,0.117200,0.166634,-0.644580,2.000819,-0.699359,-2.911553,-3.171798,-4.096870,17.148572,0.002000,-0.153211,-0.797960
249.000000,0.002000,0.061802,0.034858,0.000766,-0.426414,3.735668,2.108717,-5.280235,2.260574,-2.026680,0.002000,-0.032805,0.178358
250.000000,0.002000,0.082843,0.116261,-0.556216,-0.691883,2.646986,2.856541,-1.350291,-1.715483,15.505740,0.002000,-0.760713,0.317283
251.000000,0.002000,1.967482,1.070388,1.767821,0.515866,1.548685,0.574801,-1.485333,-0.755861,-1.371457,0.002000,-0.333696,4.799421
252.000000,0.002000,0.565419,0.783682,-0.028325,-0.737909,0.655741,-0.553873,-7.591789,-9.481432,-0.012588,0.002000,-0.244190,-1.921903
253.000000,0.002000,-0.558899,0.092038,-0.002154,0.161571,2.454858,-0.035799,17.728640,-2.074127,-0.627728,0.002000,0.171560,1.480671
254.000000,0.002000,0.854961,0.673748,-0.521894,3.039283,-0.542407,0.943522,-6.454961,-4.511970,3.989139,0.002000,1.968186,0.166634
255.000000,0.002000,0.173012,-0.811104,-0.084983,0.708488,1.041841,2.165327,-2.127787,11.460842,0.741864,0.002000,-0.521745,0.034858
256.000000,0.002000,0.110755,-0.033235,-0.022502,-5.515881,0.144072,-0.898762,-9.870330,6.329427,-0.446964,0.002000,0.117200,0.116261
257.000000,0.002000,1.029658,-0.282023,-0.508012,-1.304277,-0.898821,-0.237606,-6.896174,2.541077,3.490103,0.002000,0.061802,1.070388
258.000000,0.002000,-0.148481,-0.132991,0.491581,0.561878,0.254460,2.185598,3.291135,6.776552,-14.497124,0.002000,0.082843,0.783682
259.000000,0.002000,0.449360,0.494903,-0.493870,0.788496,3.784194,-0.005601,-9.789948,-7.432362,8.779182,0.002000,1.967482,0.092038
260.000000,0.002000,0.308942,-0.879771,1.184217,-0.733834,-2.588187,-0.151395,-1.141567,3.202595,-4.492567,0.002000,0.565419,0.673748
261.000000,0.002000,0.252632,1.277018,0.418497,1.520524,-1.647717,-0.168892,-1.622483,-6.437603,-2.491248,0.002000,-0.558899,-0.811104
262.000000,0.002000,1.167869,-0.027360,-0.566456,-0.512701,-1.505668,2.979361,-6.485537,0.729360,3.023833,0.002000,0.854961,-0.033235
263.000000,0.002000,-0.850129,-0.601842,0.952346,-0.067597,-0.824780,2.002307,4.219558,2.643709,-4.136060,0.002000,0.173012,-0.282023
264.000000,0.002000,0.098858,-0.052502,0.251622,-1.063571,5.059367,-1.925369,-9.152106,7.096832,-13.627813,0.002000,0.110755,-0.132991
265.000000,0.002000,-0.677667,0.680196,-0.627265,-0.212490,0.804851,2.037571,5.961757,-5.163869,5.979959,0.002000,1.029658,0.494903
266.000000,0.002000,0.743623,-0.377931,0.552279,-2.422612,0.620669,-2.917862,-7.318324,4.513294,-5.475831,0.002000,-0.148481,-0.879771
267.000000,0.002000,-1.361239,-0.866484,0.398422,0.925853,-0.239122,0.728972,3.969624,2.766489,-1.167800,0.002000,0.449360,1.277018
268.000000,0.002000,-0.290308,-0.053503,0.169118,-1.779802,3.800595,-1.488847,10.989018,6.601358,-7.679044,0.002000,0.308942,-0.027360
269.000000,0.002000,-0.188495,0.181408,0.511077,1.673399,0.335452,-0.909755,5.685945,-4.777753,-15.221849,0.002000,0.252632,-0.601842
270.000000,0.002000,1.467614,-0.378336,1.383689,0.815989,1.647539,0.793880,-2.532930,0.826247,-2.425763,0.002000,1.167869,-0.052502
271.000000,0.002000,0.432960,0.726956,-0.066603,-0.101838,1.171043,1.311020,-6.568723,-11.662229,1.112990,0.002000,-0.850129,0.680196
272.000000,0.002000,-0.248860,-0.890147,1.347856,-0.543336,3.324791,-0.274328,0.539255,2.820178,-4.624968,0.002000,0.098858,-0.377931
273.000000,0.002000,-0.674065,0.552040,-0.426055,3.291511,-0.138340,-0.637776,8.774580,-6.346125,5.284959,0.002000,-0.677667,-0.866484
274.000000,0.002000,-0.036535,0.400903,-0.301678,-0.428889,1.490084,-0.614184,0.099784,-12.953340,10.478490,0.002000,0.743623,-0.053503
275.000000,0.002000,-0.409164,0.201041,0.209202,2.244196,-1.819318,-2.365289,14.741496,-5.693522,-7.080670,0.002000,-1.361239,0.181408
276.000000,0.002000,0.342511,3.355430,0.719755,-0.163777,-1.651206,-0.736788,-0.149855,-1.540514,-0.338406,0.002000,-0.290308,-0.378336
277.000000,0.002000,0.355915,0.034596,-0.148729,1.535730,-2.465296,-0.232225,-14.589593,1.161192,4.306801,0.002000,-0.188495,0.726956
278.000000,0.002000,-0.320444,0.292335,-0.021248,-1.104273,-1.439700,-0.996954,12.936018,-10.566732,-0.825053,0.002000,1.467614,-0.890147
279.000000,0.002000,0.351875,0.891905,0.061651,-0.619074,-2.125326,1.005553,-4.688155,-10.854139,-1.188469,0.002000,0.432960,0.552040
280.000000,0.002000,0.149863,0.041782,0.158218,-0.647291,-1.063112,-0.103624,-9.331047,2.542503,-8.614720,0.002000,-0.248860,0.400903
281.000000,0.002000,1.001619,0.763736,0.039195,0.660972,1.796165,-1.353312,-6.528900,-4.446146,-0.229087,0.002000,-0.674065,0.201041
282.000000,0.002000,-1.714547,-0.648122,-0.792060,1.450771,-0.607053,-1.954623,3.222563,1.379910,1.551060,0.002000,-0.036535,3.355430
283.000000,0.002000,-0.953052,0.446597,0.412442,1.015794,1.583926,0.302345,8.323728,-3.462749,-3.547097,0.002000,-0.409164,0.034596
284.000000,0.002000,1.071853,3.509420,0.892351,-0.199257,1.934183,1.074793,-0.400928,-1.243394,-0.336924,0.002000,0.342511,0.292335
285.000000,0.002000,-0.999365,0.064511,-0.103697,0.950395,0.880690,0.945699,11.411140,0.250831,0.544998,0.002000,0.355915,0.891905
286.000000,0.002000,1.276038,0.301161,-0.008669,-0.584281,2.818506,0.523154,-7.063490,-1.167326,-0.171778,0.002000,-0.320444,0.041782
287.000000,0.002000,-0.168822,-0.440076,0.291007,-0.164347,0.946311,-0.197393,2.082624,13.091794,-8.274305,0.002000,0.351875,0.763736
288.000000,0.002000,0.077918,0.101246,-0.041141,-1.194621,-3.514060,-1.000557,-6.224174,-1.272820,-0.059764,0.002000,0.149863,-0.648122
289.000000,0.002000,0.256305,0.076414,-0.289217,0.688757,-2.197269,-0.361211,-15.116389,-1.331192,10.690872,0.002000,1.001619,0.446597
290.000000,0.002000,-0.604929,-0.225004,-0.306448,0.491563,0.639474,0.449802,12.684256,5.917960,6.080759,0.002000,-1.714547,3.509420
291.000000,0.002000,1.449903,0.085308,-1.492243,1.937689,-0.884510,-0.384148,-2.553104,0.127050,2.502975,0.002000,-0.953052,0.064511
292.000000,0.002000,0.291219,0.463258,-0.020171,1.852573,-1.792098,1.550318,-9.701436,-13.452256,0.973936,0.002000,1.071853,0.301161
293.000000,0.002000,-0.383604,-0.009950,-0.000450,-1.136695,-3.039188,-1.315183,14.650533,4.742564,-2.735520,0.002000,-0.999365,-0.440076
294.000000,0.002000,-0.487075,0.223012,-0.276676,-1.274423,3.261153,3.322617,14.575007,-7.130274,11.111629,0.002000,1.276038,0.101246
295.000000,0.002000,-0.355684,0.110683,-0.235511,-1.321777,-1.074441,0.780081,13.920941,-3.278021,9.326914,0.002000,-0.168822,0.076414
296.000000,0.002000,-0.464286,0.562520,-0.310506,-1.409290,-0.380132,2.835982,9.648566,-9.529807,5.548484,0.002000,0.077918,-0.225004
297.000000,0.002000,-0.149250,0.245489,-0.054204,2.896784,-0.901990,-2.342869,4.157681,-10.800042,0.153435,0.002000,0.256305,0.085308
298.000000,0.002000,-0.531227,-0.349943,0.049125,-4.385785,-0.905776,-0.443362,10.643094,10.069238,-2.377922,0.002000,-0.604929,0.463258
299.000000,0.002000,-1.834256,0.436224,-1.348914,-1.756363,-0.995018,-1.178124,2.404416,-0.507709,1.765272,0.002000,1.449903,-0.009950
300.000000,0.002000,1.650514,-0.868366,1.491538,1.069105,1.245279,2.016633,-1.913563,1.044968,-1.745892,0.002000,0.291219,0.223012
301.000000,0.002000,-1.396093,-0.289758,1.040269,0.264025,0.449705,0.204170,3.677154,0.853699,-2.653009,0.002000,-0.383604,0.110683
302.000000,0.002000,-0.303633,0.247434,0.082473,0.452460,-3.186832,4.649978,9.080623,-11.440091,-3.484525,0.002000,-0.487075,0.562520
303.000000,0.002000,2.231591,1.661911,-0.477671,0.198288,1.308026,-1.238144,-1.797133,-1.321286,0.359604,0.002000,-0.355684,0.245489
304.000000,0.002000,-0.853784,-0.014739,0.653551,-0.482910,-1.026205,-0.573732,7.884809,0.542993,-5.595614,0.002000,-0.464286,-0.349943
305.000000,0.002000,1.483468,1.563548,-0.626600,-0.266191,-1.957723,0.052839,-2.248355,-2.372776,0.851341,0.002000,-0.149250,0.436224
306.000000,0.002000,-0.040155,0.311351,0.100742,0.486910,1.217512,1.402940,1.326306,-12.912999,-7.497618,0.002000,-0.531227,-0.868366
307.000000,0.002000,0.127000,-0.342565,-0.657208,-0.339932,-1.650357,1.657262,-3.257248,5.893626,11.705457,0.002000,-1.834256,-0.289758
308.000000,0.002000,-0.060011,-1.199219,-0.301872,2.436511,3.248569,0.240170,0.142267,7.061438,1.620477,0.002000,1.650514,0.247434
309.000000,0.002000,0.357748,-0.897476,0.275726,2.792464,-2.248134,1.304189,-3.010259,8.482436,-2.316897,0.002000,-1.396093,1.661911
310.000000,0.002000,-0.266766,0.395210,-0.223445,1.526156,-1.819466,-3.309011,7.915170,-13.033415,6.908946,0.002000,-0.303633,-0.014739
311.000000,0.002000,2.126300,1.614794,-1.742616,-0.666133,0.496480,-0.423821,-1.235136,-0.883286,0.989865,0.002000,2.231591,1.563548
312.000000,0.002000,0.911360,-0.075668,-1.501657,1.588340,0.304200,-0.470538,-2.522608,0.470833,3.940942,0.002000,-0.853784,0.311351
313.000000,0.002000,1.737368,0.047045,1.643380,-0.555448,-1.333334,-0.654117,-2.058071,0.005636,-1.883889,0.002000,1.483468,-0.342565
314.000000,0.002000,-0.479977,0.139956,0.589601,-0.055764,1.699428,-2.436840,8.923303,-1.534181,-11.102746,0.002000,-0.040155,-1.199219
315.000000,0.002000,3.026795,-2.098953,0.301536,-0.962218,0.023414,-0.151921,-1.082557,0.732260,-0.083651,0.002000,0.127000,-0.897476
316.000000,0.002000,0.826248,0.295823,0.403643,-2.452135,-0.869879,1.103736,-9.330148,-2.612595,-4.646225,0.002000,-0.060011,0.395210
317.000000,0.002000,0.831928,-1.043755,0.476208,-0.205285,-0.521939,1.530984,-3.542103,4.548187,-1.972577,0.002000,0.357748,1.614794
318.000000,0.002000,-0.429492,0.816862,-1.252951,0.758780,0.747954,1.053576,1.615624,-2.825314,4.849216,0.002000,-0.266766,-0.075668
319.000000,0.002000,-0.487876,-0.079331,-0.300883,3.013391,1.408573,-1.650990,18.920359,4.977207,8.163785,0.002000,2.126300,0.047045
320.000000,0.002000,0.865965,-3.415302,1.499070,-0.404330,0.224616,-0.979845,-0.291308,1.125000,-0.496325,0.002000,0.911360,0.139956
321.000000,0.002000,-0.461074,-0.339337,0.476712,-1.779810,0.165874,1.402274,8.476124,7.804480,-8.799333,0.002000,1.737368,-2.098953
322.000000,0.002000,0.270522,0.947784,-0.077100,1.663738,-1.665745,0.172973,-4.090882,-12.206178,1.126215,0.002000,-0.479977,0.295823
323.000000,0.002000,0.130722,-0.576399,-0.199927,-0.174671,2.369591,-0.951778,-3.143767,15.176020,4.115724,0.002000,3.026795,-1.043755
324.000000,0.002000,-0.136205,-0.057264,-0.415044,1.700032,-0.632992,-0.494671,4.364308,5.529626,13.637920,0.002000,0.826248,0.816862
325.000000,0.002000,-0.558933,-2.008042,-2.274380,0.583226,1.284757,-1.774050,0.370882,1.232029,1.335128,0.002000,0.831928,-0.079331
326.000000,0.002000,-0.061318,0.427291,-0.062938,-1.236772,-1.418767,-5.129540,1.569511,-13.770462,-2.022481,0.002000,-0.429492,-3.415302
327.000000,0.002000,-0.226073,0.056012,-0.015831,1.189049,0.741077,1.015288,9.132362,-2.601170,-4.786607,0.002000,-0.487876,-0.339337
328.000000,0.002000,-0.260832,0.111806,0.278613,-3.822573,1.458623,0.379081,12.775319,-1.485762,-10.128902,0.002000,0.865965,0.947784
329.000000,0.002000,0.176817,-0.126092,-0.285490,-0.971830,0.543747,0.111720,-11.520788,9.391757,12.278436,0.002000,-0.461074,-0.576399
330.000000,0.002000,0.509496,-0.193554,-0.310468,-1.929479,-1.127854,1.277258,-12.808854,7.020519,6.623476,0.002000,0.270522,-0.057264
331.000000,0.002000,-0.039067,-0.146140,0.149399,0.852550,-2.180996,1.381220,2.175227,13.300804,-10.238879,0.002000,0.130722,-2.008042
332.000000,0.002000,-0.191476,0.206330,0.619389,0.994084,1.059308,-1.068336,3.998606,-4.089818,-14.372802,0.002000,-0.136205,0.427291
333.000000,0.002000,0.487858,-0.081811,1.322215,1.430896,0.503620,-1.381411,-2.204793,0.502264,-6.082660,0.002000,-0.558933,0.056012
334.000000,0.002000,-0.733218,0.935530,0.273744,-0.393826,-0.038796,-1.603099,5.399402,-6.224546,-2.130618,0.002000,-0.061318,0.111806
335.000000,0.002000,0.577334,-0.113426,-0.083852,0.637270,1.018564,1.351323,-13.978015,3.630919,2.161686,0.002000,-0.226073,-0.126092
336.000000,0.002000,-0.320514,-0.252098,-0.354111,0.063121,-1.194400,3.838928,9.736718,10.824435,12.151946,0.002000,-0.260832,-0.193554
337.000000,0.002000,-0.137447,0.695743,-0.231799,1.166936,0.933099,1.836500,2.873634,-15.105026,4.111730,0.002000,0.176817,-0.146140
338.000000,0.002000,1.492557,1.912495,-1.950406,0.804845,-0.306024,1.743669,-0.910956,-1.172150,1.259908,0.002000,0.509496,0.206330
339.000000,0.002000,-0.032832,-0.341613,0.329489,1.972172,-1.402161,0.321090,0.535963,12.428137,-10.209421,0.002000,-0.039067,-0.081811
340.000000,0.002000,2.635273,-0.721492,-0.509340,1.037984,1.139833,0.487772,-2.044647,0.631109,0.402885,0.002000,-0.191476,0.935530
341.000000,0.002000,-0.163375,0.211508,-0.163448,-0.656724,1.672042,-2.734545,7.656641,-12.577022,7.493481,0.002000,0.487858,-0.113426
342.000000,0.002000,2.038263,-2.729570,-0.984135,-0.876946,1.149503,-0.654437,-0.799613,1.100676,0.411000,0.002000,-0.733218,-0.252098
343.000000,0.002000,-0.809569,-0.333821,0.599204,-1.556589,2.059490,0.392622,7.159406,3.441250,-5.369706,0.002000,0.577334,0.695743
344.000000,0.002000,-0.650087,0.264469,-0.238897,0.824422,0.309105,0.897561,14.154603,-4.426991,3.722036,0.002000,-0.320514,1.912495
345.000000,0.002000,0.731509,0.760622,-0.642313,-2.118240,-0.652650,0.163153,-4.894455,-3.785183,4.356399,0.002000,-0.137447,-0.341613
346.000000,0.002000,-1.683863,-0.107893,-2.260275,-0.090998,-1.278493,0.327398,1.283536,0.129570,1.768155,0.002000,1.492557,-0.721492
347.000000,0.002000,-0.150583,1.014853,0.150592,0.825933,-0.092433,4.020875,1.356856,-10.389631,-2.125507,0.002000,-0.032832,0.211508
348.000000,0.002000,0.199991,0.690964,-0.099202,-0.022877,0.935394,0.277264,-4.441649,-15.556636,1.670668,0.002000,2.635273,-2.729570
349.000000,0.002000,-1.019162,-0.613914,-0.291701,0.274453,1.756421,-1.659361,6.925103,4.169708,1.577088,0.002000,-0.163375,-0.333821
350.000000,0.002000,-0.470890,-0.311418,0.102168,-0.313262,1.080368,-3.864681,11.051474,11.988375,-3.054109,0.002000,2.038263,0.264469
351.000000,0.002000,-1.134686,-1.463406,-0.103087,-0.513883,-0.280435,-1.020730,2.468437,3.303788,0.286349,0.002000,-0.809569,0.760622
352.000000,0.002000,-0.393885,-2.175711,-1.024760,1.134128,-0.381343,-2.387763,0.225849,2.384017,1.370994,0.002000,-0.650087,-0.107893
353.000000,0.002000,0.274491,3.083517,1.164967,0.663877,-0.837191,0.041420,-0.157180,-1.587286,-0.614262,0.002000,0.731509,1.014853
354.000000,0.002000,-0.267764,0.023459,-0.429005,-0.926191,-1.334435,2.829823,9.608751,1.656939,14.575666,0.002000,-1.683863,0.690964
355.000000,0.002000,-0.036588,0.066454,-0.290343,-0.881581,-0.884090,-0.278888,6.116529,-1.496597,19.003211,0.002000,-0.150583,-0.613914
356.000000,0.002000,0.492796,0.494608,-0.228958,-0.428111,-0.895628,-0.891951,-11.368191,-9.815810,3.773670,0.002000,0.199991,-0.311418
357.000000,0.002000,0.820494,1.717333,-0.344635,-0.743287,-1.950831,-0.969969,-1.879805,-3.699988,0.772000,0.002000,-1.019162,-1.463406
358.000000,0.002000,-1.116474,0.245435,-0.756692,-0.728444,1.942285,2.183036,5.937636,-0.926333,4.005092,0.002000,-0.470890,-2.175711
359.000000,0.002000,0.735521,-0.200412,0.309933,0.286559,-1.925273,-1.409629,-10.765740,4.230289,-4.912979,0.002000,-1.134686,3.083517
360.000000,0.002000,-0.668419,0.230570,-0.092857,-2.876750,-3.961426,1.528179,15.757286,-3.830152,2.343755,0.002000,-0.393885,0.023459
361.000000,0.002000,0.285805,0.001311,-0.085110,-0.991620,0.564327,-1.660060,-15.326962,2.382524,-3.155143,0.002000,0.274491,0.066454
362.000000,0.002000,-0.284083,0.652655,-0.124858,2.159832,0.246331,1.720712,7.788368,-14.390285,2.210808,0.002000,-0.267764,0.494608
363.000000,0.002000,-0.816494,0.574681,0.586097,0.211497,-0.609869,0.046992,6.902096,-4.925140,-4.516076,0.002000,-0.036588,1.717333
364.000000,0.002000,0.671693,0.556378,0.660479,0.900593,-1.590320,-0.117400,-6.023745,-4.333983,-5.711315,0.002000,0.492796,0.245435
365.000000,0.002000,1.951444,0.045692,4.031843,-0.165778,0.109813,-0.929179,-0.414452,0.014713,-0.864487,0.002000,0.820494,-0.200412
366.000000,0.002000,-0.185188,0.173121,-0.239190,-0.807675,-1.854481,-0.601114,7.720924,-6.634141,12.828341,0.002000,-1.116474,0.230570
367.000000,0.002000,0.123127,0.159610,-0.483471,3.229625,1.146177,-1.888265,-2.142600,-3.295074,14.908426,0.002000,0.735521,0.001311
368.000000,0.002000,-0.021141,1.139128,-0.550190,2.820592,-1.145915,-2.078599,-0.145610,-7.844195,3.952053,0.002000,-0.668419,0.652655
369.000000,0.002000,-0.132924,0.192672,0.483546,-1.952753,-1.848978,0.819408,5.186860,-5.890155,-15.467288,0.002000,0.285805,0.574681
370.000000,0.002000,-0.108744,-0.016730,-0.520336,0.410881,4.248187,0.843396,1.984449,1.473922,17.208648,0.002000,-0.284083,0.556378
371.000000,0.002000,-0.010886,-0.965507,-0.364134,0.483602,-1.862164,-0.143576,-0.336371,9.232124,3.085298,0.002000,-0.816494,0.045692
372.000000,0.002000,-1.767083,-1.775819,3.728183,0.273170,-0.030317,-0.537450,0.359741,0.382315,-0.783500,0.002000,0.671693,0.173121
373.000000,0.002000,-0.364490,-0.355533,-0.930543,3.697856,-0.256425,1.004474,3.409906,4.056084,8.691015,0.002000,1.951444,0.159610
374.000000,0.002000,-1.197569,0.740899,-0.258899,1.576750,-0.327555,2.140308,5.772379,-3.386171,1.064633,0.002000,-0.185188,1.139128
375.000000,0.002000,0.585657,0.001755,-0.233377,-0.995442,-3.851542,3.301779,-14.553659,2.610478,5.094031,0.002000,0.123127,0.192672
376.000000,0.002000,-0.046299,0.219443,-0.144197,0.967970,-1.891558,0.282333,6.343723,-6.686062,9.582337,0.002000,-0.021141,-0.016730
377.000000,0.002000,1.195000,1.666354,-2.103441,0.311827,1.173867,0.311632,-0.858310,-1.179219,1.546525,0.002000,-0.132924,-0.965507
378.000000,0.002000,0.015253,0.905358,2.154526,-0.114795,0.316280,-0.164746,0.028686,-1.262509,-2.840603,0.002000,-0.108744,-1.775819
379.000000,0.002000,-0.241539,0.120065,0.284364,1.277112,0.823568,0.501114,4.643138,-5.243796,-11.963528,0.002000,-0.010886,-0.355533
380.000000,0.002000,0.225068,-0.210012,0.500587,-1.164113,-2.583658,0.811590,-5.726920,7.653794,-13.460146,0.002000,-1.767083,0.740899
381.000000,0.002000,-2.084124,1.821022,0.205983,1.824121,-1.035956,-0.356093,1.752439,-1.488691,-0.123158,0.002000,-0.364490,0.001755
382.000000,0.002000,-0.344111,0.522404,-0.436883,-2.961460,-0.485936,0.287678,7.085280,-9.848293,7.378687,0.002000,-1.197569,0.219443
383.000000,0.002000,-0.327859,-0.164471,-0.221452,0.579856,0.708415,-1.952687,12.613025,10.579640,10.450610,0.002000,0.585657,1.666354
384.000000,0.002000,0.070913,-0.501004,-0.403485,-0.316466,2.471723,2.350071,-2.819065,13.672532,7.797874,0.002000,-0.046299,0.905358
385.000000,0.002000,0.258227,-0.180221,0.068095,-3.095193,2.474628,-0.705580,-12.116473,9.543557,-4.765109,0.002000,1.195000,0.120065
386.000000,0.002000,-0.000998,-0.729412,0.442666,-0.358716,2.248707,-0.372314,-1.010733,10.500182,-6.106609,0.002000,0.015253,-0.210012
387.000000,0.002000,-0.130114,4.706290,-1.118514,-0.373064,-0.560129,0.393688,0.013646,-0.834369,0.200556,0.002000,-0.241539,1.821022
388.000000,0.002000,0.031930,-0.046492,0.087079,0.615255,-3.372403,-3.071737,-1.245282,7.258928,-6.019129,0.002000,0.225068,0.522404
389.000000,0.002000,0.113593,0.904969,1.581960,1.597258,-1.026771,0.825839,-0.313038,-2.061031,-3.951781,0.002000,-2.084124,-0.164471
390.000000,0.002000,-0.215492,-0.331879,0.585196,0.172098,0.183367,-2.111184,4.708316,8.175725,-11.121892,0.002000,-0.344111,-0.501004
391.000000,0.002000,-0.071974,-0.464959,-0.536065,-0.659018,-2.157598,-1.844455,-0.304449,11.070401,9.750058,0.002000,-0.327859,-0.180221
392.000000,0.002000,0.539551,0.167665,-0.005300,1.168812,-2.446744,0.417052,-16.723484,-1.778970,-0.594538,0.002000,0.070913,-0.729412
393.000000,0.002000,0.460141,0.303500,0.149992,2.806142,1.856454,-1.153195,-15.689311,-6.386058,-6.346438,0.002000,0.258227,4.706290
394.000000,0.002000,-0.495817,0.801677,0.146505,2.022132,0.150367,-0.567862,6.636456,-9.577980,-1.822432,0.002000,-0.000998,-0.046492
395.000000,0.002000,-0.062918,-0.022925,-0.265212,0.170539,3.444297,3.955868,3.248683,3.037715,14.942252,0.002000,-0.130114,0.904969
396.000000,0.002000,0.153928,-0.294832,0.011157,0.209334,0.102977,0.909694,-9.615559,15.742026,-4.293064,0.002000,0.031930,-0.331879
397.000000,0.002000,-0.663919,0.343668,0.275467,0.939313,1.091428,0.557889,12.480086,-4.683131,-4.651324,0.002000,0.113593,-0.464959
398.000000,0.002000,-1.228208,-0.817070,0.522732,1.878172,0.740831,-0.261318,4.239168,3.052901,-1.796348,0.002000,-0.215492,0.167665
399.000000,0.002000,-2.632577,0.033104,0.877369,-0.576197,0.532358,0.484379,2.130361,0.072612,-0.685677,0.002000,-0.071974,0.303500
400.000000,0.002000,0.669490,0.304154,0.405122,-0.900105,-4.506858,1.336355,-10.980688,-3.808196,-6.627634,0.002000,0.539551,0.801677
401.000000,0.002000,0.649091,-1.307150,0.467984,0.562991,-2.760184,1.486683,-2.251998,4.578415,-1.505927,0.002000,0.460141,-0.022925
402.000000,0.002000,-0.382441,-0.040687,0.747848,-1.887191,1.424829,1.377586,7.168078,0.516675,-9.281537,0.002000,-0.495817,-0.294832
403.000000,0.002000,-1.159408,-0.572153,1.119442,-0.157534,-1.477710,2.214420,3.254242,1.836130,-3.043744,0.002000,-0.062918,0.343668
404.000000,0.002000,0.129465,-0.160832,-1.288120,-0.599685,-0.933457,-1.506598,-0.681402,1.437971,7.327450,0.002000,0.153928,-0.817070
405.000000,0.002000,0.149941,0.117719,-0.282297,-3.056327,-0.971710,-0.790536,-7.205246,-3.066955,13.742635,0.002000,-0.663919,0.033104
406.000000,0.002000,-0.053998,0.251478,-0.038116,0.712641,0.318485,-2.224167,1.093581,-9.368899,1.399922,0.002000,-1.228208,0.304154
407.000000,0.002000,0.151918,-0.235170,-0.245802,-0.101404,1.376149,1.592996,-8.560996,18.697041,9.857003,0.002000,-2.632577,-1.307150
408.000000,0.002000,0.281795,-0.686945,0.160738,0.049631,-3.189466,0.014379,-4.977351,11.921720,-2.029468,0.002000,0.669490,-0.040687
409.000000,0.002000,0.192065,-0.098432,-0.200191,-2.188036,0.135246,0.831707,-12.860187,8.719768,8.145287,0.002000,0.649091,-0.572153
410.000000,0.002000,-0.037979,0.790090,-1.773435,-0.591601,-0.963340,-0.675639,0.027930,-1.556157,3.797637,0.002000,-0.382441,-0.160832
411.000000,0.002000,0.475566,0.655703,0.941698,-0.762685,0.062781,2.618709,-3.981870,-3.736764,-4.976900,0.002000,-1.159408,0.117719
412.000000,0.002000,-2.322262,3.557051,2.224822,-0.194609,-0.714405,0.071034,0.425716,-0.626399,-0.407617,0.002000,0.129465,0.251478
413.000000,0.002000,-0.492839,0.227454,0.236208,-1.160269,-0.422925,-1.800665,11.927354,-4.128427,-4.283463,0.002000,0.149941,-0.235170
414.000000,0.002000,2.027687,0.253680,1.325272,-1.639810,1.574302,-0.686491,-2.298693,-0.211977,-1.515654,0.002000,-0.053998,-0.686945
415.000000,0.002000,-0.472888,0.476707,-0.793310,1.686241,0.602948,1.348283,5.134312,-4.526094,8.689597,0.002000,0.151918,-0.098432
416.000000,0.002000,-0.742430,-0.563332,-0.108336,-1.056945,0.466064,-1.549758,11.311613,13.012562,0.978279,0.002000,0.281795,0.790090
417.000000,0.002000,0.287304,-2.697900,1.967872,-0.134344,0.168461,-0.679568,-0.148576,1.291482,-0.941525,0.002000,0.192065,0.655703
418.000000,0.002000,0.189938,0.482504,-1.154080,-0.284341,-0.490721,-0.118952,-1.556265,-2.904606,7.630985,0.002000,-0.037979,3.557051
419.000000,0.002000,-0.779415,-0.976706,0.271780,-0.152471,1.158885,4.234083,4.240799,5.668713,-1.473828,0.002000,0.475566,0.227454
420.000000,0.002000,-1.184460,1.662557,0.689233,0.669601,-1.433328,-1.102147,2.013352,-2.674422,-1.111710,0.002000,-2.322262,0.253680
421.000000,0.002000,0.049859,0.039226,0.185207,1.970887,-0.955746,2.239862,-2.710729,4.622599,-10.854173,0.002000,-0.492839,0.476707
422.000000,0.002000,0.089684,0.135717,-0.074623,0.314147,5.486435,-3.446343,-6.317037,-5.291412,5.303135,0.002000,2.027687,-0.563332
423.000000,0.002000,-1.791725,-3.576904,3.140083,0.203599,1.236103,-0.972543,0.265532,0.519931,-0.439295,0.002000,-0.472888,-2.697900
424.000000,0.002000,-0.507630,1.525561,-0.005549,2.085967,-2.412671,1.648007,1.947340,-5.569530,0.358185,0.002000,-0.742430,0.482504
425.000000,0.002000,0.452276,-0.181723,-0.178785,-2.699568,1.299243,-3.451384,-13.971104,7.035521,3.444159,0.002000,0.287304,-0.976706
426.000000,0.002000,0.491296,-0.455561,0.304047,-1.269700,0.460679,-3.515183,-8.775464,9.185144,-5.055013,0.002000,0.189938,1.662557
427.000000,0.002000,-0.729044,0.332837,-0.096145,3.232353,2.444426,1.756625,13.871219,-4.805731,1.949961,0.002000,-0.779415,0.039226
428.000000,0.002000,-0.066463,0.169592,-0.560189,1.993223,-2.559738,-1.532559,6.939724,0.016182,12.130486,0.002000,-1.184460,0.135717
429.000000,0.002000,-0.712943,-0.246023,0.288112,0.176505,2.654157,-0.645425,11.936407,5.453029,-6.217975,0.002000,0.049859,-3.576904
430.000000,0.002000,-1.343621,0.269818,2.191957,-0.157712,0.400223,-1.275327,1.298137,-0.116483,-2.223579,0.002000,0.089684,1.525561
431.000000,0.002000,-0.674309,-0.143004,0.514142,-1.052322,-2.667857,0.665909,9.921165,3.014440,-7.646581,0.002000,-1.791725,-0.181723
432.000000,0.002000,-0.353546,0.669882,-0.256463,-0.653798,3.537879,-1.691133,6.730195,-11.708402,4.903763,0.002000,-0.507630,-0.455561
433.000000,0.002000,-0.315991,-0.165577,-0.097019,-0.714858,-2.559645,1.271423,13.281606,12.541996,-1.086411,0.002000,0.452276,0.332837
434.000000,0.002000,0.584134,2.139327,1.409432,2.234521,-0.358062,-1.198885,-0.536021,-2.009498,-1.381776,0.002000,0.491296,0.169592
435.000000,0.002000,-0.327035,-0.545077,0.507676,0.039517,2.605063,1.876054,4.346388,9.817143,-8.008768,0.002000,-0.729044,-0.246023
436.000000,0.002000,-0.441146,-0.745625,0.730661,2.575131,0.739078,0.689960,3.634027,6.095325,-4.635882,0.002000,-0.066463,0.269818
437.000000,0.002000,-0.342925,-0.519285,0.491803,1.133425,0.712989,-0.610266,6.042008,7.719082,-6.962821,0.002000,-0.712943,-0.143004
438.000000,0.002000,0.235693,-0.448965,0.348984,-0.137807,0.002998,-0.206172,-6.736405,10.687307,-6.457075,0.002000,-1.343621,0.669882
439.000000,0.002000,0.255940,-0.497596,-0.094389,-1.284437,0.362756,-1.907511,-7.416338,13.704058,1.066155,0.002000,-0.674309,-0.165577
440.000000,0.002000,0.204192,0.094211,-0.356995,3.140951,1.189253,0.889379,-12.632690,1.157115,14.671138,0.002000,-0.353546,2.139327
441.000000,0.002000,-0.075823,-0.705108,0.351372,1.697738,1.525012,1.932886,0.490448,12.030477,-4.804408,0.002000,-0.315991,-0.545077
442.000000,0.002000,0.549773,0.733794,-0.169660,0.787987,1.222122,0.595332,-8.148290,-9.666275,2.190920,0.002000,0.584134,-0.745625
443.000000,0.002000,0.015353,1.742394,0.025808,-0.339382,0.224898,-0.798321,-0.354333,-4.884966,-0.191317,0.002000,-0.327035,-0.519285
444.000000,0.002000,-0.159976,0.410554,0.032013,1.014731,-2.920922,0.782171,9.400494,-13.906593,-4.167522,0.002000,-0.441146,-0.448965
445.000000,0.002000,0.299649,0.369662,-0.071650,-1.206902,-1.686049,3.366244,-11.867735,-11.931512,3.111057,0.002000,-0.342925,-0.497596
446.000000,0.002000,0.050387,0.186572,0.067211,3.488907,4.919267,-2.013751,-3.862088,-6.876850,-3.636823,0.002000,0.235693,0.094211
447.000000,0.002000,-0.800780,0.296127,0.750986,0.455274,-0.635175,-0.498860,6.768052,-1.913180,-6.441967,0.002000,0.255940,-0.705108
448.000000,0.002000,-0.137151,0.024352,0.636145,3.831768,-2.454063,-0.239198,2.924732,0.597344,-15.387426,0.002000,0.204192,0.733794
449.000000,0.002000,0.277081,-0.121098,0.268979,-0.709801,-0.186661,0.740725,-13.808346,9.505308,-10.631313,0.002000,-0.075823,1.742394
450.000000,0.002000,-0.169604,0.280966,-1.230669,-0.580391,0.553619,-0.282580,1.019744,-1.230040,7.920956,0.002000,0.549773,0.410554
451.000000,0.002000,-2.540513,-2.439447,4.323206,-0.311967,1.582611,-0.018433,0.280665,0.276184,-0.491368,0.002000,0.015353,0.369662
452.000000,0.002000,-3.710171,-2.352602,0.580897,-1.209965,0.242091,0.446399,0.817367,0.524499,-0.131203,0.002000,-0.159976,0.186572
453.000000,0.002000,0.773524,-0.153763,1.117043,2.687793,-0.675283,1.635132,-3.831467,1.001902,-5.440230,0.002000,0.299649,0.296127
454.000000,0.002000,-0.011442,0.654907,0.179598,1.567925,-2.160590,-1.834349,-0.506080,-17.050191,-7.196116,0.002000,0.050387,0.024352
455.000000,0.002000,-0.819244,-0.791437,-0.233002,-2.411075,-0.237143,-1.330964,5.605661,6.167508,1.327916,0.002000,-0.800780,-0.121098
456.000000,0.002000,0.078612,-0.188635,0.044208,0.709635,-2.078457,-0.650201,-7.044712,16.439397,-3.784264,0.002000,-0.137151,0.280966
457.000000,0.002000,0.248893,-0.921571,2.528513,0.250163,-0.155236,1.108919,-0.210064,0.841721,-2.065321,0.002000,0.277081,-2.439447
458.000000,0.002000,-0.152204,-0.451123,-0.545451,0.052737,-2.215726,1.601149,5.666263,10.783438,13.826983,0.002000,-0.169604,-2.352602
459.000000,0.002000,-0.410651,0.667718,-0.816189,2.240795,-1.166661,-1.824316,3.516350,-5.396212,7.509499,0.002000,-2.540513,-0.153763
460.000000,0.002000,0.071187,0.269904,-0.073157,-2.549347,2.105610,0.040726,-10.440763,-14.570431,10.355445,0.002000,-3.710171,0.654907
461.000000,0.002000,-0.518137,0.177187,0.382508,2.171674,0.573417,3.524151,13.232169,-2.284112,-10.644609,0.002000,0.773524,-0.791437
462.000000,0.002000,-0.797054,-0.076302,-1.261954,-0.179720,0.663281,1.434728,3.291284,0.545918,5.120711,0.002000,-0.011442,-0.188635
463.000000,0.002000,-0.274707,-0.346722,-0.610489,-0.165986,2.741265,0.792983,4.397740,7.409725,11.140235,0.002000,-0.819244,-0.921571
464.000000,0.002000,0.512571,0.175843,-0.129117,0.989074,-3.257828,2.296733,-15.637318,-2.558980,2.307191,0.002000,0.078612,-0.451123
465.000000,0.002000,-0.098496,-0.584682,0.825507,-0.023663,0.063941,-3.751614,0.409094,6.022799,-7.831257,0.002000,0.248893,0.667718
466.000000,0.002000,-0.562395,1.392729,2.318829,0.928280,-0.257674,1.765283,0.470513,-1.149873,-2.004801,0.002000,-0.152204,0.269904
467.000000,0.002000,0.117154,-0.398019,-0.272139,-0.855780,2.019848,0.239111,-5.851995,14.096673,9.310269,0.002000,-0.410651,0.177187
468.000000,0.002000,-0.880090,1.028018,-1.402445,-0.105652,-1.561623,2.645818,1.857272,-2.020986,3.146227,0.002000,0.071187,-0.076302
469.000000,0.002000,-0.089534,0.290842,-0.329738,-0.930448,1.037029,1.526962,3.065710,-8.963286,14.096886,0.002000,-0.518137,-0.346722
470.000000,0.002000,-2.039165,-3.724253,0.430207,-0.525301,0.842746,-0.043799,0.480825,0.912602,-0.100047,0.002000,-0.797054,0.175843
471.000000,0.002000,0.193355,-1.392164,-0.512332,-0.817124,0.807033,1.428400,-0.798221,5.257658,1.864342,0.002000,-0.274707,-0.584682
472.000000,0.002000,1.372621,-0.049878,2.305144,-0.210483,1.451528,1.162558,-1.175662,0.160699,-2.017952,0.002000,0.512571,1.392729
473.000000,0.002000,-14.350439,0.825553,10.367934,-1.376941,-0.303553,0.550876,0.051532,-0.002776,-0.037328,0.002000,-0.098496,-0.398019
474.000000,0.002000,-0.081638,0.177667,-0.761502,2.375834,2.875355,-0.032758,1.100229,-3.859237,14.518965,0.002000,-0.562395,1.028018
475.000000,0.002000,-0.434422,-0.339827,-0.526194,-2.902334,0.549974,-0.448096,7.262465,7.970067,9.840412,0.002000,0.117154,0.290842
476.000000,0.002000,-0.407000,0.507380,-0.833793,-1.568479,-0.860441,-3.516614,3.781778,-4.780091,8.902427,0.002000,-0.880090,-3.724253
477.000000,0.002000,0.546621,0.450648,-0.137916,1.233377,1.649464,2.368491,-12.951855,-9.164490,1.519308,0.002000,-0.089534,-1.392164
478.000000,0.002000,0.494220,-1.256006,0.517406,2.541632,-3.018686,1.031046,-1.958626,5.077436,-1.914685,0.002000,-2.039165,-0.049878
479.000000,0.002000,-0.384804,0.252899,-0.486700,1.759761,-2.975713,-0.956469,9.188646,-5.082143,11.775877,0.002000,0.193355,0.825553
480.000000,0.002000,-1.013008,-1.496119,0.020684,-1.757592,-1.114250,1.208681,2.331399,3.497840,0.185372,0.002000,1.372621,0.177667
481.000000,0.002000,-1.882822,-0.159649,-0.297574,0.246751,-0.990400,1.083218,4.106713,0.374420,0.552778,0.002000,-14.350439,-0.339827
482.000000,0.002000,-0.406785,-0.735551,-0.315353,-2.261791,-1.295215,-3.131398,4.106835,9.974965,4.126218,0.002000,-0.081638,0.507380
483.000000,0.002000,14.582597,-5.394857,-2.544153,0.869319,-0.331375,-0.083905,-0.073971,0.027790,0.012962,0.002000,-0.434422,0.450648
484.000000,0.002000,0.099307,0.072188,0.298868,0.142209,3.327622,2.071962,-5.476900,-0.354837,-15.674278,0.002000,-0.407000,-1.256006
485.000000,0.002000,-0.543475,0.274331,-0.080904,0.948903,-1.792723,-0.036546,16.900172,-6.100406,1.172520,0.002000,0.546621,0.252899
486.000000,0.002000,-0.280868,-0.010243,0.995542,-2.257203,-2.654484,-1.676977,2.678761,0.338485,-9.812585,0.002000,0.494220,-1.496119
487.000000,0.002000,0.667242,2.450203,0.618242,-1.216222,-1.910431,0.916109,-0.431343,-2.468025,-0.586502,0.002000,-0.384804,-0.159649
488.000000,0.002000,-1.365217,0.697649,-1.177387,0.788307,0.016682,2.468171,2.859227,-1.431082,2.545669,0.002000,-1.013008,-0.735551
489.000000,0.002000,-0.194026,0.626387,0.022873,-1.592486,2.187841,-2.874712,4.903399,-16.428564,-2.365670,0.002000,-1.882822,-5.394857
490.000000,0.002000,0.447464,0.431583,-0.310543,0.386778,2.584926,-3.661785,-11.469480,-8.292478,7.663596,0.002000,-0.406785,0.072188
491.000000,0.002000,0.117473,-0.181157,-0.382398,1.681808,-0.545560,0.476967,-5.535110,11.880436,15.574934,0.002000,14.582597,0.274331
492.000000,0.002000,-0.226753,-0.185727,-0.419073,2.086887,0.410534,1.630839,6.967604,7.935471,14.500703,0.002000,0.099307,-0.010243
493.000000,0.002000,1.102506,0.307360,-0.440233,0.277985,-0.130423,-1.893520,-6.885019,-1.434809,2.974763,0.002000,-0.543475,2.450203
494.000000,0.002000,-0.057886,-0.007443,0.303905,1.289181,-1.440510,-1.279955,1.804504,3.120340,-14.110143,0.002000,-0.280868,0.697649
495.000000,0.002000,-0.096024,0.146137,-0.430240,-1.375355,-0.447192,1.393311,2.110196,-3.450882,15.665286,0.002000,0.667242,0.626387
496.000000,0.002000,2.545601,0.727988,-1.230667,1.139656,1.046721,0.049198,-1.819433,-0.396992,0.875364,0.002000,-1.365217,0.431583
497.000000,0.002000,-2.633358,-15.647858,-5.720471,-0.654528,-0.885973,-0.153636,0.010802,0.064789,0.023496,0.002000,-0.194026,-0.181157
498.000000,0.002000,-0.325327,-0.382431,0.347044,0.062700,-2.608377,1.362091,7.550102,10.455857,-8.868125,0.002000,0.447464,-0.185727
499.000000,0.002000,-2.281583,-0.040601,0.751698,0.206826,0.973246,-0.934550,2.650345,0.183071,-0.888132,0.002000,0.117473,0.307360
500.000000,0.002000,0.320222,0.318928,0.225496,2.302609,-1.964573,2.689832,-12.228958,-8.782347,-9.107654,0.002000,-0.226753,-0.007443
501.000000,0.002000,-0.018572,-0.001799,-0.289134,0.379024,-0.024299,-0.604009,2.728131,3.065294,16.436686,0.002000,1.102506,0.146137
502.000000,0.002000,-0.594478,0.422152,-0.468826,-0.035857,-2.761302,1.829239,8.192037,-6.174899,7.804847,0.002000,-0.057886,0.727988
503.000000,0.002000,0.055712,-0.139449,0.423042,-0.052488,-2.850819,-2.404868,-3.212669,9.564024,-15.882263,0.002000,-0.096024,-15.647858
504.000000,0.002000,-0.725946,0.222127,-0.394367,-2.999752,-1.768739,1.608400,12.527101,-3.688138,5.377206,0.002000,2.545601,-0.382431
505.000000,0.002000,0.267868,0.178912,-0.637390,2.151295,1.082029,-3.435917,-6.316443,-2.923692,14.373068,0.002000,-2.633358,-0.040601
506.000000,0.002000,0.068101,0.127342,0.444562,1.268576,1.313606,-3.545971,-2.025724,-1.353246,-16.226548,0.002000,-0.325327,0.318928
507.000000,0.002000,-0.602075,0.218327,0.506054,-0.706419,0.139572,-3.940946,9.647870,-2.943924,-9.095570,0.002000,-2.281583,-0.001799
508.000000,0.002000,2.183284,-1.550466,-0.783078,0.133027,-0.240715,0.747129,-1.709268,1.187934,0.623183,0.002000,0.320222,0.422152
509.000000,0.002000,-0.307429,2.867889,0.121780,0.291346,0.372002,0.538800,0.233412,-2.241870,-0.099978,0.002000,-0.018572,-0.139449
510.000000,0.002000,-0.500850,3.200371,-2.049372,-0.160677,-0.845329,1.196683,0.182216,-1.094548,0.718621,0.002000,-0.594478,0.222127
511.000000,0.002000,4.319986,-1.100316,5.762466,-0.802979,0.848184,0.229958,-0.220166,0.059125,-0.293280,0.002000,0.055712,0.178912
512.000000,0.002000,0.023114,-0.025340,-0.657188,-3.411228,0.691893,-0.054322,-0.706062,3.790088,16.046425,0.002000,-0.725946,0.127342
513.000000,0.002000,0.085288,0.370814,-3.508671,-1.084670,-0.462769,1.210548,-0.052185,-0.129897,1.501643,0.002000,0.267868,0.218327
514.000000,0.002000,-1.401889,0.059172,0.783928,0.074411,1.201290,-0.820520,4.777406,-0.067092,-2.590987,0.002000,0.068101,-1.550466
515.000000,0.002000,0.379383,0.487149,2.783075,0.043595,-0.382207,-0.617249,-0.351470,-0.276484,-2.142565,0.002000,-0.602075,2.867889
516.000000,0.002000,0.313827,0.304072,0.013904,0.827327,-0.489572,1.769526,-13.594257,-10.066371,-1.474897,0.002000,2.183284,3.200371
517.000000,0.002000,0.149501,0.096475,-0.819560,0.794512,-1.926997,0.021017,-2.744401,-0.267564,15.348978,0.002000,-0.307429,-1.100316
518.000000,0.002000,-0.053859,0.399813,0.232728,0.717250,-1.130068,2.019537,1.997238,-12.432369,-11.039276,0.002000,-0.500850,-0.025340
519.000000,0.002000,0.293875,0.626622,0.351777,0.886209,-0.282933,0.211930,-4.418632,-12.057121,-9.202498,0.002000,4.319986,0.370814
520.000000,0.002000,0.382435,-0.495327,0.153111,0.198739,2.330732,-0.850386,-8.684714,11.229295,-2.985950,0.002000,0.023114,0.059172
521.000000,0.002000,0.536943,-0.173197,-0.425816,2.593210,2.937802,-0.052434,-11.037966,5.425820,7.809916,0.002000,0.085288,0.487149
522.000000,0.002000,-0.153922,-0.330499,-0.394897,1.119943,-0.232969,1.491046,2.559812,13.139772,11.098502,0.002000,-1.401889,0.304072
523.000000,0.002000,0.101315,0.354543,0.787361,-2.170761,0.121593,-1.978570,-1.560868,-4.345135,-11.954481,0.002000,0.379383,0.096475
524.000000,0.002000,-1.526152,-1.436078,0.238465,0.974755,1.069090,-0.149891,2.727654,2.215083,-0.764079,0.002000,0.313827,0.399813
525.000000,0.002000,-1.162909,-1.067570,1.400791,-0.835313,-0.906203,0.209606,2.038817,1.498272,-2.243644,0.002000,0.149501,0.626622
526.000000,0.002000,-0.082950,-0.077439,-0.045311,1.472302,-3.496825,1.736541,2.046593,9.002980,0.215591,0.002000,-0.053859,-0.495327
527.000000,0.002000,-0.346822,-0.185414,-0.169688,0.127163,-0.296537,3.406890,9.642100,11.012899,8.723111,0.002000,0.293875,-0.173197
528.000000,0.002000,-2.710743,0.794691,0.588145,-0.174559,-0.432588,1.742489,2.019777,-0.555521,-0.398157,0.002000,0.382435,-0.330499
529.000000,0.002000,0.221831,0.075993,-0.283063,-1.517309,3.807096,-0.975242,-12.630655,-1.938825,11.236721,0.002000,0.536943,0.354543
530.000000,0.002000,-3.542375,-2.756903,-1.264405,0.356940,-0.762851,-0.257693,0.674206,0.530574,0.236161,0.002000,-0.153922,-1.436078
531.000000,0.002000,-0.536700,-0.399950,-1.915424,0.968016,0.110039,0.930832,0.980517,0.812590,3.544707,0.002000,0.101315,-1.067570
532.000000,0.002000,-0.851320,-0.856640,-1.177779,-1.951685,0.872787,1.277174,2.357049,2.712668,3.400945,0.002000,-1.526152,-0.077439
533.000000,0.002000,0.826488,-0.240653,-0.120272,1.306043,2.296107,-3.099988,-11.089182,4.586889,1.547310,0.002000,-1.162909,-0.185414
534.000000,0.002000,0.129786,0.195634,0.121146,2.482809,-1.293300,1.333414,-5.135004,-5.420263,-5.981638,0.002000,-0.082950,0.794691
535.000000,0.002000,1.033057,1.982812,-0.159580,-1.146152,-1.923022,-0.115423,-1.532365,-2.829679,0.165522,0.002000,-0.346822,0.075993
536.000000,0.002000,1.966037,1.118277,1.272932,-0.326098,-0.350343,-0.307051,-1.807623,-1.276868,-1.153254,0.002000,-2.710743,-2.756903
537.000000,0.002000,0.294021,-0.360210,0.822475,-1.742599,-0.955970,-2.091393,-3.779556,5.042433,-9.164081,0.002000,0.221831,-0.399950
538.000000,0.002000,1.362907,2.148166,-1.664031,0.212580,-0.464078,0.075191,-0.868234,-1.437690,1.043996,0.002000,-3.542375,-0.856640
539.000000,0.002000,-1.645360,-1.328214,-0.544247,0.726654,0.255354,-1.175811,2.403431,1.999651,0.768683,0.002000,-0.536700,-0.240653
540.000000,0.002000,0.104539,-0.711999,-0.028484,1.413887,1.211818,0.379693,-1.865096,13.483812,0.458093,0.002000,-0.851320,0.195634
541.000000,0.002000,-1.325294,0.908385,0.572273,-1.553347,0.811516,0.253391,4.013643,-2.406873,-1.674212,0.002000,0.826488,1.982812
542.000000,0.002000,-1.043422,0.013935,0.585815,-2.066741,0.001798,-1.784410,6.723850,0.363641,-3.618167,0.002000,0.129786,1.118277
543.000000,0.002000,0.578465,0.072284,0.730067,1.011040,0.825554,1.027671,-6.717958,0.449574,-8.747632,0.002000,1.033057,-0.360210
544.000000,0.002000,-0.380494,0.491746,-0.213976,-2.090838,-1.097084,0.557328,12.125402,-14.075136,6.009704,0.002000,1.966037,2.148166
545.000000,0.002000,-0.103924,1.204676,0.354801,-1.248118,2.456563,1.612531,0.580761,-8.204387,-2.919930,0.002000,0.294021,-1.328214
546.000000,0.002000,-0.158852,0.140110,-0.504679,1.654728,0.078658,0.728177,3.588381,-2.600516,16.081695,0.002000,1.362907,-0.711999
547.000000,0.002000,-0.248720,0.059518,-0.180657,1.055551,-3.300352,1.652690,11.234204,-3.762748,10.183929,0.002000,-1.645360,0.908385
548.000000,0.002000,-2.524747,0.661306,0.875856,0.849991,0.319647,-0.133560,2.091140,-0.516097,-0.698124,0.002000,0.104539,0.013935
549.000000,0.002000,0.029581,-2.146564,1.404391,-1.810157,-0.071076,0.175211,-0.061388,2.086029,-1.326374,0.002000,-1.325294,0.072284
550.000000,0.002000,-0.352319,0.898508,-0.356588,1.502303,-1.086901,1.321810,4.142363,-10.450680,3.542495,0.002000,-1.043422,0.491746
551.000000,0.002000,-1.990039,-0.872559,-0.036514,-1.623577,-0.224595,1.631398,3.148651,1.312577,0.033242,0.002000,0.578465,1.204676
552.000000,0.002000,0.615279,-0.261191,-0.316049,-0.375370,0.743112,2.803942,-10.319400,6.405026,4.627071,0.002000,-0.380494,0.140110
553.000000,0.002000,-2.386898,1.777618,1.465975,-0.425994,0.374842,-0.896095,1.227829,-0.907334,-0.767782,0.002000,-0.103924,0.059518
554.000000,0.002000,-0.081621,0.196766,0.207263,1.223502,-0.195985,-0.035746,4.464634,-6.505716,-14.228649,0.002000,-0.158852,0.661306
555.000000,0.002000,-0.741441,-0.561278,-0.108103,1.576165,-0.485522,-0.668653,7.761051,5.507237,-0.041409,0.002000,-0.248720,-2.146564
556.000000,0.002000,-0.011719,-0.541057,0.527817,-0.121073,-0.447517,-0.394045,-0.204383,10.090373,-8.876619,0.002000,-2.524747,0.898508
557.000000,0.002000,-0.105400,-0.255986,-0.666649,1.441174,-0.616092,-0.067792,2.324299,5.340776,13.604992,0.002000,0.029581,-0.872559
558.000000,0.002000,-1.089588,1.640297,-0.673233,1.399375,-0.118908,1.841028,1.992521,-2.955716,1.169010,0.002000,-0.352319,-0.261191
559.000000,0.002000,0.889138,0.184574,0.714232,-1.316965,-2.462191,2.437591,-6.760944,-0.703824,-5.537295,0.002000,-1.990039,1.777618
560.000000,0.002000,-0.157248,-2.381327,-0.003671,-0.032174,-0.889407,-1.971089,0.048581,2.735630,0.050864,0.002000,0.615279,0.196766
561.000000,0.002000,0.065852,-0.317650,-0.086894,0.759213,-0.603731,-3.058458,-2.056168,16.804312,3.767445,0.002000,-2.386898,-0.561278
562.000000,0.002000,-0.419858,2.692541,-0.042803,2.122085,-0.214002,-0.058125,0.382259,-2.411284,0.056887,0.002000,-0.081621,-0.541057
563.000000,0.002000,2.012656,-1.255831,0.022763,1.018117,-0.873217,1.111911,-2.314418,1.546217,-0.045433,0.002000,-0.741441,-0.255986
564.000000,0.002000,-0.178173,-0.879484,0.976461,-3.009406,-0.562697,1.631592,0.747697,4.821350,-4.877208,0.002000,-0.011719,1.640297
565.000000,0.002000,-3.788438,0.320294,0.660842,0.475860,0.686134,0.411490,1.259800,-0.093686,-0.203329,0.002000,-0.105400,0.184574
566.000000,0.002000,0.886580,-0.583955,-0.131844,-2.574074,0.991688,1.687976,-7.114151,5.590819,1.114648,0.002000,-1.089588,-2.381327
567.000000,0.002000,0.297252,1.761066,-2.035003,-0.806965,-0.799486,1.020994,-0.259997,-1.543673,1.860859,0.002000,0.889138,-0.317650
568.000000,0.002000,0.072166,-0.331040,-0.373724,0.292656,-0.857140,-0.258755,-3.045418,13.336594,10.000871,0.002000,-0.157248,2.692541
569.000000,0.002000,-0.671545,1.281307,-0.955015,-0.124752,1.006635,1.849267,2.219715,-3.707867,2.829194,0.002000,0.065852,-1.255831
570.000000,0.002000,-3.870370,-0.802023,-1.642370,0.929702,-0.274803,0.740612,0.935845,0.213321,0.396200,0.002000,-0.419858,-0.879484
571.000000,0.002000,-0.156375,0.318281,0.493833,-1.720899,-2.748996,0.678887,4.306328,-7.760940,-14.066752,0.002000,2.012656,0.320294
572.000000,0.002000,1.055311,-1.312240,-1.479864,-0.479557,-1.126519,-1.506621,-1.261014,1.871553,1.902555,0.002000,-0.178173,-0.583955
573.000000,0.002000,-0.165823,0.073529,-0.069170,0.393652,-2.637430,1.865846,14.633549,-1.044708,-0.368379,0.002000,-3.788438,1.761066
574.000000,0.002000,-0.819578,0.232823,0.045288,-0.371329,1.060599,4.066110,13.384275,-1.589898,-1.024105,0.002000,0.886580,-0.331040
575.000000,0.002000,2.634872,-2.358199,-0.724424,0.262893,-0.996413,-0.140489,-1.011190,0.923764,0.278027,0.002000,0.297252,1.281307
576.000000,0.002000,0.028365,0.491128,-0.297633,2.658140,1.882251,1.155623,-1.922527,-13.313242,8.895544,0.002000,0.072166,-0.802023
577.000000,0.002000,0.368861,-0.064295,-0.511409,3.127909,0.432422,-0.082590,-10.345867,3.988938,12.919834,0.002000,-0.671545,0.318281
578.000000,0.002000,-0.452563,-0.732168,-0.901319,-2.503027,-3.389029,0.601912,2.481550,4.923534,5.483984,0.002000,-3.870370,-1.312240
579.000000,0.002000,-0.204073,-1.764308,1.328248,0.248817,1.591295,0.025937,0.123599,2.777311,-2.984365,0.002000,-0.156375,0.073529
580.000000,0.002000,-0.094322,-0.003821,-0.412655,2.693913,-3.783685,-1.912692,3.171636,4.064368,14.528474,0.002000,1.055311,0.232823
581.000000,0.002000,0.554406,0.073595,-0.396317,1.863730,-2.702639,-0.322521,-13.828927,-0.135370,10.406204,0.002000,-0.165823,-2.358199
582.000000,0.002000,0.316949,-0.042488,0.408991,-4.370637,3.851961,-0.798082,-12.581772,5.072481,-12.065451,0.002000,-0.819578,0.491128
583.000000,0.002000,-2.421219,-2.303153,1.522912,-0.138829,0.651010,2.170326,0.944649,0.899565,-0.516842,0.002000,2.634872,-0.064295
584.000000,0.002000,0.127246,-0.205219,-0.120758,-1.109975,0.100595,-3.764789,-6.142935,16.357851,5.700581,0.002000,0.028365,-0.732168
585.000000,0.002000,0.116702,-1.718456,1.137170,1.131739,0.518443,-0.818345,-0.299669,2.912919,-1.912689,0.002000,0.368861,-1.764308
586.000000,0.002000,-0.453094,0.323428,-0.127961,-1.566003,1.630058,-1.061742,16.839493,-8.730992,6.899847,0.002000,-0.452563,-0.003821
587.000000,0.002000,0.955008,-1.795356,1.385446,-1.470400,0.970768,-0.729507,-1.000001,1.918971,-1.452150,0.002000,-0.204073,0.073595
588.000000,0.002000,0.036367,-1.096125,1.051760,-0.000516,0.202683,0.855857,-0.224306,4.167977,-4.110094,0.002000,-0.094322,-0.042488
589.000000,0.002000,-0.027603,-0.981029,-0.778266,0.860992,-0.220086,2.189842,-0.305510,5.796655,4.144051,0.002000,0.554406,-2.303153
590.000000,0.002000,-2.225282,-1.730051,-0.940476,-0.779826,0.270240,-1.184485,1.462118,1.196356,0.626132,0.002000,0.316949,-0.205219
591.000000,0.002000,0.066101,-0.309556,0.086808,-2.152353,0.054278,1.426411,-3.589184,15.928932,-4.739845,0.002000,-2.421219,-1.718456
592.000000,0.002000,0.047031,0.211249,-0.051431,-2.059208,-1.610671,-1.743949,-4.330677,-7.574857,0.943924,0.002000,0.127246,0.323428
593.000000,0.002000,-0.338433,-1.973170,1.573083,-0.172155,0.148937,0.274952,0.257874,1.971942,-1.452710,0.002000,0.116702,-1.795356
594.000000,0.002000,0.250878,1.254848,-2.643646,-0.577053,-1.040616,-0.627601,-0.185127,-0.886995,1.897356,0.002000,-0.453094,-1.096125
595.000000,0.002000,-0.065390,-0.342168,0.006509,3.908903,1.953962,1.010930,2.483556,17.095574,-0.516316,0.002000,0.955008,-0.981029
596.000000,0.002000,0.830162,-2.281210,0.637418,0.264262,1.449985,-0.903550,-0.818940,2.326480,-0.615079,0.002000,0.036367,-1.730051
597.000000,0.002000,0.786251,0.183191,0.516833,-2.726106,3.116919,-0.979658,-9.426697,-0.405495,-4.843283,0.002000,-0.027603,-0.309556
598.000000,0.002000,0.150645,-0.469866,0.402490,0.067472,1.759035,1.933299,-3.450657,10.908359,-8.830716,0.002000,-2.225282,0.211249
599.000000,0.002000,-1.113441,-0.757236,-0.115787,-0.607703,0.389694,1.401289,5.381684,4.091251,0.456725,0.002000,0.066101,-1.973170
600.000000,0.002000,-0.301357,0.078677,-0.650417,0.233820,-1.654451,2.828803,5.841578,-1.486752,13.585980,0.002000,0.047031,1.254848
601.000000,0.002000,0.433573,-0.062110,0.613801,-1.841890,2.625594,1.190785,-8.046941,0.561995,-7.585299,0.002000,-0.338433,-0.342168
602.000000,0.002000,0.409089,-0.702695,0.325803,-1.515306,1.113354,0.166073,-5.439911,8.449518,-3.665348,0.002000,0.250878,-2.281210
603.000000,0.002000,2.067193,-0.405122,-0.097533,-1.612465,-1.121919,-1.098453,-3.414109,0.743892,0.163383,0.002000,-0.065390,0.183191
604.000000,0.002000,-0.131635,0.530632,0.232956,2.391019,1.231839,1.285953,1.095720,-16.376397,-11.381822,0.002000,0.830162,-0.469866
605.000000,0.002000,0.036092,-0.246305,-0.451941,-2.241244,-0.904231,-0.956543,-2.905528,10.239955,14.171397,0.002000,0.786251,-0.757236
606.000000,0.002000,2.755672,-2.760975,0.112385,1.767147,-0.347702,-0.536049,-0.843719,0.861679,-0.045591,0.002000,0.150645,0.078677
607.000000,0.002000,0.877593,0.499267,0.702897,-1.394157,-1.714299,1.247015,-6.016374,-3.193640,-4.887813,0.002000,-1.113441,-0.062110
608.000000,0.002000,-0.053274,-0.196921,0.232699,-0.013500,-0.636864,-3.505780,3.200611,14.904924,-8.533907,0.002000,-0.301357,-0.702695
609.000000,0.002000,-0.233403,-1.327870,0.531100,-0.459679,2.782253,-1.618697,0.795850,5.401136,-1.999386,0.002000,0.433573,-0.405122
610.000000,0.002000,-0.176224,0.477246,-0.514406,1.041007,1.272891,0.412386,3.693382,-9.034704,12.352029,0.002000,0.409089,0.530632
611.000000,0.002000,-0.438277,-0.493406,0.024046,-1.040858,-0.472491,-2.090669,6.849255,12.060105,-1.454031,0.002000,2.067193,-0.246305
612.000000,0.002000,-0.239414,0.272431,0.094009,1.136041,-0.865880,0.420882,8.318746,-10.264166,-7.044290,0.002000,-0.131635,-2.760975
613.000000,0.002000,-0.341275,-0.021201,-0.281711,0.670921,-0.286394,1.117776,13.283966,3.734215,13.240121,0.002000,0.036092,0.499267
614.000000,0.002000,0.338520,-0.046701,0.441531,1.809494,-0.020005,-0.979954,-11.527733,4.654389,-15.084072,0.002000,2.755672,-0.196921
615.000000,0.002000,0.979094,-0.319016,1.475328,-0.251174,-0.865712,-0.883952,-2.359016,0.926209,-3.594418,0.002000,0.877593,-1.327870
616.000000,0.002000,-0.320382,-0.103620,-0.571567,2.114757,-0.447937,-2.221312,7.106750,4.512682,13.862175,0.002000,-0.053274,0.477246
617.000000,0.002000,0.065137,-0.033136,-0.016197,-4.427475,-1.847412,-0.342497,-4.489588,5.525985,-2.163343,0.002000,-0.233403,-0.493406
618.000000,0.002000,-0.268736,-0.151794,-0.138746,2.321603,-0.781706,2.587641,11.623861,13.224339,0.987551,0.002000,-0.176224,0.272431
619.000000,0.002000,1.345323,0.512664,-3.121775,-0.005667,-0.024054,0.172852,-0.625949,-0.200118,1.430363,0.002000,-0.438277,-0.021201
620.000000,0.002000,-0.161557,0.312520,-0.089544,1.423341,-3.618724,-1.973470,9.919914,-12.608953,4.897379,0.002000,-0.239414,-0.046701
621.000000,0.002000,0.067477,0.811565,-0.551783,-0.623853,-0.141692,-2.562513,-0.674903,-10.184526,6.968611,0.002000,-0.341275,-0.319016
622.000000,0.002000,-0.774612,0.530247,0.604284,-0.243725,0.447632,-2.481570,6.370810,-4.367906,-4.779742,0.002000,0.338520,-0.103620
623.000000,0.002000,0.019368,0.404662,-0.193311,-0.438380,-0.422216,-0.892164,-1.364210,-13.833902,7.881427,0.002000,0.979094,-0.033136
624.000000,0.002000,0.148540,0.130607,-0.136911,-1.539131,1.003432,-0.318640,-10.418620,-4.382012,4.172164,0.002000,-0.320382,-0.151794
625.000000,0.002000,-0.699647,1.109276,1.985103,0.426451,-1.080876,-1.511104,0.868974,-1.241160,-2.463673,0.002000,0.065137,0.512664
626.000000,0.002000,-0.704849,-0.343126,0.157787,-0.466417,-2.116845,1.814383,11.553382,7.072547,-3.398679,0.002000,-0.268736,0.312520
627.000000,0.002000,0.123180,0.287614,0.327630,-0.781425,-1.783859,3.159807,-4.575280,-9.632814,-13.262474,0.002000,1.345323,0.811565
628.000000,0.002000,-0.034607,0.373756,-0.736245,2.073029,-2.605153,-0.537328,0.382559,-5.754966,10.181005,0.002000,-0.161557,0.530247
629.000000,0.002000,-0.759686,0.369408,-0.264713,-1.116315,0.251748,3.571760,12.381775,-4.499860,3.417535,0.002000,0.067477,0.404662
630.000000,0.002000,-0.024178,-0.102498,0.538414,1.411656,-0.358479,2.688357,-0.175167,7.398207,-13.958321,0.002000,-0.774612,0.130607
631.000000,0.002000,0.406014,-1.645977,0.347235,1.235540,-1.554893,0.955697,-0.927025,4.270492,-0.766072,0.002000,0.019368,1.109276
632.000000,0.002000,-0.046426,0.455831,-0.111698,2.080822,-2.785486,-0.510818,-2.682051,-17.779715,4.473591,0.002000,0.148540,-0.343126
633.000000,0.002000,-1.712434,3.187732,-1.531594,1.126657,-0.712173,-0.147558,0.559078,-1.011263,0.508409,0.002000,-0.699647,0.287614
634.000000,0.002000,-0.738979,0.545631,-0.041378,-0.113165,-1.208856,0.616699,10.368062,-6.195494,0.019247,0.002000,-0.704849,0.373756
635.000000,0.002000,-0.015436,-0.305778,-0.147419,-2.089019,3.684210,-1.047065,0.414164,19.350741,4.413704,0.002000,0.123180,0.369408
636.000000,0.002000,0.307844,0.202326,-0.162839,2.486644,-0.081989,0.318277,-18.621900,-4.830475,-0.219566,0.002000,-0.034607,-0.102498
637.000000,0.002000,0.594198,0.799863,-0.720846,-0.908571,-1.481137,3.084019,-4.567304,-5.355690,5.059746,0.002000,-0.759686,-1.645977
638.000000,0.002000,-0.738844,-1.156151,-2.328345,0.238491,-0.042530,0.085850,0.580554,1.075326,1.940980,0.002000,-0.024178,0.455831
639.000000,0.002000,0.386302,-0.509192,-1.158580,1.150668,0.794750,1.702259,-2.074124,3.293103,5.877063,0.002000,0.406014,3.187732
640.000000,0.002000,-0.042186,-0.085287,-0.136080,1.096031,-5.286171,-0.558365,0.668718,7.059314,4.770091,0.002000,-0.046426,0.545631
641.000000,0.002000,0.055649,-0.534164,-0.644808,0.962296,-1.785415,0.493423,-1.338019,9.320312,8.627556,0.002000,-1.712434,-0.305778
642.000000,0.002000,0.025850,0.008325,-0.157993,-1.318277,-0.911741,1.038191,-1.579856,3.431700,8.053669,0.002000,-0.738979,0.202326
643.000000,0.002000,-1.016856,-0.865986,-0.435574,-1.145070,2.684791,1.643219,4.612847,4.386704,1.816384,0.002000,-0.015436,0.799863
644.000000,0.002000,0.269754,0.238250,-0.391332,-0.195578,5.272214,0.040409,-9.261635,-5.903984,12.871251,0.002000,0.307844,-1.156151
645.000000,0.002000,0.209663,0.161264,0.316113,0.835595,1.532110,-0.156231,-7.852130,-3.198715,-10.477260,0.002000,0.594198,-0.509192
646.000000,0.002000,1.670228,1.084570,0.778442,-1.392036,-1.072774,-1.264670,-2.821474,-1.669424,-1.380698,0.002000,-0.738844,-0.085287
647.000000,0.002000,-0.148808,0.217835,-1.835216,0.964263,-1.098776,0.828999,0.369266,-0.413728,4.467804,0.002000,0.386302,-0.534164
648.000000,0.002000,0.270209,-0.714718,0.249777,-3.362776,1.226722,-0.109717,-4.466693,11.158225,-3.404044,0.002000,-0.042186,0.008325
649.000000,0.002000,0.150110,0.000057,-0.063638,0.129991,0.877221,-1.077320,-11.199417,4.510094,2.278501,0.002000,0.055649,-0.865986
650.000000,0.002000,-3.839379,-1.040371,1.526718,-0.281027,-1.430661,0.119934,0.950859,0.266266,-0.391067,0.002000,0.025850,0.238250
651.000000,0.002000,0.778272,1.590079,4.015639,-0.856397,0.055847,-0.577466,-0.182371,-0.346903,-0.931569,0.002000,-1.016856,0.161264
652.000000,0.002000,0.384519,0.479850,-0.203133,-2.371851,-0.674082,2.723356,-11.897375,-12.505982,4.131894,0.002000,0.269754,1.084570
653.000000,0.002000,0.807417,-2.371550,0.989000,-0.204008,0.638993,-1.116688,-0.753043,2.044102,-0.901468,0.002000,0.209663,0.217835
654.000000,0.002000,-0.978579,-0.047032,-1.337023,0.200332,0.942506,2.328665,3.215577,0.339763,4.220894,0.002000,1.670228,-0.714718
655.000000,0.002000,0.507660,1.017522,0.538304,-3.103064,2.168159,0.053788,-3.791054,-6.384961,-4.111279,0.002000,-0.148808,0.000057
656.000000,0.002000,0.240889,0.263752,0.439415,-3.726688,-0.398037,-2.526792,-9.381747,-6.810828,-12.362369,0.002000,0.270209,-1.040371
657.000000,0.002000,-0.155221,0.255803,0.310114,-3.476552,0.785062,-0.837802,9.544144,-5.794454,-16.331560,0.002000,0.150110,1.590079
658.000000,0.002000,0.412288,0.303931,0.107257,-0.981659,-0.505373,-0.795268,-11.592395,-9.968343,-8.783550,0.002000,-3.839379,0.479850
659.000000,0.002000,-0.848665,-0.516978,0.074640,-1.467560,-0.170864,1.652797,8.791126,5.960064,-1.524037,0.002000,0.778272,-2.371550
660.000000,0.002000,-0.572678,0.072352,0.162152,0.251656,1.949333,2.849893,15.914648,0.004636,-5.019928,0.002000,0.384519,-0.047032
661.000000,0.002000,1.261166,-0.089846,-0.393187,-2.281184,-0.374734,-0.135930,-6.888402,1.061139,1.948029,0.002000,0.807417,1.017522
662.000000,0.002000,1.194172,-0.644396,-1.407353,0.914637,0.607862,1.464292,-2.325557,1.378964,2.689926,0.002000,-0.978579,0.263752
663.000000,0.002000,-0.735809,-0.248129,-1.137607,-0.990074,-0.313460,0.991474,3.671976,1.682450,5.714732,0.002000,0.507660,0.255803
664.000000,0.002000,0.334449,0.288027,-0.403512,-0.927121,2.180439,0.762680,-10.304970,-7.131564,12.425992,0.002000,0.240889,0.303931
665.000000,0.002000,-0.149102,0.519770,0.214568,3.734649,-1.395223,-0.796979,8.094959,-13.189494,-6.560270,0.002000,-0.155221,-0.516978
666.000000,0.002000,0.122231,-0.174159,-0.252705,-1.274019,-1.615863,3.153531,-0.585246,6.440195,12.931040,0.002000,0.412288,0.072352
667.000000,0.002000,0.178162,-0.131372,0.604334,-0.988743,-1.612780,1.405000,-4.743358,5.049524,-14.954785,0.002000,-0.848665,-0.089846
668.000000,0.002000,0.441850,0.743192,0.807552,0.260835,2.168256,1.944913,-2.943844,-4.805874,-6.929918,0.002000,-0.572678,-0.644396
669.000000,0.002000,0.443869,0.217284,0.691316,1.796080,-0.762194,-1.225045,-5.927050,-2.923708,-9.621714,0.002000,1.261166,-0.248129
670.000000,0.002000,0.321372,0.027710,-0.369429,0.571219,-1.254799,-1.106087,-12.862662,3.179731,11.225406,0.002000,1.194172,0.288027
671.000000,0.002000,-0.281938,0.946709,-0.803529,-0.829505,0.261392,-2.424518,1.979796,-6.053137,5.586805,0.002000,-0.735809,0.519770
672.000000,0.002000,-0.033951,0.335112,0.000712,0.318509,-1.868821,-1.749819,-0.690462,-14.651944,-0.421425,0.002000,0.334449,-0.174159
673.000000,0.002000,-0.003282,1.580724,-2.943804,1.484740,-1.552482,-1.400573,-0.011553,-0.782268,1.505245,0.002000,-0.149102,-0.131372
674.000000,0.002000,-2.056471,3.189906,-1.424191,0.774576,-0.413298,0.849141,0.616962,-0.935216,0.423826,0.002000,0.122231,0.743192
675.000000,0.002000,-0.706632,-0.626036,-0.604351,0.164421,-2.441947,0.201493,5.569522,5.585684,4.773389,0.002000,0.178162,0.217284
676.000000,0.002000,0.006044,-0.109789,-0.112219,-0.154184,3.894586,-2.160548,-8.815356,7.151951,3.846049,0.002000,0.441850,0.027710
677.000000,0.002000,-0.356061,-0.010454,-0.130815,2.892767,-0.029518,-2.229137,17.476297,0.896812,5.070593,0.002000,0.443869,0.946709
678.000000,0.002000,-0.247427,-0.493672,0.389354,-0.051778,2.343281,0.736707,4.694606,9.526779,-8.889607,0.002000,0.321372,0.335112
679.000000,0.002000,1.484039,0.451896,-0.313757,-2.615992,-1.706242,-0.233908,-5.269952,-1.265528,1.212184,0.002000,-0.281938,1.580724
680.000000,0.002000,-0.366117,-0.122925,-0.406181,-3.159949,-4.513024,-1.175085,11.125710,6.324460,13.960888,0.002000,-0.033951,3.189906
681.000000,0.002000,1.022606,0.813310,0.115021,1.595096,-0.214558,1.053710,-6.275877,-4.108606,-0.873501,0.002000,-0.003282,-0.626036
682.000000,0.002000,-0.568299,0.259860,-0.146559,0.167459,1.101484,-0.443387,16.925493,-5.427309,3.016655,0.002000,-2.056471,-0.109789
683.000000,0.002000,-0.554153,-0.014195,0.377463,-5.155890,0.664869,1.311529,12.272962,-0.321669,-9.151711,0.002000,-0.706632,-0.010454
684.000000,0.002000,-1.930575,0.746888,-0.557654,1.241368,-0.560544,0.317149,3.153641,-1.135477,0.824966,0.002000,0.006044,-0.493672
685.000000,0.002000,0.291455,-0.588787,-0.184334,1.902819,0.527754,-0.129275,-5.696405,12.678792,2.785956,0.002000,-0.356061,0.451896
686.000000,0.002000,0.128954,0.224960,-0.371302,-1.762234,2.281701,2.576405,-4.226000,-0.631253,11.249906,0.002000,-0.247427,-0.122925
687.000000,0.002000,-0.093980,-0.909654,-1.635954,-0.015581,0.065122,3.159391,0.075372,2.528156,3.481694,0.002000,1.484039,0.813310
688.000000,0.002000,0.221545,0.509890,0.071812,1.968288,-0.403431,4.361994,-8.879142,-16.930154,-4.325147,0.002000,-0.366117,0.259860
689.000000,0.002000,-1.298684,-0.597134,-1.472552,1.718902,-0.093198,1.522434,2.287165,1.157353,2.597972,0.002000,1.022606,-0.014195
690.000000,0.002000,1.765197,-0.280604,1.435607,-1.579512,0.776322,-0.697456,-2.297128,0.481318,-1.885943,0.002000,-0.568299,0.746888
691.000000,0.002000,-0.477517,0.555604,-0.477525,-3.675710,1.648096,-2.170524,8.440937,-8.189480,7.747605,0.002000,-0.554153,-0.588787
692.000000,0.002000,-0.020222,-0.636925,-0.219379,-0.896633,2.023342,-0.669203,0.043242,12.923725,4.336218,0.002000,-1.930575,0.224960
693.000000,0.002000,0.235616,0.415202,-0.819213,-0.635542,-1.710791,-1.012457,-2.280334,-4.302747,11.041878,0.002000,0.291455,-0.909654
694.000000,0.002000,-0.357606,0.346255,-0.236231,4.460853,-0.666402,1.176149,9.914202,-11.185786,7.834107,0.002000,0.128954,0.509890
695.000000,0.002000,-0.899584,1.629046,0.272692,-1.132478,-1.084531,0.506835,2.271189,-3.854460,-0.659097,0.002000,-0.093980,-0.597134
696.000000,0.002000,2.150889,-0.998124,0.900818,1.431250,-0.884476,0.890941,-2.057110,1.078883,-0.926403,0.002000,0.221545,-0.280604
697.000000,0.002000,0.194236,2.318964,-0.379915,1.342227,-1.867175,1.060756,-0.265981,-2.985464,0.433172,0.002000,-1.298684,0.555604
698.000000,0.002000,-0.268993,0.121119,-0.067920,2.413390,1.037311,1.900837,13.393920,-4.047287,-0.750040,0.002000,1.765197,-0.636925
699.000000,0.002000,0.351518,0.578896,-0.234172,2.083254,2.456627,-0.976194,-9.267778,-12.488413,4.598568,0.002000,-0.477517,0.415202
700.000000,0.002000,-0.916884,-0.484371,-0.809262,-1.943063,0.451555,1.791907,5.101007,3.035015,4.481862,0.002000,-0.020222,0.346255
701.000000,0.002000,0.048672,0.321039,0.216266,2.088603,-0.863133,-1.387517,-4.008149,-10.444697,-11.518574,0.002000,0.235616,1.629046
702.000000,0.002000,-0.778567,0.585250,-0.031924,-0.324263,2.207426,3.745288,11.016102,-6.766682,-0.757518,0.002000,-0.357606,-0.998124
703.000000,0.002000,0.390674,0.843092,-1.385400,0.990275,-0.859462,0.819766,-1.313132,-2.478828,4.531594,0.002000,-0.899584,2.318964
704.000000,0.002000,0.408422,0.213968,-0.187486,-1.250757,4.489925,4.039655,-15.397621,-3.766967,4.881954,0.002000,2.150889,0.121119
705.000000,0.002000,3.014886,-2.641892,8.636190,-0.019109,-0.105324,-0.267387,-0.068563,0.062180,-0.197674,0.002000,0.194236,0.578896
706.000000,0.002000,-1.942845,0.482132,-1.380211,-1.311602,-0.135561,0.149225,2.358674,-0.539418,1.633207,0.002000,-0.268993,-0.484371
707.000000,0.002000,-0.556627,-0.429492,-1.607452,2.271821,0.038169,1.657828,1.437002,1.359644,4.276217,0.002000,0.351518,0.321039
708.000000,0.002000,-0.621721,-0.313948,0.554947,2.229122,1.277897,0.461414,7.922596,5.036569,-7.432255,0.002000,-0.916884,0.585250
709.000000,0.002000,-0.163035,-0.057390,-0.153126,0.290934,-4.965573,0.637002,2.923603,6.090763,0.850300,0.002000,0.048672,0.843092
710.000000,0.002000,0.126222,-0.282537,-0.005268,-0.450591,0.647220,-3.786418,-3.956645,14.770265,-0.505779,0.002000,-0.778567,0.213968
711.000000,0.002000,-2.527796,0.505859,0.540987,1.177785,-0.730991,1.816423,2.370739,-0.392167,-0.455765,0.002000,0.390674,-2.641892
712.000000,0.002000,0.459951,-0.033499,-0.052960,-0.136322,-1.070562,-0.780345,-17.804873,4.837200,1.435721,0.002000,0.408422,0.482132
713.000000,0.002000,0.077192,0.918384,-0.438816,2.848564,-1.929444,1.548405,-0.989451,-10.274040,4.888568,0.002000,3.014886,-0.429492
714.000000,0.002000,0.212221,0.722511,0.509689,-0.801929,-1.854381,-0.260339,-3.231581,-9.565838,-7.517889,0.002000,-1.942845,-0.313948
715.000000,0.002000,-2.156794,-2.471354,0.203516,1.297619,1.815249,-1.128150,1.010043,1.230483,-0.128086,0.002000,-0.556627,-0.057390
716.000000,0.002000,0.034573,1.514965,0.662736,1.215943,1.825338,0.408647,-0.161031,-4.904880,-2.278218,0.002000,-0.621721,-0.282537
717.000000,0.002000,0.518926,0.628872,-0.121491,-2.851615,-2.003457,2.486525,-9.786648,-9.428906,2.898956,0.002000,-0.163035,0.505859
718.000000,0.002000,-2.372375,0.381934,-2.062209,0.086712,1.092812,-0.337665,1.348865,-0.190424,1.212766,0.002000,0.126222,-0.033499
719.000000,0.002000,1.416699,-1.532218,-1.240868,1.619430,0.341346,-0.158096,-1.445185,1.797866,1.040409,0.002000,-2.527796,0.918384
720.000000,0.002000,0.695087,0.410808,0.033338,3.713688,0.865193,-3.045128,-13.724825,-6.219115,-1.944658,0.002000,0.459951,0.722511
721.000000,0.002000,-0.424072,0.048976,-0.214924,-2.810719,1.570026,-0.109242,15.005211,0.305188,7.391104,0.002000,0.077192,-2.471354
722.000000,0.002000,0.180656,0.082607,-0.222155,-2.282674,1.535121,3.803742,-10.869754,-0.937090,13.653990,0.002000,0.212221,1.514965
723.000000,0.002000,-0.122525,0.522845,0.035891,-0.446346,-0.525973,-0.519383,9.085933,-16.091602,-1.375462,0.002000,-2.156794,0.628872
724.000000,0.002000,-0.120504,-0.432134,-4.909323,0.804858,-0.020619,-0.644291,0.015425,0.095874,0.821305,0.002000,0.034573,0.381934
725.000000,0.002000,-0.246272,0.517102,-0.554872,0.072888,-2.082824,-1.202340,4.497477,-8.533820,11.713654,0.002000,0.518926,-1.532218
726.000000,0.002000,0.764242,0.718031,-0.210644,2.802645,2.366429,0.844292,-7.461912,-6.333889,2.178598,0.002000,-2.372375,0.410808
727.000000,0.002000,-1.064299,0.981668,0.288312,-0.902000,-0.187369,1.655904,4.684471,-3.211825,-1.767688,0.002000,1.416699,0.048976
728.000000,0.002000,0.780242,0.513529,-0.142624,0.828764,-1.475646,-2.261716,-10.533403,-5.831824,1.626178,0.002000,0.695087,0.082607
729.000000,0.002000,0.117068,1.031559,-0.219343,-1.080791,0.280035,-0.956485,-1.779449,-10.709909,2.440861,0.002000,-0.424072,0.522845
730.000000,0.002000,0.881542,0.049740,-0.188083,-0.503172,2.660705,-0.389762,-11.550632,0.181634,2.468321,0.002000,0.180656,-0.432134
731.000000,0.002000,-1.113802,0.100462,0.106616,0.739884,-0.823800,-0.544099,9.111211,-0.839190,-0.594148,0.002000,-0.122525,0.517102
732.000000,0.002000,0.066603,0.692618,-0.523338,-2.098097,0.222315,1.639083,-1.040549,-10.140784,9.236903,0.002000,-0.120504,0.718031
733.000000,0.002000,0.537660,1.516998,1.031482,-1.564472,-0.139543,-2.795796,-1.245256,-3.242750,-2.527716,0.002000,-0.246272,0.981668
734.000000,0.002000,0.307333,0.422964,0.218650,0.532425,-2.515145,-0.871167,-10.236304,-11.062097,-7.287395,0.002000,0.764242,0.513529
735.000000,0.002000,1.487995,-0.628021,-0.306406,0.077648,-0.182039,-1.343813,-4.530045,2.143556,0.854290,0.002000,-1.064299,1.031559
736.000000,0.002000,-0.421570,-0.225553,0.379560,-0.078759,-1.442250,0.327553,10.098604,8.002898,-10.077576,0.002000,0.780242,0.049740
737.000000,0.002000,0.174232,-0.021782,-0.475406,0.423154,1.194174,-0.904155,-5.922269,-0.137473,27.592963,0.002000,0.117068,0.100462
738.000000,0.002000,-1.371867,-0.536320,2.892996,0.257121,0.043206,-0.242887,0.704888,0.325416,-1.547505,0.002000,0.881542,0.692618
739.000000,0.002000,0.557140,1.685443,-1.965053,-0.402776,0.600080,-2.405050,-0.534692,-1.534195,1.813653,0.002000,-1.113802,1.516998
740.000000,0.002000,0.046837,0.336077,0.176010,0.467367,-2.280199,-0.056222,-3.240377,-11.926296,-10.690325,0.002000,0.066603,0.422964
741.000000,0.002000,0.316654,0.036160,0.551720,-3.548834,0.893068,-0.109476,-11.174596,1.022413,-14.821291,0.002000,0.537660,-0.628021
742.000000,0.002000,0.120295,-0.077165,0.369977,-1.292861,0.852986,-2.108482,-5.982177,5.556496,-17.853928,0.002000,0.307333,-0.225553
743.000000,0.002000,0.285191,-0.741952,0.788393,0.679460,0.666341,-2.435329,-2.057470,5.729607,-5.546903,0.002000,1.487995,-0.021782
744.000000,0.002000,-0.012203,0.549542,0.244971,-2.354850,-1.166491,-3.424244,-2.470967,-17.552286,-7.438774,0.002000,-0.421570,-0.536320
745.000000,0.002000,0.583096,-1.567479,2.648132,2.109456,-1.238383,0.619361,-0.327677,0.905801,-1.503377,0.002000,0.174232,1.685443
746.000000,0.002000,-0.471521,-1.696632,0.410188,0.611367,1.298692,-0.384279,0.985142,4.042253,-0.757523,0.002000,-1.371867,0.336077
747.000000,0.002000,-0.493038,0.705934,-0.609543,-0.103281,2.867470,3.661482,5.291478,-7.153579,6.460648,0.002000,0.557140,0.036160
748.000000,0.002000,1.351822,-0.084425,0.886062,-2.507369,0.893050,-1.469111,-4.298203,0.587406,-2.923987,0.002000,0.046837,-0.077165
749.000000,0.002000,1.536313,0.595893,2.092954,-1.033072,-0.271315,-1.095055,-1.392763,-0.448311,-1.943062,0.002000,0.316654,-0.741952
750.000000,0.002000,0.303096,0.301771,0.156371,-0.437197,0.850032,1.649743,-14.137825,-9.966939,-7.936576,0.002000,0.120295,0.549542
751.000000,0.002000,0.368538,0.119372,0.391495,-0.157659,-2.246316,3.183430,-13.469926,-2.371006,-12.477292,0.002000,0.285191,-1.567479
752.000000,0.002000,-2.620072,0.812524,-2.019397,-0.144567,-1.281937,-0.782599,1.290550,-0.279757,0.905074,0.002000,-0.012203,-1.696632
753.000000,0.002000,-0.319023,-0.749496,0.161983,-1.276783,-2.633163,0.032917,3.877563,10.994593,-1.735424,0.002000,0.583096,0.705934
754.000000,0.002000,-0.639183,0.535938,0.631487,1.455567,-1.956143,-1.577050,6.395971,-4.822149,-6.420393,0.002000,-0.471521,-0.084425
755.000000,0.002000,0.593364,-0.851347,-0.285978,0.316403,1.107457,3.351115,-4.803665,7.403680,2.005064,0.002000,-0.493038,0.595893
756.000000,0.002000,-0.670597,-0.529953,2.768974,-0.006353,-0.564502,0.418621,0.466983,0.462886,-1.969336,0.002000,1.351822,0.301771
757.000000,0.002000,-0.556052,-0.306623,-1.120706,-0.067348,-0.469434,-0.874947,2.988653,2.299730,6.646082,0.002000,1.536313,0.119372
758.000000,0.002000,-0.102345,-0.067349,0.018804,-2.863637,-0.131791,-0.277120,9.920326,4.772599,-2.160739,0.002000,0.303096,0.812524
759.000000,0.002000,0.415613,-0.167216,-0.213311,-0.197271,3.614261,1.481900,-14.360007,8.203587,4.672397,0.002000,0.368538,-0.749496
760.000000,0.002000,-0.942218,-0.091426,0.176302,-0.659781,3.132947,0.346201,11.587963,2.326931,-2.928547,0.002000,-2.620072,0.535938
761.000000,0.002000,-0.963766,0.052470,-0.288841,-0.867823,-0.330415,2.343321,10.909074,-0.236615,4.337881,0.002000,-0.319023,-0.851347
762.000000,0.002000,-1.111198,0.415329,-0.770962,0.688432,1.175730,1.420989,5.667765,-1.982154,3.800521,0.002000,-0.639183,-0.529953
763.000000,0.002000,0.988273,0.014354,-0.167239,-0.066735,-0.968994,-0.188885,-10.551224,0.491525,1.729237,0.002000,0.593364,-0.306623
764.000000,0.002000,0.175074,-0.058069,0.461490,-2.408343,-0.268486,0.655128,-4.582435,5.935938,-16.106981,0.002000,-0.670597,-0.067349
765.000000,0.002000,2.933744,1.379847,-0.491042,-0.437582,-0.426817,1.538078,-1.583725,-0.712293,0.228329,0.002000,-0.556052,-0.167216
766.000000,0.002000,-0.019195,1.193653,0.203634,0.194364,-1.076239,1.790184,-0.733582,-8.980766,-1.694624,0.002000,-0.102345,-0.091426
767.000000,0.002000,0.262275,0.666932,0.516617,-2.720014,0.622624,0.684950,-3.854244,-8.868016,-8.154408,0.002000,0.415613,0.052470
768.000000,0.002000,-0.011223,-0.898456,-0.142430,0.905609,0.203138,1.565662,-0.219766,10.805604,1.696913,0.002000,-0.942218,0.415329
769.000000,0.002000,-0.106922,-0.118478,0.166016,-0.613883,-1.937229,-0.022801,7.022553,9.111827,-9.150035,0.002000,-0.963766,0.014354
770.000000,0.002000,-0.056981,-0.481129,0.371101,2.537618,1.210941,-1.574974,1.101151,12.495507,-9.318038,0.002000,-1.111198,-0.058069
771.000000,0.002000,2.580769,2.224390,-0.330351,1.229667,0.660643,-0.167564,-1.206578,-1.032386,0.145218,0.002000,0.988273,1.379847
772.000000,0.002000,0.267276,1.568554,0.561997,-0.006187,-0.365652,1.897434,-0.867350,-4.973432,-1.845197,0.002000,0.175074,1.193653
773.000000,0.002000,-0.429573,1.600733,0.259246,-0.600573,0.663031,1.468295,1.555383,-4.960337,-1.553109,0.002000,2.933744,0.666932
774.000000,0.002000,-0.626221,0.285822,-0.503885,-0.136805,0.814502,-1.060044,10.265538,-4.418454,8.278769,0.002000,-0.019195,-0.898456
775.000000,0.002000,0.202123,1.178941,-1.347708,0.399418,-2.121053,2.557355,-0.565563,-3.077277,3.611056,0.002000,0.262275,-0.118478
776.000000,0.002000,-0.932806,-3.937381,1.502882,0.608538,0.209252,-0.711760,0.219289,0.929861,-0.365489,0.002000,-0.011223,-0.481129
777.000000,0.002000,-0.413605,0.323048,-0.576332,-1.129914,-1.543879,2.509507,8.454700,-5.330690,10.577045,0.002000,-0.106922,2.224390
778.000000,0.002000,0.566691,0.434656,0.863004,-1.056722,-0.840261,0.461785,-4.747222,-3.199188,-7.468958,0.002000,-0.056981,1.568554
779.000000,0.002000,-0.608055,-0.571233,-0.065978,2.527488,-0.324362,-1.974215,8.222069,10.489956,0.397239,0.002000,2.580769,1.600733
780.000000,0.002000,-1.854466,0.323525,-0.139562,-1.811422,-0.278684,0.050871,4.327592,-0.570183,0.275059,0.002000,0.267276,0.285822
781.000000,0.002000,0.452862,0.316485,-0.546640,-2.841473,-3.429550,-0.701929,-10.365356,-6.107102,10.906440,0.002000,-0.429573,1.178941
782.000000,0.002000,-0.487867,-0.134083,0.061277,-0.396739,2.140473,-2.117713,15.677228,7.232348,-4.425018,0.002000,-0.626221,-3.937381
783.000000,0.002000,1.789115,0.322629,-1.157811,2.296895,0.536076,-0.902904,-2.903221,-0.330462,1.864179,0.002000,0.202123,0.323048
784.000000,0.002000,-0.202641,-0.270176,0.456681,1.562460,-1.211725,2.398401,4.973823,9.542588,-11.915964,0.002000,-0.932806,0.434656
785.000000,0.002000,0.215823,-0.184208,-0.693676,-2.303935,3.945417,-2.320152,-3.562935,5.301686,12.295756,0.002000,-0.413605,-0.571233
786.000000,0.002000,1.968847,-0.736012,0.067304,-0.500448,0.743323,-1.421878,-3.176233,1.206168,-0.072346,0.002000,0.566691,0.323525
787.000000,0.002000,-0.829451,3.299096,2.546897,0.007087,0.564463,-0.692162,0.211816,-0.834397,-0.666800,0.002000,-0.608055,0.316485
788.000000,0.002000,-0.460617,0.057570,-0.510406,0.236784,-3.684482,0.059904,9.995030,0.433231,12.427900,0.002000,-1.854466,-0.134083
789.000000,0.002000,-0.323996,0.074468,0.253254,2.147221,-1.650261,0.146457,16.317347,1.065003,-10.805122,0.002000,0.452862,0.322629
790.000000,0.002000,0.120405,0.837814,0.764483,0.038231,0.261089,-1.935481,-0.455490,-6.729275,-7.497555,0.002000,-0.487867,-0.270176
791.000000,0.002000,2.330987,0.361115,-2.993220,0.462138,-0.425852,0.095631,-0.799302,-0.089467,1.015098,0.002000,1.789115,-0.184208
792.000000,0.002000,-0.506878,-0.322922,-0.255236,0.871133,-2.956711,1.587825,12.260686,9.676892,5.243820,0.002000,-0.202641,-0.736012
793.000000,0.002000,0.071709,-0.049015,0.260838,-1.393670,4.125932,-1.048398,-4.677695,8.356877,-14.310571,0.002000,0.215823,3.299096
794.000000,0.002000,0.550996,0.191782,0.594198,1.766384,2.244425,1.529766,-9.087532,-1.928773,-8.259274,0.002000,1.968847,0.057570
795.000000,0.002000,-0.531261,2.040588,-2.017404,0.475951,-1.195446,0.083173,0.535581,-1.466263,1.576456,0.002000,-0.829451,0.074468
796.000000,0.002000,-0.602123,1.185113,1.068930,1.314604,-0.279904,-1.506345,1.730308,-3.382727,-3.361247,0.002000,-0.460617,0.837814
797.000000,0.002000,-0.139330,-0.041054,0.331085,0.692818,1.059288,0.372304,9.613535,5.857053,-14.337624,0.002000,-0.323996,0.361115
798.000000,0.002000,-0.184945,0.448844,-0.332030,3.285113,0.352920,-0.148914,4.261940,-11.233381,10.205410,0.002000,0.120405,-0.322922
799.000000,0.002000,1.430775,-1.195095,1.225307,-0.763807,-0.640088,-1.324821,-1.935631,1.706417,-1.630078,0.002000,2.330987,-0.049015
800.000000,0.002000,-0.117983,-1.017138,0.350549,-1.721269,0.050231,1.214951,0.790183,8.416649,-2.871277,0.002000,-0.506878,0.191782
801.000000,0.002000,0.077789,0.563597,0.223541,0.344592,-0.292635,-1.513784,-2.971154,-16.148905,-6.725210,0.002000,0.071709,2.040588
802.000000,0.002000,0.188870,-0.281783,0.009994,0.608668,2.318270,-0.070469,-11.739980,14.388106,-2.645551,0.002000,0.550996,1.185113
803.000000,0.002000,-1.387995,0.156256,0.516818,-1.571939,1.183542,1.165902,5.782079,-0.472133,-2.148771,0.002000,-0.531261,-0.041054
804.000000,0.002000,0.062652,0.151558,-0.343937,-4.067699,2.032934,0.683754,-1.312622,-5.205893,15.008361,0.002000,-0.602123,0.448844
805.000000,0.002000,0.682160,-0.166602,0.374141,-0.679389,2.332263,0.722330,-5.818296,-0.038531,-9.373322,0.002000,-0.139330,-1.195095
806.000000,0.002000,0.055361,1.554643,4.783625,-0.153136,0.265271,1.117032,-0.008942,-0.226374,-0.745484,0.002000,-0.184945,-1.017138
807.000000,0.002000,0.248163,-0.079557,-0.074987,0.463995,3.026094,-2.438904,-13.776345,6.984703,2.310235,0.002000,1.430775,0.563597
808.000000,0.002000,0.066474,0.154176,0.653231,0.516399,2.026985,-0.202952,-2.396902,-3.324804,-16.654884,0.002000,-0.117983,-0.281783
809.000000,0.002000,0.696518,-0.046182,0.167831,1.869931,-1.539678,-1.629862,-13.095530,1.568887,-2.627036,0.002000,0.077789,0.156256
810.000000,0.002000,-0.053188,0.483414,0.223780,0.923892,-1.218872,-1.024991,-1.122557,-16.398818,-8.981466,0.002000,0.188870,0.151558
811.000000,0.002000,-0.326462,0.795050,-1.389713,-0.207365,1.775197,-0.281264,0.971377,-2.319286,4.548564,0.002000,-1.387995,-0.166602
812.000000,0.002000,-0.801619,-0.019385,-0.708778,-0.430357,0.444831,1.785469,7.723921,0.640932,6.627661,0.002000,0.062652,1.554643
813.000000,0.002000,-0.069170,0.183284,-0.006662,4.497800,-2.128190,-2.636863,4.820712,-9.720639,-2.107592,0.002000,0.682160,-0.079557
814.000000,0.002000,-0.029773,-0.047932,-0.378480,0.989330,4.430169,2.517223,2.699474,4.606560,11.140242,0.002000,0.055361,0.154176
815.000000,0.002000,-0.153286,-1.165624,0.217093,0.546774,-0.947949,-0.083463,0.566569,7.978438,-1.189525,0.002000,0.248163,-0.046182
816.000000,0.002000,-0.203945,-0.373534,0.434912,1.992569,-1.895741,1.264189,5.364761,10.656078,-10.188656,0.002000,0.066474,0.483414
817.000000,0.002000,-0.352958,-0.047133,-1.616975,-1.097306,0.275921,-1.806755,1.079153,0.423833,5.055766,0.002000,0.696518,0.795050
818.000000,0.002000,-0.162629,1.397165,-0.805450,2.838251,-2.213311,-0.044633,0.500510,-4.974209,2.887182,0.002000,-0.053188,-0.019385
819.000000,0.002000,0.039553,0.142342,-0.615942,2.619180,-1.351277,2.319845,2.188567,-2.592457,19.251075,0.002000,-0.326462,0.183284
820.000000,0.002000,-1.697748,0.519454,1.214716,0.799513,-0.061572,0.385775,2.657816,-0.724107,-1.866370,0.002000,-0.801619,-0.047932
821.000000,0.002000,0.849930,-1.629209,-1.316517,1.015735,0.057454,-0.687355,-1.358401,2.252060,1.593514,0.002000,-0.069170,-1.165624
822.000000,0.002000,-2.961665,0.986504,1.713082,1.300123,-0.577121,-0.429046,1.259145,-0.411512,-0.666524,0.002000,-0.029773,-0.373534
823.000000,0.002000,0.295174,0.019864,2.176183,-0.075108,0.847131,1.159221,-0.481364,0.092581,-3.165193,0.002000,-0.153286,-0.047133
824.000000,0.002000,-0.019125,0.033977,0.628441,-0.758746,1.914707,2.379509,0.315853,0.759849,-15.600599,0.002000,-0.203945,1.397165
825.000000,0.002000,-0.225140,1.134000,2.285376,2.767340,0.552333,0.986636,0.205572,-1.116841,-2.404057,0.002000,-0.352958,0.142342
826.000000,0.002000,-0.125385,-0.173120,-0.222853,2.886362,-0.480122,1.878134,1.904211,12.936555,11.528111,0.002000,-0.162629,0.519454
827.000000,0.002000,0.167085,-1.016392,-0.028137,-1.339525,1.062566,-0.869817,-1.500748,9.363574,0.082633,0.002000,0.039553,-1.629209
828.000000,0.002000,0.274309,-0.324289,0.083924,-1.901388,-1.103258,3.627157,-10.197434,15.903101,-5.195565,0.002000,-1.697748,0.986504
829.000000,0.002000,1.424364,1.338700,2.286248,0.607492,0.306865,-0.878866,-0.961788,-0.838559,-1.505091,0.002000,0.849930,0.019864
830.000000,0.002000,0.494026,0.239659,1.182328,-0.660299,0.487153,-2.008334,-2.704861,-0.990804,-6.977290,0.002000,-2.961665,0.033977
831.000000,0.002000,-0.424357,0.832191,-0.334545,1.055046,-0.090094,2.901151,6.060960,-10.703975,3.834504,0.002000,0.295174,1.134000
832.000000,0.002000,-0.068088,-0.148089,-0.053823,-4.017006,0.223476,-2.345885,1.522855,21.988160,-0.279609,0.002000,-0.019125,-0.173120
833.000000,0.002000,0.280673,0.445624,-0.378989,-0.715563,-2.094105,2.804802,-8.735822,-10.614180,10.432862,0.002000,-0.225140,-1.016392
834.000000,0.002000,0.140011,-0.180027,-0.091084,-3.459302,-0.208020,3.444161,-0.276379,12.738972,5.784554,0.002000,-0.125385,-0.324289
835.000000,0.002000,-2.322647,-2.049177,-1.794024,-0.668893,0.648848,0.412208,0.911122,0.855394,0.719686,0.002000,0.167085,1.338700
836.000000,0.002000,2.643793,1.752814,1.654578,-0.937699,-0.915118,-0.242207,-1.102221,-0.670275,-0.661729,0.002000,0.274309,0.239659
837.000000,0.002000,-0.839462,-0.204687,-0.949118,2.006075,0.389705,0.102556,6.232975,5.146059,6.750652,0.002000,1.424364,0.832191
838.000000,0.002000,-0.283031,0.159137,-0.231422,3.282435,-0.118559,-2.744275,9.960934,-7.106981,9.267649,0.002000,0.494026,-0.148089
839.000000,0.002000,0.313051,-0.381617,-0.232972,0.679417,-1.382927,-0.848480,-10.315966,14.311232,5.065804,0.002000,-0.424357,0.445624
840.000000,0.002000,0.156260,0.036118,-0.442265,3.158939,-3.927089,0.222067,-8.576149,-3.215932,14.862524,0.002000,-0.068088,-0.180027
841.000000,0.002000,0.447127,-0.046276,0.124079,0.849867,1.802529,3.937919,-16.997192,4.147758,-4.339090,0.002000,0.280673,-2.049177
842.000000,0.002000,0.113322,0.079137,-0.077151,-1.497329,1.762957,1.252986,-10.948956,0.204479,3.959634,0.002000,0.140011,1.752814
843.000000,0.002000,-0.104441,0.098051,-0.057948,1.663806,-1.157942,1.147255,3.427354,-4.396973,1.508048,0.002000,-2.322647,-0.204687
844.000000,0.002000,0.558436,0.223324,0.764528,-1.980644,-0.894439,-1.248134,-6.302857,-1.868480,-8.861037,0.002000,2.643793,0.159137
845.000000,0.002000,-0.066026,-1.743939,-0.257089,-1.908557,2.133151,-1.173655,0.095117,4.186964,0.743876,0.002000,-0.839462,-0.381617
846.000000,0.002000,-0.196922,0.244369,-0.369406,-2.155516,-1.028676,0.196340,7.264948,-7.168144,13.991528,0.002000,-0.283031,0.036118
847.000000,0.002000,0.012762,-2.209204,2.040538,0.509130,0.585792,-0.773696,-0.027024,1.377039,-1.319317,0.002000,0.313051,-0.046276
848.000000,0.002000,-0.153578,0.798546,-0.403985,1.127316,-0.565567,1.744553,0.667471,-12.021303,4.807903,0.002000,0.156260,0.079137
849.000000,0.002000,0.167609,-0.716560,0.859297,-2.771829,-2.545872,1.743893,-1.204579,5.505842,-6.297551,0.002000,0.447127,0.098051
850.000000,0.002000,-0.621807,0.543860,-0.001448,-0.859594,-0.611075,0.768995,10.766092,-9.551279,-0.640707,0.002000,0.113322,0.223324
851.000000,0.002000,0.171323,0.180427,0.127521,2.767238,2.782626,-2.700652,-5.700281,-5.528757,-3.628746,0.002000,-0.104441,-1.743939
852.000000,0.002000,0.423383,-0.164590,-0.540878,1.671390,1.547066,1.357161,-9.143884,5.844798,10.970433,0.002000,0.558436,0.244369
853.000000,0.002000,0.149272,0.423586,-0.098744,2.458492,-1.522375,-2.008353,-7.718701,-16.121077,2.909433,0.002000,-0.066026,-2.209204
854.000000,0.002000,-0.512477,-0.235449,-0.344168,2.254358,-0.557075,-1.395525,12.275911,7.740429,8.196084,0.002000,-0.196922,0.798546
855.000000,0.002000,-0.065950,-0.727919,-0.453531,-3.174863,1.488564,0.567998,0.980635,10.412654,4.577822,0.002000,0.012762,-0.716560
856.000000,0.002000,-0.319152,0.299998,-0.153966,0.114522,0.409060,2.292938,7.577253,-15.385961,9.112341,0.002000,-0.153578,0.543860
857.000000,0.002000,0.948363,-0.003377,-0.036026,0.680756,-0.226490,-1.513665,-12.176081,0.557385,0.134173,0.002000,0.167609,0.180427
858.000000,0.002000,0.108687,0.241522,-0.999402,1.147471,0.358930,0.638771,-1.214175,-1.939935,10.558013,0.002000,-0.621807,-0.164590
859.000000,0.002000,0.993269,-0.565711,0.096814,-1.410328,2.989721,-2.009288,-7.269055,4.552713,-0.672859,0.002000,0.171323,0.423586
860.000000,0.002000,0.293259,-0.057708,0.281303,-1.754956,1.656381,1.559964,-13.164739,6.595408,-10.113218,0.002000,0.423383,-0.235449
861.000000,0.002000,3.011158,0.788833,0.698221,0.644201,-1.771448,0.924302,-1.706398,-0.366539,-0.388738,0.002000,0.149272,-0.727919
862.000000,0.002000,0.094069,-0.110960,0.330044,2.626202,-2.021614,1.079387,-5.364249,11.914835,-11.411973,0.002000,-0.512477,0.299998
863.000000,0.002000,-2.214182,0.065653,0.318798,0.989396,0.960834,-0.648730,3.119211,0.007795,-0.442449,0.002000,-0.065950,-0.003377
864.000000,0.002000,-3.096569,0.893477,3.569942,-0.770226,-0.464901,0.725897,0.546819,-0.143717,-0.639641,0.002000,-0.319152,0.241522
865.000000,0.002000,-0.770184,1.472651,0.278539,1.003454,-0.895078,-2.607696,2.755896,-4.524504,-0.896898,0.002000,0.948363,-0.565711
866.000000,0.002000,-0.699996,-0.163082,1.079198,0.302190,-0.714170,-1.025733,3.803619,1.018514,-6.115047,0.002000,0.108687,-0.057708
867.000000,0.002000,-2.116266,0.462932,-1.348679,-1.245710,0.456829,-0.949110,2.237470,-0.394659,1.327607,0.002000,0.993269,0.788833
868.000000,0.002000,-0.334848,0.669869,0.784568,0.655096,-1.257851,2.929258,3.304580,-6.616101,-7.964773,0.002000,0.293259,-0.110960
869.000000,0.002000,-0.155026,0.328849,-0.006877,1.159593,-1.900068,-4.025620,12.832081,-11.749507,-1.461816,0.002000,3.011158,0.065653
870.000000,0.002000,0.572285,0.950202,-0.926010,-0.403228,1.098956,0.462189,-2.794555,-4.400925,4.479138,0.002000,0.094069,0.893477
871.000000,0.002000,-0.424117,0.434383,0.152260,-0.884892,2.070113,-0.659749,14.428657,-11.003704,-3.041811,0.002000,-2.214182,1.472651
872.000000,0.002000,0.120959,-0.862796,-3.243343,0.169134,0.261999,-0.177277,-0.059127,0.413795,1.554115,0.002000,-3.096569,-0.163082
873.000000,0.002000,1.152411,1.391349,1.570085,-0.785971,-0.889236,-1.284962,-1.459780,-1.548400,-1.945447,0.002000,-0.770184,0.462932
874.000000,0.002000,2.720450,2.436074,1.284998,-0.726175,-0.716611,-0.654529,-0.907303,-0.803484,-0.427265,0.002000,-0.699996,0.669869
875.000000,0.002000,2.216625,1.294163,-0.933036,-0.480051,-0.580114,-0.000301,-1.911823,-1.028445,0.910450,0.002000,-2.116266,0.328849
876.000000,0.002000,-0.111756,-0.087504,-1.493745,-0.537265,0.141177,0.383325,0.451051,0.749318,5.797959,0.002000,-0.334848,0.950202
877.000000,0.002000,3.162201,0.374936,-0.792268,0.455979,0.082096,-0.803229,-1.632066,-0.106607,0.398320,0.002000,-0.155026,0.434383
878.000000,0.002000,0.148701,0.107521,0.459623,4.503162,1.392876,2.744027,-4.347598,-0.619202,-16.457464,0.002000,0.572285,-0.862796
879.000000,0.002000,0.536101,0.344252,-0.268785,-1.748633,0.567481,-0.522694,-13.221503,-4.941126,5.677980,0.002000,-0.424117,1.391349
880.000000,0.002000,0.270146,0.066968,0.104462,-0.595746,1.029817,6.216081,-16.958716,1.289210,-6.195821,0.002000,0.120959,2.436074
881.000000,0.002000,0.050578,-0.004535,0.258672,0.504876,-0.623569,0.983885,-7.249054,-2.459440,-10.507512,0.002000,1.152411,1.294163
882.000000,0.002000,-0.199134,-0.517156,-0.627083,0.640850,-4.124237,2.041954,3.279351,8.916288,8.630494,0.002000,2.720450,-0.087504
883.000000,0.002000,-0.128223,0.087280,0.559807,2.143832,-0.914968,-2.517693,3.246347,-0.700252,-15.941465,0.002000,2.216625,0.374936
884.000000,0.002000,0.039565,-0.129856,0.787616,0.031144,0.000593,0.915032,-1.285630,3.250887,-13.100241,0.002000,-0.111756,0.107521
885.000000,0.002000,-0.826013,0.021594,0.619542,-3.984468,-0.923623,1.046969,8.009612,-0.105007,-5.795304,0.002000,3.162201,0.344252
886.000000,0.002000,1.223954,-0.214905,0.065830,-0.615026,-1.402357,-1.115152,-7.341099,1.709665,-0.084199,0.002000,0.148701,0.066968
887.000000,0.002000,0.140935,0.704896,-0.667060,-1.544480,-1.396867,1.357307,-1.780081,-8.333825,8.405118,0.002000,0.536101,-0.004535
888.000000,0.002000,0.063929,0.548521,-0.056366,2.280770,-5.223101,-0.933888,-1.363702,-18.919291,3.997309,0.002000,0.270146,-0.517156
889.000000,0.002000,-0.007193,0.103425,-0.238242,-1.444388,-1.712912,-0.300973,2.711468,-4.903628,12.105727,0.002000,0.050578,0.087280
890.000000,0.002000,2.158443,-2.058090,-3.447828,0.442627,0.280457,0.453939,-0.439168,0.434723,0.687318,0.002000,-0.199134,-0.129856
891.000000,0.002000,-0.296306,-0.933487,-1.229042,-1.499851,0.734850,-0.915644,0.771580,3.368222,3.987418,0.002000,-0.128223,0.021594
892.000000,0.002000,0.305192,0.197725,-0.024955,1.140662,-0.608051,-2.560753,-15.609218,-4.886078,-0.683387,0.002000,0.039565,-0.214905
893.000000,0.002000,1.749523,1.202357,-1.106999,-0.350874,-2.562524,0.455464,-2.199925,-1.507490,1.375242,0.002000,-0.826013,0.704896
894.000000,0.002000,-0.013719,-0.089941,-0.577289,1.372777,-2.810865,-0.680367,5.202499,5.667205,18.793017,0.002000,1.223954,0.548521
