# 
#                 columns are tag, mass, x, y, z, vx, vy, vz, ax, ay, az, EK, EU, E
#                 Time=2.000000
# 
1.000000,0.002000,-1.623126,0.691929,0.626780,-1.260563,1.675148,2.117609,3.591114,-1.650490,-1.367227,79.117597,-162.202617,-83.085020
2.000000,0.002000,-1.295576,1.507207,-3.461370,-1.822928,-0.942995,-0.085178,0.407622,-0.471098,1.087370,0.000000,0.000000,0.000000
3.000000,0.002000,-0.938204,1.002758,-0.392974,1.661310,-1.012610,0.269623,4.749060,-4.319390,1.865865,0.000000,0.000000,-0.317774
4.000000,0.002000,0.316207,1.099249,0.411412,-0.420909,0.557390,-2.103185,-2.375823,-7.231140,-2.813366,0.000000,0.000000,0.917901
5.000000,0.002000,0.367003,0.155839,-0.351019,0.620214,-0.165652,2.133210,-11.699494,-5.306991,13.228935,0.000000,0.000000,1285098644756593868722180226592911823027582392211497121655285657389153986095479296671809694563973878148305545404257399611252431708992004983907369210833578147307708186104030680081533978201319729294622064640.000000
6.000000,0.002000,-0.332351,-0.502278,-0.114624,2.211575,-0.299809,2.281769,8.341878,13.076509,2.571875,0.000000,0.000000,10017992556444964113854777657642645076961298569512442127129247744.000000
7.000000,0.002000,-0.108981,-0.211822,1.003460,-0.202145,-2.952376,3.078299,1.079787,1.340537,-9.298660,0.000000,-1.623126,2810867218875871032926269461158049053531539256846214856646974666960856751800320.000000
8.000000,0.002000,0.174224,0.228522,0.007929,2.769522,1.570139,4.385057,-9.281419,-11.453229,0.925777,115923892991663734582847026870797337344030231976010093171449286565843062745925325533140038438107183040167936.000000,-1.295576,0.000000
9.000000,0.002000,-0.682387,0.469490,0.026187,-3.894080,2.714455,0.876236,10.428011,-8.591047,-1.751474,0.002000,-0.938204,0.000000
10.000000,0.002000,2.197822,-0.225211,-1.671237,1.343023,0.552099,-0.321322,-1.915002,0.221809,1.520196,0.002000,0.316207,37615898677916790029497641420184927486026723865522060770907086302311657741556100900687363261432548162633000288256.000000
11.000000,0.002000,0.063848,-0.088906,0.347456,1.888381,3.497232,-0.715353,-4.551844,2.667797,-16.808628,0.002000,0.367003,0.000000
12.000000,0.002000,2.166989,1.691174,0.057280,1.053675,1.387220,0.117528,-1.957579,-1.456740,-0.041359,0.002000,-0.332351,5532576159273796511673946619493451325151009336113541047542840879852953724233362977625804277970551956738231064771502306841597535080481539287799983267523960781804097339187989409078728381668050274201356891189503865483832823458829384481243136.000000
13.000000,0.002000,0.556087,0.758273,0.176555,-2.054960,0.049988,2.496928,-6.333296,-9.067808,-2.123695,0.002000,-0.108981,1736532711371037886079688313579548584341654986180788740434079561590357708632210000107361341425804159724013540846160174068522304452702280418127919411401194776499390287341652241955149149587827780506232130793614380270397935001612812820736656122689487896576.000000
14.000000,0.002000,-1.668436,0.177085,1.736287,-0.654740,-0.563520,-0.128433,2.006986,-0.168322,-2.244962,0.002000,0.174224,0.000000
15.000000,0.002000,-0.832774,2.103076,0.085675,1.479362,-1.844049,0.402036,1.091610,-2.961490,-0.052747,0.002000,-0.682387,0.000000
16.000000,0.002000,0.508223,-1.200078,-1.742136,0.044228,-2.075653,-0.531909,-0.624122,1.792216,2.754796,0.002000,2.197822,0.000000
17.000000,0.002000,-0.721641,0.699839,-0.056630,1.307309,-0.229697,0.477405,7.648722,-7.536268,0.592343,0.002000,0.063848,0.000000
18.000000,0.002000,-0.559297,-0.671782,-0.033590,-1.639846,-0.861618,1.538306,7.812650,9.242429,0.441027,0.002000,2.166989,0.000000
19.000000,0.002000,-0.098138,0.203780,0.148643,0.000858,0.343838,0.725464,5.027150,-12.485397,-9.822904,0.002000,0.556087,0.000000
20.000000,0.002000,0.055115,-0.399549,-0.155935,2.036243,0.864895,1.178603,-1.570895,15.279895,5.040488,0.002000,-1.668436,0.000000
21.000000,0.002000,0.509206,-0.009143,0.133726,-0.416644,-1.851021,-2.846161,-20.304925,0.038109,-3.319372,0.002000,-0.832774,0.691929
22.000000,0.002000,0.808486,-0.606279,0.254083,-2.594885,1.340973,-0.836319,-7.751996,5.673890,-2.348146,0.002000,0.508223,1.507207
23.000000,0.002000,0.619376,-1.300747,-0.702007,-2.227958,0.016411,-1.868053,-1.907644,4.132325,2.003160,0.002000,-0.721641,1.002758
24.000000,0.002000,0.392375,-0.183500,-0.014295,-0.745964,3.218742,0.315261,-16.374558,7.368440,-0.043420,0.002000,-0.559297,1.099249
25.000000,0.002000,0.196120,0.695066,0.357047,-1.769003,-0.085937,-1.562826,-3.381979,-11.239653,-6.455121,0.002000,-0.098138,0.155839
26.000000,0.002000,1.213012,-0.665725,-1.470046,-0.771275,-0.875041,-0.436758,-2.549976,1.546084,2.578478,0.002000,0.055115,-0.502278
27.000000,0.002000,-0.158668,-0.589285,0.202064,-0.859903,-0.893929,-0.775446,3.927840,14.937964,-2.438684,0.002000,0.509206,-0.211822
28.000000,0.002000,0.155117,0.617233,0.125556,-1.437753,-2.551221,1.329998,-3.765976,-14.661672,-2.776390,0.002000,0.808486,0.228522
29.000000,0.002000,-2.052116,-2.053328,0.461310,-1.490150,-1.355739,1.034529,1.556001,1.525644,-0.334093,0.002000,0.619376,0.469490
30.000000,0.002000,-0.246568,-0.278774,-0.320775,1.532931,0.473389,4.498900,8.257633,10.008306,8.996430,0.002000,0.392375,-0.225211
31.000000,0.002000,-0.613069,-0.157855,0.085951,-1.702331,2.139803,0.470150,15.100281,5.683233,-3.405005,0.002000,0.196120,-0.088906
32.000000,0.002000,0.288142,-0.155712,0.010390,0.231185,2.001839,2.220073,-14.358840,7.266078,-0.799445,0.002000,1.213012,1.691174
33.000000,0.002000,-0.346093,0.750412,-0.749524,-0.583099,0.168660,-1.406297,2.378845,-6.712367,4.931314,0.002000,-0.158668,0.758273
34.000000,0.002000,-1.181841,-0.233520,-1.045871,1.238410,1.575177,-0.065269,3.870188,0.769535,3.296205,0.002000,0.155117,0.177085
35.000000,0.002000,-0.701725,-1.237679,2.223479,-1.098022,-0.492601,0.977668,0.654331,1.176042,-2.199871,0.002000,-2.052116,2.103076
36.000000,0.002000,-0.970513,-1.410124,2.146866,0.286687,-1.128950,1.049388,0.879321,1.275364,-1.938451,0.002000,-0.246568,-1.200078
37.000000,0.002000,-2.161103,-2.142546,0.783449,-1.249219,-1.469132,1.506775,1.346717,1.338672,-0.513439,0.002000,-0.613069,0.699839
38.000000,0.002000,-0.534883,-0.429654,0.217863,3.723080,1.195207,1.322944,10.253452,9.147993,-4.028335,0.002000,0.288142,-0.671782
39.000000,0.002000,-0.120337,0.341656,-0.434676,-0.467272,0.815491,2.303736,3.402374,-9.820640,13.372725,0.002000,-0.346093,0.203780
40.000000,0.002000,1.076783,-0.526321,0.569256,-1.446969,1.414094,0.220477,-5.547918,2.773346,-2.739544,0.002000,-1.181841,-0.399549
41.000000,0.002000,-0.222223,-0.149790,0.798383,-1.100542,1.101598,2.219685,2.738000,1.660902,-11.662007,0.002000,-0.701725,-0.009143
42.000000,0.002000,-0.167164,-0.173004,0.499482,-2.915200,3.375652,-3.227389,3.163640,1.775729,-20.193821,0.002000,-0.970513,-0.606279
43.000000,0.002000,-1.657062,-0.652587,1.232609,-1.197086,1.477219,1.272549,2.612997,1.139099,-1.913511,0.002000,-2.161103,-1.300747
44.000000,0.002000,-0.401474,0.004698,0.388115,0.261347,-2.391673,2.106660,11.665817,0.006006,-12.986899,0.002000,-0.534883,-0.183500
45.000000,0.002000,0.375194,0.068178,0.454099,1.074444,-0.931067,-2.861614,-7.848702,-2.393167,-11.435848,0.002000,-0.120337,0.695066
46.000000,0.002000,0.443229,-0.120462,0.237300,1.276823,0.832882,-1.420066,-14.680126,1.307824,-6.892947,0.002000,1.076783,-0.665725
47.000000,0.002000,-1.302192,0.187450,0.818298,1.045195,-0.745522,-1.363714,4.546765,-0.669471,-3.030547,0.002000,-0.222223,-0.589285
48.000000,0.002000,0.119553,-0.412745,-0.200571,2.458436,-2.522654,0.123142,-3.106231,16.200595,5.122406,0.002000,-0.167164,0.617233
49.000000,0.002000,-2.186863,-0.677591,0.200632,-2.570584,-0.664812,-0.144584,3.161984,1.371484,-0.458687,0.002000,-1.657062,-2.053328
50.000000,0.002000,0.667113,0.014171,0.418497,1.495009,1.353225,2.310880,-11.894659,0.943640,-6.449663,0.002000,-0.401474,-0.278774
51.000000,0.002000,-0.376459,0.450807,-0.192502,1.421484,-3.117211,1.417008,10.215946,-11.511083,5.758533,0.002000,0.375194,-0.157855
52.000000,0.002000,0.324099,0.025939,0.698573,-0.854624,-0.162444,1.956923,-4.012517,-1.626013,-11.082412,0.002000,0.443229,-0.155712
53.000000,0.002000,0.264380,-0.759047,-0.555846,0.033804,-1.883762,-1.114305,-2.729258,8.793936,5.463173,0.002000,-1.302192,0.750412
54.000000,0.002000,0.937171,0.556286,0.963013,-1.733506,-1.133120,0.883046,-3.946402,-2.216342,-4.078590,0.002000,0.119553,-0.233520
55.000000,0.002000,-0.461647,0.099783,0.041230,-2.499401,0.850247,-2.318156,15.692283,-5.039803,-1.541922,0.002000,-2.186863,-1.237679
56.000000,0.002000,-0.182792,0.465234,-0.617437,-0.486311,-0.165503,2.235291,2.718637,-7.160573,10.405646,0.002000,0.667113,-1.410124
57.000000,0.002000,-0.942688,0.028309,-0.456958,-1.448991,3.371241,2.309158,8.844083,-0.008714,4.609109,0.002000,-0.376459,-2.142546
58.000000,0.002000,-0.638949,-1.855113,-0.699722,-0.422431,-1.310122,-1.322120,1.066663,3.227630,1.172814,0.002000,0.324099,-0.429654
59.000000,0.002000,0.453482,-0.267787,-0.008082,0.645755,0.065690,-3.733570,-13.775198,8.163683,-0.691749,0.002000,0.264380,0.341656
60.000000,0.002000,-0.229352,0.081225,-0.158339,1.463687,0.771902,-0.163589,11.062494,-3.927988,11.625316,0.002000,0.937171,-0.526321
61.000000,0.002000,-0.657897,0.520944,0.449045,1.367902,1.474036,0.172291,7.579513,-5.585395,-5.425524,0.002000,-0.461647,-0.149790
62.000000,0.002000,-0.344701,-0.279338,2.780685,-1.404804,0.011823,1.855841,0.355514,0.247546,-2.369229,0.002000,-0.182792,-0.173004
63.000000,0.002000,-0.274615,0.115010,-0.189294,-2.553358,0.901481,-1.325210,11.395237,-4.566227,8.551313,0.002000,-0.942688,-0.652587
64.000000,0.002000,0.546807,0.674624,0.407061,-0.580390,2.708560,0.316402,-6.640511,-7.015954,-5.091115,0.002000,-0.638949,0.004698
65.000000,0.002000,0.420999,-0.732201,0.610719,1.475284,2.370917,-0.121654,-4.337207,6.463606,-5.529932,0.002000,0.453482,0.068178
66.000000,0.002000,-0.125569,0.203839,0.243667,-4.816055,-0.066723,-1.831055,5.369909,-10.608089,-13.141715,0.002000,-0.229352,-0.120462
67.000000,0.002000,-0.480933,-0.375907,0.113449,-2.477010,-4.545629,1.598840,11.822439,10.427758,-2.743292,0.002000,-0.657897,0.187450
68.000000,0.002000,-0.737813,1.533683,-0.764164,0.129298,0.644421,1.403719,1.641689,-3.351007,1.455264,0.002000,-0.344701,-0.412745
69.000000,0.002000,-0.496533,0.911429,-0.107086,2.899780,1.575105,2.771246,4.877925,-8.719073,1.071495,0.002000,-0.274615,-0.677591
70.000000,0.002000,-0.718180,0.399897,-0.046655,1.211491,-2.407838,2.210656,10.964366,-6.847481,-0.556713,0.002000,0.546807,0.014171
71.000000,0.002000,-0.257003,-0.497287,0.221057,-2.542019,-1.870565,-2.449016,4.405524,11.088660,-2.607787,0.002000,0.420999,0.450807
72.000000,0.002000,-0.059663,-0.360518,0.451430,0.795106,-0.646091,3.976089,2.005401,9.489719,-14.694574,0.002000,-0.125569,0.025939
73.000000,0.002000,-0.503438,0.355611,-1.122262,-2.234846,2.215074,-2.297144,2.532837,-2.177330,7.124485,0.002000,-0.480933,-0.759047
74.000000,0.002000,-0.008587,-0.146431,-0.071598,-0.064869,-3.423764,-2.249871,-0.109449,10.297866,6.422623,0.002000,-0.737813,0.556286
75.000000,0.002000,-2.375018,0.148912,1.028015,-1.918271,0.495041,-0.427592,2.504637,-0.081656,-1.072527,0.002000,-0.496533,0.099783
76.000000,0.002000,0.675232,-0.406816,-0.260594,1.686124,-1.584378,-1.139379,-10.619218,6.377441,3.835241,0.002000,-0.718180,0.465234
77.000000,0.002000,-0.705977,-0.286841,0.098932,1.957262,0.953731,1.086306,12.342177,5.630982,-1.648647,0.002000,-0.257003,0.028309
78.000000,0.002000,0.514627,0.752916,0.294590,0.494511,0.409712,-1.315581,-6.197294,-8.283034,-3.216301,0.002000,-0.059663,-1.855113
79.000000,0.002000,-0.620759,-0.679152,-0.391049,1.601031,-0.793576,-1.438575,6.973035,8.471008,4.563584,0.002000,-0.503438,-0.267787
80.000000,0.002000,0.890665,1.075169,-0.780676,-0.531733,3.381278,-1.076047,-3.082038,-3.457954,2.611128,0.002000,-0.008587,0.081225
81.000000,0.002000,-0.272232,-0.134473,-0.049864,-1.933448,-0.835749,-0.021879,16.070106,10.123237,3.933740,0.002000,-2.375018,0.520944
82.000000,0.002000,0.566516,0.431682,-1.215851,-1.832155,-1.376394,-0.247610,-2.505874,-1.756343,5.623392,0.002000,0.675232,-0.279338
83.000000,0.002000,0.627465,0.686152,-0.703346,1.425643,-0.014152,2.394217,-4.496312,-4.851864,5.069630,0.002000,-0.705977,0.115010
84.000000,0.002000,2.182162,0.777787,0.251152,0.192755,0.485931,-0.264046,-2.812948,-1.042880,-0.475088,0.002000,0.514627,0.674624
85.000000,0.002000,0.809732,-0.923809,1.080873,-0.074714,-0.732953,2.444567,-2.167274,2.779531,-2.501802,0.002000,-0.620759,-0.732201
86.000000,0.002000,-0.337116,0.698906,-0.768428,-0.942344,0.881041,1.968700,1.991837,-6.179390,5.936360,0.002000,0.890665,0.203839
87.000000,0.002000,-0.550459,-0.455788,-0.658075,-0.377099,-2.171928,-1.383868,5.785003,5.408239,7.488612,0.002000,-0.272232,-0.375907
88.000000,0.002000,0.259632,0.388574,0.006620,1.125658,-3.331420,0.912113,-12.145173,-13.187984,2.997531,0.002000,0.566516,1.533683
89.000000,0.002000,0.311498,-2.381964,-0.683644,-0.940057,-0.866991,0.046015,-0.356239,2.648311,0.815773,0.002000,0.627465,0.911429
90.000000,0.002000,0.022036,0.098651,-0.139093,-1.094263,1.144960,0.592724,-0.167213,-7.638278,13.146970,0.002000,2.182162,0.399897
91.000000,0.002000,-0.100616,1.448754,-0.736685,-1.994227,-0.181655,-3.457808,0.456293,-4.498524,2.295357,0.002000,0.809732,-0.497287
92.000000,0.002000,0.493326,-0.786513,-0.538370,-0.026605,-0.022947,-0.072064,-4.088095,7.472143,4.727370,0.002000,-0.337116,-0.360518
93.000000,0.002000,1.688389,-1.415494,0.699392,1.572567,-1.042361,-1.160353,-2.142860,1.870444,-0.954159,0.002000,-0.550459,0.355611
94.000000,0.002000,-1.206886,0.599423,0.299692,-1.876778,2.006020,2.499053,5.676664,-2.862333,-1.342250,0.002000,0.259632,-0.146431
95.000000,0.002000,-0.067351,-1.042816,-0.292533,-0.411030,2.703609,0.545150,0.564240,9.488504,2.415318,0.002000,0.311498,0.148912
96.000000,0.002000,0.592030,-0.363174,0.827032,1.332587,-0.240065,1.402279,-4.803574,3.293345,-7.001732,0.002000,0.022036,-0.406816
97.000000,0.002000,-0.793132,-0.047798,-0.055449,1.574432,-1.973288,1.209095,14.177551,0.535621,1.009355,0.002000,-0.100616,-0.286841
98.000000,0.002000,0.295910,-1.536765,1.525694,0.242411,-1.726000,2.262394,-0.496003,2.280685,-2.270372,0.002000,0.493326,0.752916
99.000000,0.002000,-0.080337,0.252276,0.164735,-0.780353,-0.358958,1.474198,3.418143,-12.669349,-11.601289,0.002000,1.688389,-0.679152
100.000000,0.002000,-0.245098,0.242626,-0.105862,-1.486464,2.865390,-1.835830,10.724290,-10.594297,4.776906,0.002000,-1.206886,1.075169
101.000000,0.002000,0.204650,0.770070,-0.785542,1.954836,-0.233249,-1.514282,-1.233444,-5.682849,5.975744,0.002000,-0.067351,-0.134473
102.000000,0.002000,0.436907,-0.491865,0.284193,1.783986,-0.274989,-2.221612,-8.633007,10.238367,-6.595667,0.002000,0.592030,0.431682
103.000000,0.002000,0.386963,2.242520,-1.630386,-0.248637,1.102347,-0.743086,-0.265994,-1.926677,1.458304,0.002000,-0.793132,0.686152
104.000000,0.002000,0.076560,-0.091659,-0.400142,1.644752,-3.012302,1.716327,-8.380796,4.831801,13.371791,0.002000,0.295910,0.777787
105.000000,0.002000,0.474775,0.877257,-0.724608,-2.810290,-1.154024,-1.925604,-3.224814,-5.483257,4.394846,0.002000,-0.080337,-0.923809
106.000000,0.002000,0.160439,0.163777,-0.034448,0.605916,1.513311,0.760309,-7.730288,-7.271114,2.486395,0.002000,-0.245098,0.698906
107.000000,0.002000,0.193677,0.426449,-0.280453,-1.134586,-0.835624,-0.728723,-7.550927,-12.445000,9.292976,0.002000,0.204650,-0.455788
108.000000,0.002000,-0.847059,-0.019374,-0.733332,-0.944461,-0.211353,-0.583379,5.713233,1.553032,4.442125,0.002000,0.436907,0.388574
109.000000,0.002000,-0.088344,-0.369714,0.387742,-2.999711,0.065580,-1.244077,2.651059,12.920554,-14.232113,0.002000,0.386963,-2.381964
110.000000,0.002000,0.634100,-0.037633,0.859309,-3.425342,0.854056,-2.381439,-5.462067,0.474960,-7.771581,0.002000,0.076560,0.098651
111.000000,0.002000,-0.529486,0.179902,0.012320,-1.561737,-1.847065,2.053630,16.496231,-5.001293,0.159543,0.002000,0.474775,1.448754
112.000000,0.002000,2.721371,1.180788,0.529402,1.182817,-0.204465,0.534526,-1.950675,-0.849703,-0.397758,0.002000,0.160439,-0.786513
113.000000,0.002000,-2.387571,-3.018379,-3.505038,0.430579,-1.284407,-0.684713,0.338861,0.428998,0.498280,0.002000,0.193677,-1.415494
114.000000,0.002000,-0.023596,1.005361,0.809393,-1.520464,-0.416333,0.785590,0.236459,-6.110830,-4.383575,0.002000,-0.847059,0.599423
115.000000,0.002000,0.562508,0.189482,0.364879,1.552275,-0.241520,0.846957,-11.340884,-3.791164,-7.533733,0.002000,-0.088344,-1.042816
116.000000,0.002000,0.068233,0.010773,-0.041939,-0.420475,1.368195,-1.028003,-10.010352,7.239389,-3.062441,0.002000,0.634100,-0.363174
117.000000,0.002000,-0.502829,0.231922,-0.110874,1.972667,1.347833,-1.914033,12.948006,-4.246776,1.895966,0.002000,-0.529486,-0.047798
118.000000,0.002000,0.005098,0.798019,0.653883,1.162618,-0.910156,0.366671,0.071284,-8.068329,-6.558188,0.002000,2.721371,-1.536765
119.000000,0.002000,1.394844,1.528828,0.331395,-0.356519,0.043340,-0.831659,-2.311894,-2.505336,-0.507340,0.002000,-2.387571,0.252276
120.000000,0.002000,-0.040001,-0.087432,0.271023,-2.000975,-2.552902,-1.576632,2.523077,5.181378,-15.756656,0.002000,-0.023596,0.242626
121.000000,0.002000,-0.630249,-0.404633,-0.416107,-0.841293,-1.919410,0.353244,8.624861,6.782503,6.153727,0.002000,0.562508,0.770070
122.000000,0.002000,0.237509,0.139967,0.095482,-0.109085,0.834261,-1.015760,-16.849220,-2.865141,-7.855936,0.002000,0.068233,-0.491865
123.000000,0.002000,-0.970446,1.386799,-0.941460,-0.260492,-0.706032,-0.122734,1.901927,-2.651150,2.031787,0.002000,-0.502829,2.242520
124.000000,0.002000,0.235225,-0.178609,-0.217882,-0.230735,0.555193,4.050337,-10.267906,6.837025,10.803261,0.002000,0.005098,-0.091659
125.000000,0.002000,0.099394,-0.062845,0.624502,-1.386293,0.238748,3.660739,-1.597902,1.645806,-15.175596,0.002000,1.394844,0.877257
126.000000,0.002000,-0.322807,-1.214144,0.246559,-0.346099,-3.244101,-1.789506,1.859826,6.799154,-1.625848,0.002000,-0.040001,0.163777
127.000000,0.002000,1.860472,-0.648588,-0.859152,0.702546,0.640618,-1.908421,-3.084732,1.088364,1.308619,0.002000,-0.630249,0.426449
128.000000,0.002000,-0.059340,-0.420771,-0.074855,-0.298781,5.693246,1.854751,2.495265,17.187589,4.331243,0.002000,0.237509,-0.019374
129.000000,0.002000,-1.271457,1.070924,0.650499,0.309080,-1.187094,-0.549795,2.952668,-2.649537,-1.535215,0.002000,-0.970446,-0.369714
130.000000,0.002000,0.716610,0.539107,0.459392,-2.982165,0.260354,-1.176204,-6.917333,-5.546796,-4.883573,0.002000,0.235225,-0.037633
131.000000,0.002000,-0.559248,0.029668,0.635135,0.263605,-1.448833,0.893263,7.698591,-0.566371,-9.566173,0.002000,0.099394,0.179902
132.000000,0.002000,0.019688,-0.742321,0.456087,2.590674,-0.112730,1.460209,-1.852892,12.304016,-9.059883,0.002000,-0.322807,1.180788
133.000000,0.002000,1.771244,-1.231922,-0.208179,2.159397,0.102134,1.374315,-2.635981,1.698390,0.212631,0.002000,1.860472,-3.018379
134.000000,0.002000,-1.504946,0.984891,-0.841657,-1.209154,0.661758,-2.208359,2.804134,-1.978465,1.683496,0.002000,-0.059340,1.005361
135.000000,0.002000,-0.757490,-2.310517,0.618283,-0.152253,-1.471010,-0.457715,0.838669,2.472814,-0.778581,0.002000,-1.271457,0.189482
136.000000,0.002000,-0.292857,-0.410629,0.310787,0.700690,2.284219,-0.381036,8.454138,10.359064,-8.886412,0.002000,0.716610,0.010773
137.000000,0.002000,0.433211,0.749992,-0.076277,-0.663613,-0.948215,2.125683,-5.533948,-10.834182,3.072001,0.002000,-0.559248,0.231922
138.000000,0.002000,-0.078540,-1.877968,-0.390598,1.104224,-0.274684,-0.276328,0.154635,3.814959,0.734366,0.002000,0.019688,0.798019
139.000000,0.002000,1.410403,-0.288038,0.048602,0.898463,-1.217007,-0.225063,-5.909361,1.180483,-0.429218,0.002000,1.771244,1.528828
140.000000,0.002000,-1.116238,-1.290952,1.162574,-0.203018,0.878754,2.252582,1.856165,2.337691,-1.935084,0.002000,-1.504946,-0.087432
141.000000,0.002000,-0.021234,-1.510077,0.699365,1.105953,-3.107518,-0.701042,-0.006147,4.433047,-2.087769,0.002000,-0.757490,-0.404633
142.000000,0.002000,-0.218369,0.363352,-0.010469,1.608493,-3.084643,0.264322,9.605254,-14.154339,1.426617,0.002000,-0.292857,0.139967
143.000000,0.002000,-0.008675,3.251969,0.792427,0.319270,2.405569,0.627727,0.000750,-1.707223,-0.414524,0.002000,0.433211,1.386799
144.000000,0.002000,0.089974,-0.446406,0.601242,0.404153,-1.748476,0.284575,-2.032385,8.215602,-11.866626,0.002000,-0.078540,-0.178609
145.000000,0.002000,-0.359009,-0.262230,0.496922,-2.162445,0.386738,-2.307838,7.711185,6.231458,-12.059349,0.002000,1.410403,-0.062845
146.000000,0.002000,0.106380,-0.166661,-0.493731,0.112315,1.205439,1.277607,-3.198265,5.020719,17.184203,0.002000,-1.116238,-1.214144
147.000000,0.002000,-0.268385,0.690988,0.456809,-1.940294,-0.075058,0.701214,3.602893,-9.930484,-6.592304,0.002000,-0.021234,-0.648588
148.000000,0.002000,0.892502,1.319534,-1.580762,-0.167167,0.825679,-0.906672,-1.345466,-1.831707,2.302937,0.002000,-0.218369,-0.420771
149.000000,0.002000,0.399931,0.042827,-0.120873,0.692721,0.519845,-1.758410,-16.711153,-1.189050,5.465154,0.002000,-0.008675,1.070924
150.000000,0.002000,0.606224,0.458532,-0.007284,-1.328152,0.934763,-2.081257,-11.923060,-8.728120,0.496698,0.002000,0.089974,0.539107
151.000000,0.002000,0.018609,-1.417335,-0.861106,-0.882134,1.046701,0.617307,-0.159495,3.938480,2.395771,0.002000,-0.359009,0.029668
152.000000,0.002000,0.297899,-0.413842,0.863223,-1.389789,2.920379,0.212790,-1.700715,5.635762,-6.485155,0.002000,0.106380,-0.742321
153.000000,0.002000,1.849206,0.219971,0.951232,-0.269712,-1.228405,0.070169,-3.051668,-0.225647,-1.923877,0.002000,-0.268385,-1.231922
154.000000,0.002000,-0.423851,0.030781,-0.810762,0.320032,0.557438,1.109275,4.640781,0.185085,10.058617,0.002000,0.892502,0.984891
155.000000,0.002000,0.105473,0.081624,-0.054583,1.644538,-0.019912,1.360139,-8.776389,-5.541707,3.051015,0.002000,0.399931,-2.310517
156.000000,0.002000,-1.933012,0.210961,-1.727085,-0.452846,-0.456247,-2.619802,2.108348,-0.213369,1.829194,0.002000,0.606224,-0.410629
157.000000,0.002000,2.480419,1.320669,1.856186,1.151454,1.057609,0.807143,-1.287734,-0.672073,-0.949678,0.002000,0.018609,0.749992
158.000000,0.002000,0.018294,0.065118,-0.221007,-3.683622,-1.208619,-0.971214,-2.700730,-3.767997,16.147692,0.002000,0.297899,-1.877968
159.000000,0.002000,0.096852,0.121649,1.171003,2.348051,0.976723,-1.500473,0.228032,-0.639409,-7.645356,0.002000,1.849206,-0.288038
160.000000,0.002000,1.636354,-0.012452,1.268688,-0.429497,0.789765,0.305757,-2.784686,0.136279,-2.163659,0.002000,-0.423851,-1.290952
161.000000,0.002000,0.199298,-0.686902,-0.353299,-1.122788,-2.493524,0.624627,-3.400101,11.692677,5.534631,0.002000,0.105473,-1.510077
162.000000,0.002000,-0.134025,-1.249971,1.163896,-1.253670,-3.318824,-0.494376,0.360590,3.426485,-3.156490,0.002000,-1.933012,0.363352
163.000000,0.002000,-0.436481,-1.402863,-1.060016,0.814879,-1.971556,-1.880752,0.966956,3.270957,2.513841,0.002000,2.480419,3.251969
164.000000,0.002000,0.333837,-0.192185,-0.304990,-0.713380,-2.028285,0.582876,-12.335536,6.613965,10.072287,0.002000,0.018294,-0.446406
165.000000,0.002000,-0.698611,-3.047051,-0.467339,-0.179182,-2.439742,0.676781,0.382031,1.912341,0.324167,0.002000,0.096852,-0.262230
166.000000,0.002000,0.232229,-1.470942,0.721732,-0.522296,0.144448,-1.279650,-0.731318,4.345734,-2.182346,0.002000,1.636354,-0.166661
167.000000,0.002000,-0.575539,-0.086071,0.139217,0.977321,0.622396,-4.169323,15.880864,2.285378,-3.031963,0.002000,0.199298,0.690988
168.000000,0.002000,0.090859,0.358891,-0.257797,-0.098574,-0.038095,-0.667492,-8.317706,-12.177953,7.592209,0.002000,-0.134025,1.319534
169.000000,0.002000,0.188287,-0.110685,0.722337,-1.071327,0.010695,-3.736819,-3.649310,6.380064,-17.124419,0.002000,-0.436481,0.042827
170.000000,0.002000,0.572947,2.009785,-1.796931,-0.073544,1.648542,-1.295868,-0.602198,-1.800943,1.620691,0.002000,0.333837,0.458532
171.000000,0.002000,-1.921891,-0.151987,-0.441199,-1.721204,0.837559,-1.523406,3.661738,0.276189,0.891834,0.002000,-0.698611,-1.417335
172.000000,0.002000,1.713447,-1.072798,1.211454,0.746384,-1.743229,1.591476,-2.171683,1.405611,-1.575395,0.002000,0.232229,-0.413842
173.000000,0.002000,-0.357095,-0.128500,-0.046837,3.580491,-2.105753,-0.433063,15.711679,8.444699,2.552188,0.002000,-0.575539,0.219971
174.000000,0.002000,-0.903978,-1.660056,0.433590,0.109295,-2.843477,-0.119435,1.860005,3.329815,-0.988762,0.002000,0.090859,0.030781
175.000000,0.002000,-0.630610,-1.545896,-0.504400,-2.021339,0.053659,0.957308,1.593097,4.006107,1.248577,0.002000,0.188287,0.081624
176.000000,0.002000,-0.996754,-1.823638,0.897868,-0.722502,0.495020,1.152904,1.504099,2.471205,-0.941396,0.002000,0.572947,0.210961
177.000000,0.002000,1.541859,-0.736815,1.222504,1.370818,-3.245971,-0.508461,-2.564220,1.235925,-1.984620,0.002000,-1.921891,1.320669
178.000000,0.002000,0.406746,-0.029587,-0.356836,-0.646656,2.047825,0.397333,-13.023271,3.447321,9.358730,0.002000,1.713447,0.065118
179.000000,0.002000,-0.052058,-0.444455,0.775151,1.430444,1.125261,-0.691526,0.325311,5.229935,-10.245807,0.002000,-0.357095,0.121649
180.000000,0.002000,0.075479,0.221353,-0.005677,-1.729288,3.693421,-2.199869,-3.129661,-12.616372,-1.191693,0.002000,-0.903978,-0.012452
181.000000,0.002000,0.514839,-0.225133,1.296911,-0.449901,-0.845263,-1.695717,-2.270252,1.136511,-5.728388,0.002000,-0.630610,-0.686902
182.000000,0.002000,-0.732658,-0.771165,-0.452226,-1.285804,3.062979,2.270982,5.609752,6.007517,3.439489,0.002000,-0.996754,-1.249971
183.000000,0.002000,-0.554047,0.971401,-1.665410,-0.117806,-1.037976,-3.362950,0.946550,-1.839559,3.140754,0.002000,1.541859,-1.402863
184.000000,0.002000,0.358648,-0.267625,-0.779578,1.363861,-0.212069,1.040914,-5.358165,3.345905,10.155830,0.002000,0.406746,-0.192185
185.000000,0.002000,-0.042423,0.804405,-0.386333,1.641151,-2.991334,0.450334,1.018781,-10.893476,5.208704,0.002000,-0.052058,-3.047051
186.000000,0.002000,0.135485,0.619309,0.857863,-2.768537,2.069426,-2.790733,-1.279321,-4.928475,-7.796456,0.002000,0.075479,-1.470942
187.000000,0.002000,0.971966,-0.314242,-0.999441,2.409412,-2.012064,-1.653714,-4.137326,1.240208,4.317005,0.002000,0.514839,-0.086071
188.000000,0.002000,-0.057728,0.784628,0.082781,0.313051,0.951565,3.224589,0.349704,-13.530192,-1.997100,0.002000,-0.732658,0.358891
189.000000,0.002000,-0.568166,3.577266,0.174338,0.733758,-0.060978,-0.340494,0.229167,-1.495370,-0.070146,0.002000,-0.554047,-0.110685
190.000000,0.002000,0.169762,0.508505,0.227445,1.610133,-0.560523,1.018985,-5.483649,-16.140224,-7.817448,0.002000,0.358648,2.009785
191.000000,0.002000,-0.137179,0.033221,0.095328,1.978765,3.865683,-2.225936,8.814451,-5.113750,-6.426884,0.002000,-0.042423,-0.151987
192.000000,0.002000,-0.014923,0.313082,-0.290028,3.690819,-1.889724,2.706430,-0.118901,-13.612294,10.038982,0.002000,0.135485,-1.072798
193.000000,0.002000,-0.144302,0.597390,0.187142,-0.568076,-0.771185,-0.537078,4.148520,-13.805719,-6.040907,0.002000,0.971966,-0.128500
194.000000,0.002000,-2.157271,-0.522674,1.243240,-1.363660,-1.649388,0.770583,2.368013,0.632752,-1.399464,0.002000,-0.057728,-1.660056
195.000000,0.002000,-0.119825,0.352159,-0.789226,-2.064567,-0.320032,2.778501,1.310676,-4.774594,10.995767,0.002000,-0.568166,-1.545896
196.000000,0.002000,0.307214,-0.286033,-0.091764,-3.023071,-1.172346,1.607967,-12.317624,11.851451,5.471068,0.002000,0.169762,-1.823638
197.000000,0.002000,0.052651,-5.753336,-0.804058,0.240874,-0.581503,-0.641498,-0.006584,0.583230,0.080483,0.002000,-0.137179,-0.736815
198.000000,0.002000,-0.158486,-0.080171,-0.082397,2.628912,0.025840,-3.308132,7.583149,4.764085,4.752690,0.002000,-0.014923,-0.029587
199.000000,0.002000,-0.143406,-0.271722,0.160709,1.242397,-1.172643,-3.765888,5.748869,16.189330,-9.722130,0.002000,-0.144302,-0.444455
200.000000,0.002000,0.052916,0.415005,0.015649,-1.734531,-1.260702,-3.226700,-2.651241,-17.094803,-1.287716,0.002000,-2.157271,0.221353
201.000000,0.002000,1.917146,-0.732340,1.565969,1.330129,-0.558755,1.252438,-1.952906,0.800342,-1.576988,0.002000,-0.119825,-0.225133
202.000000,0.002000,1.270001,2.008240,0.459553,0.785327,0.328367,-0.006519,-1.597431,-2.350125,-0.630567,0.002000,0.307214,-0.771165
203.000000,0.002000,0.118893,-0.272836,-0.546869,0.895688,2.450891,-3.472302,-2.990050,7.118170,14.883445,0.002000,0.052651,0.971401
204.000000,0.002000,-0.771884,-0.523992,-0.743412,2.455795,-1.428606,0.279071,5.653891,3.905338,5.092530,0.002000,-0.158486,-0.267625
205.000000,0.002000,0.386863,0.535194,-0.211539,-0.472788,-3.277719,-2.252005,-10.151803,-11.571249,5.356365,0.002000,-0.143406,0.804405
206.000000,0.002000,0.354050,-0.197548,0.340839,1.721903,0.618607,0.740109,-9.992785,6.288380,-12.673746,0.002000,0.052916,0.619309
207.000000,0.002000,-2.242141,1.720274,-1.055365,-1.646508,1.070661,-0.650252,1.620488,-1.214201,0.730043,0.002000,1.917146,-0.314242
208.000000,0.002000,-0.401384,0.731963,0.532544,0.606409,0.831679,1.426483,4.092484,-7.725509,-5.721991,0.002000,1.270001,0.784628
209.000000,0.002000,-0.421319,-0.135943,-0.401177,-0.343810,-2.041802,1.033460,10.768776,3.923267,11.704910,0.002000,0.118893,3.577266
210.000000,0.002000,0.897405,-0.313639,0.765946,0.664826,0.950086,-2.328769,-5.606435,2.114087,-4.965219,0.002000,-0.771884,0.508505
211.000000,0.002000,0.325850,-0.460440,0.196059,-1.046218,-0.241701,0.572087,-8.206958,13.256780,-5.792638,0.002000,0.386863,0.033221
212.000000,0.002000,-0.175583,-0.192001,0.266034,0.139291,-0.282901,-0.754213,11.200343,6.620649,-11.908962,0.002000,0.354050,0.313082
213.000000,0.002000,0.338910,-0.142874,-0.253561,1.050038,-1.963701,3.334354,-13.298416,4.138744,10.271942,0.002000,-2.242141,0.597390
214.000000,0.002000,0.765149,-1.677395,-1.644372,1.257352,-0.863153,-0.043093,-0.700961,2.194324,2.293796,0.002000,-0.401384,-0.522674
215.000000,0.002000,1.184368,-1.085278,0.658506,0.139228,-0.343088,-1.809986,-3.095442,2.748989,-1.805506,0.002000,-0.421319,0.352159
216.000000,0.002000,0.014343,-0.453449,0.159896,0.096448,-2.145384,3.838647,-1.487384,17.001540,-5.055867,0.002000,0.897405,-0.286033
217.000000,0.002000,0.421438,0.606470,-1.472117,-0.787697,0.800460,1.274626,-1.705382,-1.906685,4.559555,0.002000,0.325850,-5.753336
218.000000,0.002000,0.790598,-1.348550,-1.259960,-1.623573,-2.099400,-1.594880,-0.837837,3.315104,2.145764,0.002000,-0.175583,-0.080171
219.000000,0.002000,0.099929,0.162960,0.115757,-1.760593,-1.299333,1.292959,-7.626420,-5.800190,-9.357489,0.002000,0.338910,-0.271722
220.000000,0.002000,-0.357147,0.274927,1.694598,-0.632624,-0.226124,-0.934066,0.661699,-0.741898,-4.680351,0.002000,0.765149,0.415005
221.000000,0.002000,0.513132,-0.663843,-0.592627,0.204915,4.149437,0.640958,-4.863543,6.603466,5.597358,0.002000,1.184368,-0.732340
222.000000,0.002000,0.108445,-0.201506,-0.283369,-2.363116,0.875803,-0.591333,-4.800274,8.561519,13.329321,0.002000,0.014343,2.008240
223.000000,0.002000,0.083862,-0.515284,0.514263,1.337584,-4.653767,1.405933,-2.495695,10.564423,-10.689704,0.002000,0.421438,-0.272836
224.000000,0.002000,-0.314822,2.179627,-0.211520,0.035670,1.765671,-1.861962,0.499675,-3.212158,0.281851,0.002000,0.790598,-0.523992
225.000000,0.002000,-0.172034,-0.517429,0.481236,-2.351185,1.645391,-2.877841,4.057670,10.741854,-11.469270,0.002000,0.099929,0.535194
226.000000,0.002000,-0.545388,0.086616,-0.361779,0.360948,-0.621123,0.606083,12.941597,1.136454,8.681146,0.002000,-0.357147,-0.197548
227.000000,0.002000,0.367325,0.693080,0.365347,-1.607828,-1.183023,0.002143,-4.877637,-9.880562,-5.542181,0.002000,0.513132,1.720274
228.000000,0.002000,-0.299942,0.007010,-1.292765,2.519704,2.340803,-1.268514,1.327547,0.028220,6.658793,0.002000,0.108445,0.731963
229.000000,0.002000,2.951877,-3.730309,1.776221,1.477438,0.280838,-0.585828,-0.442410,0.561253,-0.271290,0.002000,0.083862,-0.135943
230.000000,0.002000,0.046694,-1.520567,-2.218858,-0.678088,-1.970470,-1.689969,-0.072144,1.455865,2.043757,0.002000,-0.314822,-0.313639
231.000000,0.002000,0.512415,0.219715,0.034640,-3.481835,0.437289,-2.927494,-16.154454,-4.719716,-2.587248,0.002000,-0.172034,-0.460440
232.000000,0.002000,1.238612,0.882233,-0.729906,-1.089698,-0.603592,0.748307,-3.502912,-2.550426,1.985465,0.002000,-0.545388,-0.192001
233.000000,0.002000,0.076795,0.409436,0.261276,-0.979889,-3.064228,-0.210635,-0.366118,-12.412921,-10.968745,0.002000,0.367325,-0.142874
234.000000,0.002000,0.371920,1.585573,-1.590287,0.664600,-0.639936,-1.172869,-0.560592,-1.667722,2.290636,0.002000,-0.299942,-1.677395
235.000000,0.002000,-0.633569,-1.296309,0.482971,-0.261300,1.752117,-0.333667,2.476976,4.841691,-2.018882,0.002000,2.951877,-1.085278
236.000000,0.002000,-1.099652,1.381649,-1.701848,0.800002,1.742915,-1.275657,1.349864,-1.666231,1.951210,0.002000,0.046694,-0.453449
237.000000,0.002000,-0.280050,-0.604557,-0.107134,-3.058146,-0.495689,1.983416,6.438841,13.346779,2.112420,0.002000,0.512415,0.606470
238.000000,0.002000,-0.189353,0.676933,0.222170,1.730607,2.194425,0.263652,3.742905,-14.277009,-5.535941,0.002000,1.238612,-1.348550
239.000000,0.002000,0.401876,-0.405723,-0.311212,0.267285,4.194087,0.056460,-12.296190,11.593126,6.097464,0.002000,0.076795,0.162960
240.000000,0.002000,-0.561504,-0.196133,-0.043347,-0.034197,1.716796,-0.988724,15.539394,7.085298,1.047332,0.002000,0.371920,0.274927
241.000000,0.002000,0.020816,0.843950,-0.259789,2.012840,0.900897,-0.179429,-0.254210,-11.816358,3.173955,0.002000,-0.633569,-0.663843
242.000000,0.002000,-0.092937,2.646338,-0.478990,-0.164225,1.063342,-0.655994,0.081259,-2.489844,0.440116,0.002000,-1.099652,-0.201506
243.000000,0.002000,-0.343434,0.622542,0.301336,1.255571,-1.807861,-1.055743,5.477734,-11.525784,-5.918042,0.002000,-0.280050,-0.515284
244.000000,0.002000,-0.498513,-0.103637,0.035100,0.407310,-2.224483,-2.552085,17.892024,7.549132,-0.505417,0.002000,-0.189353,2.179627
245.000000,0.002000,3.991345,-0.267825,-1.310819,0.786342,0.916029,-2.283963,-1.052585,0.070954,0.345745,0.002000,0.401876,-0.517429
246.000000,0.002000,0.235531,-0.026827,0.102653,4.949644,-2.369474,3.245963,-13.953066,0.528440,-6.684634,0.002000,-0.561504,0.086616
247.000000,0.002000,0.651022,0.717070,0.477996,3.474637,-0.073728,-2.308836,-6.001328,-6.350768,-4.438818,0.002000,0.020816,0.693080
248.000000,0.002000,0.019666,-0.094093,-0.433471,1.343592,-1.577729,3.589257,-2.241897,5.286646,19.544122,0.002000,-0.092937,0.007010
249.000000,0.002000,-0.255632,-0.004131,0.173322,0.971174,-0.972930,-0.521803,12.434758,-0.311823,-12.167081,0.002000,-0.343434,-3.730309
250.000000,0.002000,0.256899,-0.524214,-0.741032,0.198824,0.131190,-2.392803,-3.199552,3.330552,5.843446,0.002000,-0.498513,-1.520567
251.000000,0.002000,-1.500610,-0.255517,-1.296338,-1.395247,-1.956264,-1.419206,2.913074,0.539255,2.408943,0.002000,3.991345,0.219715
252.000000,0.002000,0.226632,0.771772,-0.451754,-1.868682,-0.947410,0.140432,-3.494630,-9.435414,6.050134,0.002000,0.235531,0.882233
253.000000,0.002000,0.545955,-0.065385,0.012419,-0.049924,-2.176811,0.239022,-16.137432,1.187579,0.513487,0.002000,0.651022,0.409436
254.000000,0.002000,-0.945483,-0.864217,0.667658,-1.404515,1.403244,-1.136260,3.970504,3.744385,-2.875099,0.002000,0.019666,1.585573
255.000000,0.002000,-0.482729,0.328148,-0.241141,-1.755113,-1.490948,-2.849962,11.722023,-8.542353,6.912031,0.002000,-0.255632,-1.296309
256.000000,0.002000,0.784081,-0.639550,-0.322509,-2.437705,0.993377,0.587554,-7.175186,6.175699,3.080963,0.002000,0.256899,1.381649
257.000000,0.002000,-0.209335,-0.325062,-0.204597,-1.539309,2.991899,2.756378,7.920356,13.138302,6.883652,0.002000,-1.500610,-0.604557
258.000000,0.002000,0.217223,-0.413055,0.223473,1.249144,-0.030192,0.606697,-7.936029,15.028938,-6.084630,0.002000,0.226632,0.676933
259.000000,0.002000,-0.568189,-0.405432,0.432945,2.453078,-1.308925,-2.419186,8.404897,6.694200,-6.360242,0.002000,0.545955,-0.405723
260.000000,0.002000,0.289041,-1.176999,1.310365,-0.640199,-1.628607,-0.788172,-0.784532,3.078493,-3.245395,0.002000,-0.945483,-0.196133
261.000000,0.002000,0.251375,0.722570,0.246083,2.020731,-3.107305,-0.601945,-4.225966,-11.757295,-4.335813,0.002000,-0.482729,0.843950
262.000000,0.002000,-1.469806,-0.257108,1.137770,-1.506520,1.106695,-0.630720,2.853807,0.642788,-2.485131,0.002000,0.784081,2.646338
263.000000,0.002000,-0.657612,-0.089313,-0.598108,-2.239401,-0.968971,-0.066941,8.179596,1.224229,7.980979,0.002000,-0.209335,0.622542
264.000000,0.002000,-0.637563,0.959445,-0.439277,0.914618,-2.018855,0.381076,3.897715,-6.244158,2.843030,0.002000,0.217223,-0.103637
265.000000,0.002000,0.151710,0.172737,0.681756,0.782709,-2.251248,-1.478208,-2.768800,-3.342595,-13.847377,0.002000,-0.568189,-0.267825
266.000000,0.002000,1.551970,-1.618371,0.253844,0.026779,-0.419065,-0.594489,-2.215454,2.319961,-0.356706,0.002000,0.289041,-0.026827
267.000000,0.002000,-1.272749,0.339586,-1.146441,0.160671,-0.679614,1.213220,3.346132,-0.990712,3.040313,0.002000,0.251375,0.717070
268.000000,0.002000,-0.186220,-0.520493,0.234895,-1.343713,2.733431,-0.297751,4.052039,14.803292,-5.315884,0.002000,-1.469806,-0.094093
269.000000,0.002000,0.164180,0.106054,0.060867,2.872874,-0.143735,-2.365836,-8.892593,-3.474660,-6.107743,0.002000,-0.657612,-0.004131
270.000000,0.002000,-1.344354,-0.616807,-1.170262,-0.217771,-2.395520,-0.301400,2.523027,0.900375,3.053407,0.002000,-0.637563,-0.524214
271.000000,0.002000,0.253013,0.159889,-0.296556,0.028381,3.532701,0.714856,-12.551229,-7.347535,14.158147,0.002000,0.151710,-0.255517
272.000000,0.002000,0.393388,-0.789729,-0.726944,0.336182,-3.754065,1.800509,-2.872270,6.372476,5.274444,0.002000,1.551970,0.771772
273.000000,0.002000,-0.537441,0.323611,-0.077621,3.802010,1.212132,-1.811408,12.923081,-8.401187,2.058570,0.002000,-1.272749,-0.065385
274.000000,0.002000,-0.037832,0.152746,0.199852,-0.368274,0.795306,-1.104046,0.894004,-11.636520,-14.354975,0.002000,-0.186220,-0.864217
275.000000,0.002000,0.253549,-0.536578,-0.753681,1.223475,-0.176745,-0.155577,-1.567501,8.740622,11.523897,0.002000,0.164180,0.328148
276.000000,0.002000,-0.100989,-1.646392,-2.388996,-0.057308,-1.420942,-1.384842,0.047918,1.326876,1.821702,0.002000,-1.344354,-0.639550
277.000000,0.002000,0.085169,-0.496272,0.217206,-1.934967,2.617378,-0.848770,-2.077546,7.733542,-3.274636,0.002000,0.253013,-0.325062
278.000000,0.002000,-0.392556,0.109629,0.064515,2.376140,-0.207129,-0.710061,16.590142,-4.655806,-4.175285,0.002000,0.393388,-0.413055
279.000000,0.002000,0.105423,0.704748,-0.139036,0.028768,-2.296038,1.213675,-2.312234,-15.292111,2.887781,0.002000,-0.537441,-0.405432
280.000000,0.002000,-0.002166,0.121443,0.195174,1.711684,0.894308,0.594695,-0.242834,-9.215823,-12.683350,0.002000,-0.037832,-1.176999
281.000000,0.002000,0.537554,0.400626,0.004407,1.224358,2.835447,-2.590093,-13.209038,-10.047874,0.513457,0.002000,0.253549,0.722570
282.000000,0.002000,-1.150426,-0.887081,-1.525570,1.759390,-0.403987,-1.734246,1.954019,1.483047,2.535026,0.002000,-0.100989,-0.257108
283.000000,0.002000,-0.359090,0.225021,0.260128,3.135835,1.963758,-0.037952,10.866876,-7.663664,-11.204388,0.002000,0.085169,-0.089313
284.000000,0.002000,-1.828634,0.856066,1.615883,-2.492727,-0.365749,1.476102,1.999864,-0.917557,-1.814009,0.002000,-0.392556,0.959445
285.000000,0.002000,0.438658,0.346162,0.514197,1.027769,0.145642,0.709940,-7.675990,-6.259078,-10.001357,0.002000,0.105423,0.172737
286.000000,0.002000,-0.623686,-0.967699,-0.271136,2.449918,-1.985604,-0.263088,4.286976,6.831499,1.929642,0.002000,-0.002166,-1.618371
287.000000,0.002000,-0.045233,0.055918,0.068743,-1.476522,-1.702459,3.235033,0.981838,-5.803356,-7.613498,0.002000,0.537554,0.339586
288.000000,0.002000,0.045486,-0.033967,-0.066683,-0.931812,1.896532,-2.497182,-4.482366,5.925872,3.318023,0.002000,-1.150426,-0.520493
289.000000,0.002000,0.159868,0.033485,-0.080842,-1.740109,-3.034760,0.945865,-7.925325,-3.783237,2.950987,0.002000,-0.359090,0.106054
290.000000,0.002000,0.119336,0.316854,-0.453169,0.854635,1.776094,-1.959641,-2.214212,-5.393716,14.049827,0.002000,-1.828634,-0.616807
291.000000,0.002000,0.018176,1.159976,-1.805019,1.102043,0.230481,-1.673411,-0.177001,-1.814668,2.914475,0.002000,0.438658,0.159889
292.000000,0.002000,-0.405081,-0.471234,0.135098,-1.394730,0.425760,-1.665884,10.242611,11.700239,-3.088436,0.002000,-0.623686,-0.789729
293.000000,0.002000,-0.081574,-0.087712,0.012158,2.007791,-2.841967,-0.411210,3.671371,5.964895,-1.360887,0.002000,-0.045233,0.323611
294.000000,0.002000,-0.019759,-1.488918,-1.388299,-1.116606,0.878287,-0.460524,-0.034879,2.622790,2.458864,0.002000,0.045486,0.152746
295.000000,0.002000,0.157174,0.102337,0.345143,0.047892,-0.012853,-2.509009,-6.755026,-2.533161,-15.484556,0.002000,0.159868,-0.536578
296.000000,0.002000,0.192429,-0.397372,0.585818,2.352063,-1.659673,-1.539016,-3.184308,6.895507,-12.271521,0.002000,0.119336,-1.646392
297.000000,0.002000,-0.081351,0.475165,-0.308848,0.566632,0.473762,-2.508746,1.536292,-14.392346,8.974703,0.002000,0.018176,-0.496272
298.000000,0.002000,1.109380,0.987266,-0.195854,0.101933,-1.040045,0.258845,-4.320100,-3.652999,0.783058,0.002000,-0.405081,0.109629
299.000000,0.002000,-1.746221,0.521571,-1.077183,1.631959,-1.784229,1.005841,2.945586,-0.871864,1.866711,0.002000,-0.081574,0.704748
300.000000,0.002000,-2.620563,1.355756,-2.423799,0.344549,-1.341106,-0.345840,0.933250,-0.486211,0.859593,0.002000,-0.019759,0.121443
301.000000,0.002000,0.759708,-0.274112,-0.875977,-2.136965,-0.193515,1.608791,-5.099425,1.682337,6.056901,0.002000,0.157174,0.400626
302.000000,0.002000,0.822956,-0.467995,0.023406,2.375190,-0.786804,-1.597727,-9.855128,5.305227,-0.651410,0.002000,0.192429,-0.887081
303.000000,0.002000,-0.969243,0.370721,-0.869090,-3.388948,-1.370201,-0.260372,5.159377,-2.063298,4.619054,0.002000,-0.081351,0.225021
304.000000,0.002000,0.401595,0.618151,0.178136,-2.549848,-1.022509,0.807100,-7.707825,-11.821544,-3.832217,0.002000,1.109380,0.856066
305.000000,0.002000,0.964150,2.169051,-0.066145,0.595592,-0.379121,-0.444655,-1.184119,-2.706666,0.118761,0.002000,-1.746221,0.346162
306.000000,0.002000,-0.667983,0.191983,-0.160915,0.146165,0.189368,-0.009111,13.504278,-3.298960,5.746406,0.002000,-2.620563,-0.967699
307.000000,0.002000,-0.015423,0.489627,0.456000,0.894756,2.093399,-1.716111,-0.424502,-9.562695,-10.877371,0.002000,0.759708,0.055918
308.000000,0.002000,1.296516,-2.245937,-1.061563,1.757576,-0.937540,-0.695914,-1.115643,1.964229,0.942283,0.002000,0.822956,-0.033967
309.000000,0.002000,2.024416,-1.623105,0.974803,1.294384,-0.075561,0.471059,-1.730400,1.463335,-0.890402,0.002000,-0.969243,0.033485
310.000000,0.002000,-0.504109,0.285316,-0.718690,1.262349,-1.599057,-1.041060,4.979079,-3.302438,7.984709,0.002000,0.401595,0.316854
311.000000,0.002000,-1.412357,-1.263412,1.329543,-0.267016,-1.535176,1.655134,2.083583,1.792061,-1.765404,0.002000,0.964150,1.159976
312.000000,0.002000,-0.488788,0.292555,2.377699,-0.871572,-0.133837,0.456989,0.620497,-0.350261,-2.863947,0.002000,-0.667983,-0.471234
313.000000,0.002000,-1.199300,-1.884544,-1.319781,-1.442009,-0.167086,-1.445798,1.254224,1.999026,1.317703,0.002000,-0.015423,-0.087712
314.000000,0.002000,-0.126853,0.686680,-0.611038,1.015983,-0.529829,-1.439323,1.540989,-8.384839,7.646184,0.002000,1.296516,-1.488918
315.000000,0.002000,1.519446,3.238720,0.112776,0.030307,-1.079515,0.041295,-0.662040,-1.400182,-0.039833,0.002000,2.024416,0.102337
316.000000,0.002000,0.865149,0.285748,0.463751,-2.761106,-0.655718,1.138416,-8.827442,-2.623316,-5.209809,0.002000,-0.504109,-0.397372
317.000000,0.002000,0.389144,-0.570668,0.184363,0.273801,-2.039915,2.956814,-7.599068,11.542082,-3.525828,0.002000,-1.412357,0.475165
318.000000,0.002000,0.282771,-0.069955,1.021006,-0.403386,-1.735305,-0.073928,-2.371898,0.510748,-9.558399,0.002000,-0.488788,0.987266
319.000000,0.002000,0.146523,0.051790,-0.366233,3.517618,0.820385,0.426994,-5.169032,-1.274028,17.373349,0.002000,-1.199300,0.521571
320.000000,0.002000,-0.174364,-2.161197,-1.088284,-0.656196,-1.478247,-2.235852,0.152185,2.641335,1.325684,0.002000,-0.126853,1.355756
321.000000,0.002000,-0.303618,-0.626183,0.196567,-0.936163,0.040331,0.471911,5.546938,12.771628,-3.893881,0.002000,1.519446,-0.274112
322.000000,0.002000,-0.394987,0.579052,0.111009,2.216731,0.980352,-0.421126,7.765320,-11.490420,-3.426278,0.002000,0.865149,-0.467995
323.000000,0.002000,-0.010241,-0.180147,-0.115568,0.391221,-0.249612,-4.594261,0.648344,15.825726,7.895045,0.002000,0.389144,0.370721
324.000000,0.002000,0.433364,0.182710,-0.338795,0.892045,-0.954369,1.718432,-12.139076,-5.239467,9.791827,0.002000,0.282771,0.618151
325.000000,0.002000,-0.786909,-2.541385,-0.141638,0.184246,-0.068427,-2.614732,0.751386,2.449664,0.174036,0.002000,0.146523,2.169051
326.000000,0.002000,-0.877781,1.787342,-0.862338,-0.733835,0.330075,-1.226010,1.494402,-2.891021,1.368867,0.002000,-0.174364,0.191983
327.000000,0.002000,0.146429,-0.160667,-0.008916,-0.432057,0.730834,-1.005703,-7.237093,9.441081,2.871099,0.002000,-0.303618,0.489627
328.000000,0.002000,0.594498,-0.117390,0.132896,0.240557,-0.553730,2.091653,-15.536327,3.752810,-4.460842,0.002000,-0.394987,-2.245937
329.000000,0.002000,-0.099991,0.143593,-0.046487,-2.729749,-0.953491,1.680964,5.181720,-7.420171,4.451588,0.002000,-0.010241,-1.623105
330.000000,0.002000,0.712671,-0.460936,-0.394104,-0.905764,-1.039087,0.487289,-9.766721,6.022366,5.227276,0.002000,0.433364,0.285316
331.000000,0.002000,0.326302,-0.032824,-0.156807,1.860672,0.010587,0.833862,-16.713531,4.519734,13.091363,0.002000,-0.786909,-1.263412
332.000000,0.002000,-0.284853,-0.503175,0.244535,0.260090,0.431965,0.855053,11.452822,12.556086,-8.310577,0.002000,-0.877781,0.292555
333.000000,0.002000,0.313534,0.091485,-1.412047,-1.996698,-0.053150,0.278359,-1.412439,-0.202382,5.848019,0.002000,0.146429,-1.884544
334.000000,0.002000,0.247256,-0.275926,-0.341790,3.093442,-2.809185,0.613817,-16.524012,10.349529,9.026557,0.002000,0.594498,0.686680
335.000000,0.002000,-0.322676,0.196668,0.414682,-1.016452,0.268843,0.480518,9.073463,-6.253651,-12.189526,0.002000,-0.099991,3.238720
336.000000,0.002000,-0.552883,-0.667098,0.203123,0.947439,0.163088,2.124494,7.079600,8.834194,-2.682573,0.002000,0.712671,0.285748
337.000000,0.002000,0.010986,-0.434363,0.611104,-0.633863,-1.472851,-1.695777,0.314309,7.577493,-12.320581,0.002000,0.326302,-0.570668
338.000000,0.002000,-0.104880,0.850285,-1.747934,2.258202,1.922224,-1.157464,0.103431,-1.572985,3.630606,0.002000,-0.284853,-0.069955
339.000000,0.002000,-0.086013,0.574300,-0.273352,-2.705320,-0.536568,-0.021305,2.396413,-14.503429,7.672670,0.002000,0.313534,0.051790
340.000000,0.002000,0.889459,-0.002178,0.022798,0.487286,4.010933,2.213252,-12.002976,-0.114446,0.159865,0.002000,0.247256,-2.161197
341.000000,0.002000,-0.035774,0.111497,-0.038167,2.514521,-0.336319,-2.686132,-2.596122,-4.952370,1.685526,0.002000,-0.322676,-0.626183
342.000000,0.002000,0.752875,-1.214607,-1.823452,-0.004892,0.005761,-2.607336,-0.976195,1.599673,2.508871,0.002000,-0.552883,0.579052
343.000000,0.002000,-0.616385,0.742330,0.248325,1.187217,1.762192,-1.542102,6.633991,-7.473486,-2.542106,0.002000,0.010986,-0.180147
344.000000,0.002000,-0.231750,-0.152237,-0.018223,-2.904815,0.908918,-1.309628,13.977183,11.333254,2.578533,0.002000,-0.104880,0.182710
345.000000,0.002000,-0.467409,-0.128896,0.045852,4.233346,-0.431709,1.873804,16.004352,7.474639,-2.368146,0.002000,-0.086013,-2.541385
346.000000,0.002000,-0.179555,-1.153700,0.154023,1.953097,-2.299799,2.488846,0.822789,7.548165,-1.128719,0.002000,0.889459,1.787342
347.000000,0.002000,0.068333,0.566214,1.550785,0.394424,-2.180425,0.433569,-0.204495,-1.865643,-4.534525,0.002000,-0.035774,-0.160667
348.000000,0.002000,-0.342305,-0.355316,-0.162750,-2.384726,-1.904722,-0.130691,10.420797,12.086326,5.135921,0.002000,0.752875,-0.117390
349.000000,0.002000,0.056984,-0.682918,0.709869,-2.268533,-0.167517,-1.492613,-0.685304,7.090622,-7.748964,0.002000,-0.616385,0.143593
350.000000,0.002000,-0.287430,0.122291,-0.650483,3.078053,1.957742,1.391111,4.328130,-1.697109,11.538309,0.002000,-0.231750,-0.460936
351.000000,0.002000,-0.187335,-0.556617,1.501584,-0.768675,-0.495109,-1.193834,0.689551,1.799544,-4.859131,0.002000,-0.467409,-0.032824
352.000000,0.002000,-0.630838,2.043240,2.457084,-0.814199,-1.825355,0.241385,0.362834,-1.141532,-1.406272,0.002000,-0.179555,-0.503175
353.000000,0.002000,-0.721235,-2.056356,-0.864799,-1.456603,-0.967039,-0.957716,0.947786,2.764484,1.091558,0.002000,0.068333,0.091485
354.000000,0.002000,0.159570,0.224074,0.363182,-0.592917,-0.005341,-2.442620,-5.704759,-8.509175,-15.611461,0.002000,-0.342305,-0.275926
355.000000,0.002000,-0.224429,0.026619,0.011174,-0.822010,0.167273,0.944150,14.746229,-2.482136,-2.534850,0.002000,0.056984,0.196668
356.000000,0.002000,0.254319,0.265296,0.363379,1.468423,0.955175,-0.924419,-6.687005,-6.557197,-12.223396,0.002000,-0.287430,-0.667098
357.000000,0.002000,0.764965,1.887625,1.238422,0.477139,1.189108,-0.340954,-1.005087,-2.314618,-1.544375,0.002000,-0.187335,-0.434363
358.000000,0.002000,0.052837,-0.680039,-0.862704,-2.994238,1.524715,-0.822504,-0.070816,6.011121,7.312171,0.002000,-0.630838,0.850285
359.000000,0.002000,0.220893,0.582084,0.491786,1.810723,-3.123145,0.002468,-3.672569,-9.782838,-8.646917,0.002000,-0.721235,0.574300
360.000000,0.002000,-1.867528,0.944683,-0.390911,-2.031063,-0.710723,0.276600,3.117451,-1.537584,0.630141,0.002000,0.159570,-0.002178
361.000000,0.002000,0.110071,-0.040531,0.153948,0.724887,0.449720,-1.644369,-8.241757,3.239793,-9.101110,0.002000,-0.224429,0.111497
362.000000,0.002000,0.488458,0.371847,0.356234,0.728187,-2.425027,1.116103,-10.047514,-7.581064,-7.954298,0.002000,0.254319,-1.214607
363.000000,0.002000,-0.094012,-0.170013,0.239185,2.493451,1.658127,-3.267411,5.300679,8.913297,-13.273320,0.002000,0.764965,0.742330
364.000000,0.002000,0.179069,0.653040,0.226902,2.587201,1.400880,1.189167,-3.845384,-13.329798,-4.920572,0.002000,0.052837,-0.152237
365.000000,0.002000,0.885847,0.733928,-3.025854,0.180709,0.388971,-1.796802,-0.536252,-0.413944,1.738981,0.002000,0.220893,-0.128896
366.000000,0.002000,-0.202637,0.161422,0.126311,-0.359934,-0.850785,1.716259,11.521363,-8.806898,-10.835648,0.002000,-1.867528,-1.153700
367.000000,0.002000,0.907191,0.148140,0.238325,0.920652,-0.312351,1.718794,-10.714082,-0.958487,-3.217081,0.002000,0.110071,0.566214
368.000000,0.002000,-1.275378,0.526362,0.873828,-0.821471,2.784466,-0.783319,3.753270,-1.543910,-2.825266,0.002000,0.488458,-0.355316
369.000000,0.002000,-0.305943,-0.117105,0.274271,-2.126328,-1.477922,-0.661419,10.649835,3.304635,-11.849009,0.002000,-0.094012,-0.682918
370.000000,0.002000,-0.238669,-0.715272,0.530669,-0.244752,-0.889167,-2.056370,4.351331,8.857636,-6.780702,0.002000,0.179069,0.122291
371.000000,0.002000,0.702621,-0.921520,-0.329897,-0.938412,1.999988,0.983904,-4.589098,6.435667,2.094773,0.002000,0.885847,-0.556617
372.000000,0.002000,0.231586,-0.425997,-0.364321,2.516444,-2.442391,-4.393430,-11.683139,15.478638,6.624340,0.002000,-0.202637,2.043240
373.000000,0.002000,1.128442,0.123369,1.485093,-0.969674,0.719591,1.521993,-2.086730,0.163277,-3.290777,0.002000,0.907191,-2.056356
374.000000,0.002000,-1.499715,1.163912,0.243154,0.352602,0.457934,1.422864,2.936171,-2.410117,-0.364457,0.002000,-1.275378,0.224074
375.000000,0.002000,1.115631,-0.610893,0.004421,1.290518,-2.815967,1.696218,-6.004182,3.401296,-0.188732,0.002000,-0.305943,0.026619
376.000000,0.002000,-0.015748,0.429435,-0.191346,-0.773185,1.118529,-1.178329,0.201475,-17.489112,6.774818,0.002000,-0.238669,0.265296
377.000000,0.002000,-0.148194,0.485438,0.987573,-1.452257,-1.595809,3.584306,-0.226429,-3.242523,-7.600570,0.002000,0.702621,1.887625
378.000000,0.002000,0.417053,-2.168400,0.559437,0.069677,0.009139,0.406693,-0.676006,3.095178,-0.787924,0.002000,0.231586,-0.680039
379.000000,0.002000,0.030144,-0.125003,0.009342,-0.458420,1.481599,-0.694590,-6.584928,15.338427,2.522945,0.002000,1.128442,0.582084
380.000000,0.002000,-0.149253,-0.213210,-0.490360,-0.772082,1.401002,-2.659712,3.877396,7.353601,12.818995,0.002000,-1.499715,0.944683
381.000000,0.002000,1.688364,0.431386,-1.103406,2.634870,0.020412,-1.370772,-3.027820,-0.769176,1.955352,0.002000,1.115631,-0.040531
382.000000,0.002000,0.381866,-0.455497,0.250243,1.839211,2.429399,-1.403411,-8.536682,10.380594,-6.090131,0.002000,-0.015748,0.371847
383.000000,0.002000,0.381925,0.135750,0.195985,-1.966316,-0.683854,1.468527,-14.917817,-4.319262,-8.308072,0.002000,-0.148194,-0.170013
384.000000,0.002000,-0.035912,-0.844861,-0.599825,0.177462,-0.455094,0.870806,0.375863,7.795409,6.590277,0.002000,0.417053,0.653040
385.000000,0.002000,0.484386,0.640669,-0.465194,-0.152101,-0.562523,-0.222189,-6.044638,-7.403854,6.145844,0.002000,0.030144,0.733928
386.000000,0.002000,0.701747,-0.471252,-0.018180,-1.733905,0.738024,-0.449603,-10.177717,7.570904,-0.042417,0.002000,-0.149253,0.161422
387.000000,0.002000,-1.772206,0.051098,1.106918,-2.192997,-0.974269,1.698828,3.059155,-0.105334,-2.005727,0.002000,1.688364,0.148140
388.000000,0.002000,-0.243118,-0.098614,-0.223738,-2.167098,0.003834,-3.728559,12.451413,7.558209,11.936239,0.002000,0.381866,0.526362
389.000000,0.002000,-0.233558,0.985197,1.209018,1.782216,-1.062881,0.858940,0.874107,-3.189558,-4.085102,0.002000,0.381925,-0.117105
390.000000,0.002000,-0.647444,-0.643871,-0.320970,-0.147310,0.143360,-1.267555,7.603565,6.886295,2.823562,0.002000,-0.035912,-0.715272
391.000000,0.002000,0.060391,-0.123106,-0.031841,-1.763598,5.000699,-1.158634,-5.314977,10.066779,2.687723,0.002000,0.484386,-0.921520
392.000000,0.002000,0.648002,-0.418392,-0.120406,-1.304434,-2.435853,0.257606,-10.700504,8.311221,1.590877,0.002000,0.701747,-0.425997
393.000000,0.002000,-0.450837,-0.418020,0.390336,1.157278,1.589695,1.038278,8.177746,8.343448,-7.454313,0.002000,-1.772206,0.123369
394.000000,0.002000,0.871276,-0.415646,-0.323250,-0.894484,-1.443331,0.058746,-8.887050,4.431170,3.716498,0.002000,-0.243118,1.163912
395.000000,0.002000,-0.083269,0.536885,-0.872808,0.103589,1.806037,-1.381162,0.684711,-5.231030,7.504226,0.002000,-0.233558,-0.610893
396.000000,0.002000,-0.099098,-0.191787,0.134677,0.687855,2.998567,1.662606,3.538927,11.692898,-10.659496,0.002000,-0.647444,0.429435
397.000000,0.002000,-0.243198,-0.569385,-0.363115,-0.724414,1.858347,1.450076,5.144817,11.787242,7.801066,0.002000,0.060391,0.485438
398.000000,0.002000,-2.206653,-0.029395,0.514888,-0.173211,-0.022251,-0.109809,3.210662,0.247983,-1.007226,0.002000,0.648002,-2.168400
399.000000,0.002000,-2.135955,0.462067,1.133223,-0.532106,0.864566,0.677399,2.469329,-0.459991,-1.418404,0.002000,-0.450837,-0.125003
400.000000,0.002000,1.802075,-0.331891,1.132935,0.239828,-1.838237,1.040284,-3.041318,0.802456,-1.786103,0.002000,0.871276,-0.213210
401.000000,0.002000,2.187731,0.297539,-1.843119,1.703975,-0.457367,-1.048998,-1.681428,-0.224270,1.460531,0.002000,-0.083269,0.431386
402.000000,0.002000,-0.140961,-0.068592,0.719286,-0.984452,2.508797,-1.161795,0.967486,-1.109990,-13.095345,0.002000,-0.099098,-0.455497
403.000000,0.002000,-1.011498,0.178960,-0.230258,-3.733147,-0.765096,1.452364,9.629596,-1.827213,2.233595,0.002000,-0.243198,0.135750
404.000000,0.002000,-0.973183,-0.420789,1.279774,1.253460,0.622114,-0.201555,3.255540,1.734602,-4.242174,0.002000,-2.206653,-0.844861
405.000000,0.002000,0.124680,0.216442,-0.102215,-1.027514,-0.060827,-3.400949,-7.899216,-13.241208,5.263804,0.002000,-2.135955,0.640669
406.000000,0.002000,0.012055,0.317457,0.115395,-2.043325,0.679435,-1.837265,-1.072146,-15.956625,-6.373096,0.002000,1.802075,-0.471252
407.000000,0.002000,-0.009418,0.138747,0.119978,-2.659913,-2.641516,-0.712562,-5.246294,-9.149079,-10.141776,0.002000,2.187731,0.051098
408.000000,0.002000,-0.806501,-0.207967,-0.306829,2.246946,2.718387,0.501681,11.041223,3.593399,4.372053,0.002000,-0.140961,-0.098614
409.000000,0.002000,-0.594129,-0.052854,0.143100,0.210757,1.459406,0.527959,17.382192,0.081248,-3.935828,0.002000,-1.011498,0.985197
410.000000,0.002000,-0.785221,-1.485176,-0.992860,-0.351190,-1.500754,0.537461,0.124428,3.110747,1.833630,0.002000,-0.973183,-0.643871
411.000000,0.002000,0.150579,-0.380201,-1.644555,1.259862,1.010568,0.398813,-0.528506,1.032543,4.460479,0.002000,0.124680,-0.123106
412.000000,0.002000,-2.111349,-1.360517,1.633564,-1.035671,-1.822305,0.730225,1.244001,1.235221,-1.122063,0.002000,0.012055,-0.418392
413.000000,0.002000,0.389148,-0.066856,-0.252059,0.379570,-0.540455,0.696488,-13.154859,0.775667,7.889851,0.002000,-0.009418,-0.418020
414.000000,0.002000,0.169529,-0.756666,-0.139062,4.395441,-0.232840,2.429576,-2.611151,13.470616,3.654403,0.002000,-0.806501,-0.415646
415.000000,0.002000,0.059332,-0.485914,0.458852,-1.130295,-3.228912,0.906588,-6.447273,9.169259,-11.781081,0.002000,-0.594129,0.536885
416.000000,0.002000,0.053188,-0.213628,0.331588,-3.671513,-2.868109,-0.647776,-1.935811,8.207507,-13.427212,0.002000,-0.785221,-0.191787
417.000000,0.002000,0.457625,1.425216,2.172159,0.312485,0.417441,1.578663,-0.460568,-1.415455,-2.213462,0.002000,0.150579,-0.569385
418.000000,0.002000,-0.247573,-0.552207,0.780831,0.964364,2.503892,-1.320782,2.234627,5.833852,-8.444965,0.002000,-2.111349,-0.029395
419.000000,0.002000,0.409475,1.060452,1.555711,1.998883,2.970213,-0.357111,-0.916875,-2.026893,-3.360009,0.002000,0.389148,0.462067
420.000000,0.002000,-2.063433,0.235570,-1.245365,-0.225822,-0.220599,-0.646733,2.588170,-0.250770,1.528362,0.002000,0.169529,-0.331891
421.000000,0.002000,-0.005068,0.279597,-0.300553,-0.298217,-0.085868,-3.620460,-2.260774,-9.555369,11.689132,0.002000,0.059332,0.297539
422.000000,0.002000,-2.509878,-1.274628,0.417255,-0.856588,-0.680363,0.400778,2.085647,1.018387,-0.368663,0.002000,0.053188,-0.068592
423.000000,0.002000,0.112158,-2.554793,1.952238,-0.465688,-2.007707,1.644766,-0.090650,1.487440,-1.134962,0.002000,0.457625,0.178960
424.000000,0.002000,0.345577,-1.516386,-0.289902,-1.864734,2.751539,-1.098961,-1.206599,4.937824,0.974554,0.002000,-0.247573,-0.420789
425.000000,0.002000,-0.054229,-0.085235,-0.990333,-1.749029,0.749330,-0.073659,0.274600,1.252572,10.291277,0.002000,0.409475,0.216442
426.000000,0.002000,-0.469030,0.337305,-0.653869,0.018503,0.246057,2.851703,6.260447,-5.194139,8.880374,0.002000,-2.063433,0.317457
427.000000,0.002000,-1.458700,-0.204465,-0.414406,0.266404,2.002273,0.418974,5.460370,0.749881,1.694678,0.002000,-0.005068,0.138747
428.000000,0.002000,0.250073,-0.240248,-0.589026,1.499682,-3.025011,1.102482,-5.967042,6.133154,11.962631,0.002000,-2.509878,-0.207967
429.000000,0.002000,-0.497291,0.716871,0.016720,1.170998,1.837589,-0.679753,6.298654,-10.312266,-0.091689,0.002000,0.112158,-0.052854
430.000000,0.002000,1.995231,-1.215924,-1.061427,1.609399,-1.115550,-0.053095,-2.152677,1.345580,1.168918,0.002000,0.345577,-1.485176
431.000000,0.002000,-0.403827,-0.250984,0.407220,0.606779,-1.531117,-0.313311,8.677259,6.716972,-11.137869,0.002000,-0.054229,-0.380201
432.000000,0.002000,0.127283,-1.602065,0.964439,-0.568029,0.870267,-0.305041,-0.415852,3.509504,-2.088587,0.002000,-0.469030,-1.360517
433.000000,0.002000,0.212565,0.181705,0.221692,-0.038963,0.296268,-0.438171,-9.178644,-4.153808,-10.276608,0.002000,-1.458700,-0.066856
434.000000,0.002000,-1.890808,1.708128,2.202608,1.579057,1.253100,0.436848,0.965345,-0.880221,-1.139407,0.002000,0.250073,-0.756666
435.000000,0.002000,-0.158826,0.407010,0.482848,0.778846,1.672688,-2.402156,4.665154,-9.555808,-13.222684,0.002000,-0.497291,-0.485914
436.000000,0.002000,-0.723845,0.244468,-0.737642,-0.477388,-1.804415,2.379616,6.743789,-2.102580,6.823222,0.002000,1.995231,-0.213628
437.000000,0.002000,-0.166009,0.101996,-0.249721,2.228149,-1.499580,2.832356,9.906831,-9.299127,14.246182,0.002000,-0.403827,1.425216
438.000000,0.002000,-0.268166,-0.219872,-0.360023,0.901554,0.696565,-0.589403,8.484012,7.059811,13.149705,0.002000,0.127283,-0.552207
439.000000,0.002000,0.158240,-0.432079,-0.206112,-1.553297,-0.407968,-2.940605,-7.148149,15.569059,6.036617,0.002000,0.212565,1.060452
440.000000,0.002000,0.416367,0.067763,0.199356,-3.332463,-0.701219,1.708935,-16.950323,-2.978067,-8.069144,0.002000,-1.890808,0.235570
441.000000,0.002000,0.473108,0.189374,0.748360,-0.486939,1.718086,-1.168257,-5.610321,-2.766689,-9.078439,0.002000,-0.158826,0.279597
442.000000,0.002000,-0.140085,-0.234423,0.097770,0.972790,-2.416093,-2.998910,6.768769,11.761978,-10.332694,0.002000,-0.723845,-1.274628
443.000000,0.002000,-0.217294,-0.542810,0.050057,2.744485,3.212018,1.521773,7.005735,12.682609,0.795049,0.002000,-0.166009,-2.554793
444.000000,0.002000,0.133277,-0.492662,-0.183024,-0.216368,1.940136,-0.711270,-5.024545,16.686577,4.325905,0.002000,-0.268166,-1.516386
445.000000,0.002000,-0.057817,0.181160,-0.431607,1.324463,-0.149766,0.810919,1.857824,-7.020079,18.500441,0.002000,0.158240,-0.085235
446.000000,0.002000,0.108539,0.008281,-1.095978,-0.826869,-0.771943,2.749413,-0.911599,0.102200,8.853740,0.002000,0.416367,0.337305
447.000000,0.002000,-0.372979,0.612896,0.094344,1.590515,-2.108178,0.245218,5.801798,-12.097539,-1.508631,0.002000,0.473108,-0.204465
448.000000,0.002000,-1.274299,0.923175,-0.457191,-1.166939,0.675075,1.532884,3.951592,-2.820341,1.521466,0.002000,-0.140085,-0.240248
449.000000,0.002000,0.066882,0.241802,0.086463,3.001017,-0.987453,2.458242,-0.298279,-13.576329,-8.408473,0.002000,-0.217294,0.716871
450.000000,0.002000,0.182266,0.386035,-1.086143,-1.171806,0.125202,2.264804,-1.377012,-2.736580,7.692857,0.002000,0.133277,-1.215924
451.000000,0.002000,1.953354,-1.027250,-2.508916,0.453548,-2.648357,0.133657,-1.021398,0.523384,1.312334,0.002000,-0.057817,-0.250984
452.000000,0.002000,-2.264834,0.840967,0.810603,-1.550234,2.233161,0.954767,2.626904,-0.986244,-0.977194,0.002000,0.108539,-1.602065
453.000000,0.002000,2.224159,-0.650058,1.174617,1.305646,-0.520277,-0.159768,-2.125954,0.837577,-1.565667,0.002000,-0.372979,0.181705
454.000000,0.002000,0.375254,0.331060,-0.249108,-1.281070,-3.047615,-1.249498,-11.650134,-9.151529,8.046838,0.002000,-1.274299,1.708128
455.000000,0.002000,-0.171459,-1.895534,0.687234,-0.539611,0.359087,-0.669535,0.218163,3.278394,-1.270038,0.002000,0.066882,0.407010
456.000000,0.002000,0.024982,-0.290129,0.316453,1.532879,-0.197340,-0.412260,-0.113030,8.471650,-14.260259,0.002000,0.182266,0.244468
457.000000,0.002000,-0.853733,-1.911576,-0.361415,0.218544,0.299368,0.459513,1.384047,3.258179,0.558049,0.002000,1.953354,0.101996
458.000000,0.002000,-0.080761,-0.519624,-0.261425,0.307725,-2.455546,2.122785,1.426727,16.244996,6.480094,0.002000,-2.264834,-0.219872
459.000000,0.002000,0.128631,0.177313,-0.987122,2.553941,-2.077771,-0.510033,-1.397169,-1.335199,10.099518,0.002000,2.224159,-0.432079
460.000000,0.002000,-0.178656,0.130636,-0.062021,-1.968080,0.933844,-0.434223,8.395932,-6.686694,6.753077,0.002000,0.375254,0.067763
461.000000,0.002000,0.978148,-0.178135,-0.264213,-1.718278,-0.435807,-2.131024,-10.133561,1.557053,2.743309,0.002000,-0.171459,0.189374
462.000000,0.002000,-0.224156,0.335806,0.457201,3.837554,-1.798930,-1.107800,7.187106,-8.246019,-12.895625,0.002000,0.024982,-0.234423
463.000000,0.002000,0.045783,0.646599,0.638194,1.138068,-0.441373,1.462667,-0.336547,-7.310299,-8.191753,0.002000,-0.853733,-0.542810
464.000000,0.002000,-0.704007,-0.345356,0.215646,-1.749726,1.478702,-1.454376,11.359019,6.161540,-3.310763,0.002000,-0.080761,-0.492662
465.000000,0.002000,0.069413,0.473575,-0.383705,0.346939,4.526396,2.185378,-1.307920,-11.926489,11.109183,0.002000,0.128631,0.181160
466.000000,0.002000,1.552779,-1.569713,-0.450786,0.619108,-1.182207,-2.080447,-2.139629,2.250978,0.807226,0.002000,-0.178656,0.008281
467.000000,0.002000,-0.335674,-0.125499,-0.282146,2.324241,-0.345758,0.590804,9.536815,6.298167,10.426489,0.002000,0.978148,0.612896
468.000000,0.002000,-1.329635,0.521653,-0.564074,-3.645635,0.246751,0.352049,4.847072,-1.842887,1.973212,0.002000,-0.224156,0.923175
469.000000,0.002000,-0.147025,-0.065077,0.144967,1.745665,-2.418723,1.966595,8.916867,5.564063,-14.696117,0.002000,0.045783,0.241802
470.000000,0.002000,-1.122023,-0.670356,0.110710,-3.989573,0.541291,0.119323,4.583671,4.166387,-1.549946,0.002000,-0.704007,0.386035
471.000000,0.002000,0.885165,0.595166,-1.245845,-0.501007,-1.427630,0.421158,-3.490692,-2.263364,3.330267,0.002000,0.069413,-1.027250
472.000000,0.002000,-0.029329,0.868855,0.898186,-2.383503,2.941733,-0.869839,0.522295,-5.106702,-6.184318,0.002000,1.552779,0.840967
473.000000,0.002000,-0.354602,2.343819,2.926698,-2.418466,0.460242,2.135646,0.127481,-0.863103,-1.096839,0.002000,-0.335674,-0.650058
474.000000,0.002000,0.169231,0.400849,-0.571313,3.043846,1.350505,1.514255,-3.995354,-8.480251,13.360673,0.002000,-1.329635,0.331060
475.000000,0.002000,-0.198983,-0.831474,-0.533340,-1.459881,0.331086,-0.162903,1.890320,8.386931,5.286930,0.002000,-0.147025,-1.895534
476.000000,0.002000,0.439636,-2.044550,0.548553,0.670629,-0.301176,1.112873,-0.794156,3.037961,-0.800367,0.002000,-1.122023,-0.290129
477.000000,0.002000,0.410889,0.386242,0.268234,-1.114878,0.422845,3.066408,-10.733995,-9.781221,-7.550228,0.002000,0.885165,-1.911576
478.000000,0.002000,1.181138,2.525930,-1.146452,0.408477,2.386343,-1.083655,-0.828517,-1.749497,0.820978,0.002000,-0.029329,-0.519624
479.000000,0.002000,0.052159,-0.361205,-0.638311,2.305651,-1.614225,1.246215,-0.956913,7.075877,13.817378,0.002000,-0.354602,0.177313
480.000000,0.002000,-0.978576,-2.152494,-0.997175,-1.128208,-0.910443,0.314562,0.975520,2.242612,1.092275,0.002000,0.169231,0.130636
481.000000,0.002000,-1.347389,-1.209638,0.602150,0.911001,-0.690154,1.072796,2.640391,2.866132,-1.359287,0.002000,-0.198983,-0.178135
482.000000,0.002000,0.121148,1.821769,-1.122160,0.583208,0.762297,0.658877,-0.318740,-2.874421,1.857105,0.002000,0.439636,0.335806
483.000000,0.002000,3.298534,-1.141708,-0.985974,2.812175,-1.034229,-0.548598,-1.350204,0.462195,0.405550,0.002000,0.410889,0.646599
484.000000,0.002000,-0.125853,-0.556598,0.031723,1.204739,0.980748,0.859360,3.225590,16.042835,-0.414315,0.002000,1.181138,-0.345356
485.000000,0.002000,0.168157,0.191475,-0.082189,-0.717135,-1.072197,0.227887,-9.852558,-9.836589,4.731682,0.002000,0.052159,0.473575
486.000000,0.002000,-1.052495,-1.224948,-0.057395,-0.080851,-0.499487,-2.322794,3.473393,4.009117,0.175922,0.002000,-0.978576,-1.569713
487.000000,0.002000,0.551918,2.245031,0.805267,-0.381637,1.364860,2.088723,-0.599709,-2.636102,-1.025674,0.002000,-1.347389,-0.125499
488.000000,0.002000,0.106059,0.061362,1.105634,2.293896,-1.235944,2.955256,-0.587552,-0.164375,-8.227286,0.002000,0.121148,0.521653
489.000000,0.002000,-0.008384,0.299615,0.265112,-1.665887,4.249395,-1.487513,1.176361,-12.630234,-12.423357,0.002000,3.298534,-0.065077
490.000000,0.002000,1.647131,-0.015226,0.960774,0.871931,0.591370,-0.681236,-3.392672,0.099517,-1.954378,0.002000,-0.125853,-0.670356
491.000000,0.002000,0.372911,-0.054580,0.198431,-0.477180,0.712091,1.331938,-15.127630,1.958665,-9.051598,0.002000,0.168157,0.595166
492.000000,0.002000,-0.337188,-0.175009,-0.337022,1.244426,0.808626,-0.402824,10.211606,6.768497,13.171298,0.002000,-1.052495,0.868855
493.000000,0.002000,-1.101133,0.064840,0.455930,2.272837,0.516645,0.950055,7.642656,-0.691869,-3.062861,0.002000,0.551918,2.343819
494.000000,0.002000,0.374314,-0.142457,-0.055086,-1.678093,1.461153,-1.684196,-15.930880,6.295598,0.121681,0.002000,0.106059,0.400849
495.000000,0.002000,-0.175016,0.020687,0.020545,-1.957552,1.063519,3.246717,8.113895,0.466833,-1.225972,0.002000,-0.008384,-0.831474
496.000000,0.002000,2.105492,0.148010,-1.204194,0.867733,0.824816,0.102030,-2.502364,-0.232193,1.421207,0.002000,1.647131,-2.044550
497.000000,0.002000,2.602830,-5.229431,-3.094743,-0.492179,-2.044623,-0.694247,-0.180415,0.361531,0.213593,0.002000,0.372911,0.386242
498.000000,0.002000,0.146648,0.686771,-0.404396,-1.910598,0.606523,0.354313,-3.011263,-10.789179,7.005495,0.002000,-0.337188,2.525930
499.000000,0.002000,-0.266932,-1.874803,1.682858,-1.082600,-0.035370,0.470595,0.305577,2.017281,-1.869321,0.002000,-1.101133,-0.361205
500.000000,0.002000,0.265522,0.483127,0.452366,0.966236,-0.535555,2.502044,-3.990865,-9.773270,-11.362145,0.002000,0.374314,-2.152494
501.000000,0.002000,-0.069888,-0.077638,-0.012708,2.535000,-0.096869,-1.611887,-0.419564,4.171113,5.460492,0.002000,-0.175016,-1.209638
502.000000,0.002000,-0.418492,-0.717272,0.521773,3.029634,0.479339,0.113239,4.724699,8.207967,-5.457267,0.002000,2.105492,1.821769
503.000000,0.002000,0.044514,0.480375,-0.237772,-0.216148,1.395749,2.996544,-1.381369,-14.866262,8.487771,0.002000,2.602830,-1.141708
504.000000,0.002000,-1.275331,0.029502,-0.364106,1.041240,-0.909894,2.023750,7.042299,0.173446,1.924226,0.002000,0.146648,-0.556598
505.000000,0.002000,0.404311,0.562192,0.121749,-2.713107,-3.144463,0.375293,-7.901805,-12.637236,-3.481613,0.002000,-0.266932,0.191475
506.000000,0.002000,-0.156505,-0.587436,0.233036,-0.014733,2.618368,-0.238579,3.550048,14.729950,-6.553743,0.002000,0.265522,-1.224948
507.000000,0.002000,0.457315,-0.100594,0.826802,-3.083729,0.619612,-0.232221,-6.144486,1.219198,-10.357991,0.002000,-0.069888,2.245031
508.000000,0.002000,1.716238,-1.484757,-0.866822,0.437475,-0.692992,0.580004,-1.784785,1.862183,0.710996,0.002000,-0.418492,0.061362
509.000000,0.002000,-0.414566,-0.773427,-0.802785,0.585575,2.439632,1.016260,2.770663,5.404119,5.388485,0.002000,0.044514,0.299615
510.000000,0.002000,-1.438645,0.832081,1.348694,-1.516539,0.233995,2.357368,2.155612,-1.313973,-2.255086,0.002000,-1.275331,-0.015226
511.000000,0.002000,2.438606,-3.055135,-1.829618,1.715498,-1.053964,1.032297,-0.604497,0.744049,0.478963,0.002000,0.404311,-0.054580
512.000000,0.002000,0.124672,0.068655,0.487307,3.007147,-0.115645,-1.547677,-3.435604,-0.855829,-16.161078,0.002000,-0.156505,-0.175009
513.000000,0.002000,-0.097448,0.062142,-1.383699,-2.609251,-0.623773,-2.592437,0.269073,-0.122920,6.534860,0.002000,0.457315,0.064840
514.000000,0.002000,-0.710758,0.637185,0.136855,2.809090,0.051349,-1.372233,8.457277,-7.405965,-1.833476,0.002000,1.716238,-0.142457
515.000000,0.002000,-0.878768,2.220022,1.344929,-0.494164,1.440652,1.158392,0.712327,-2.012450,-1.221691,0.002000,-0.414566,0.020687
516.000000,0.002000,0.458176,-0.136239,0.136396,0.107689,0.099784,0.744083,-16.479961,5.019102,-4.954717,0.002000,-1.438645,0.148010
517.000000,0.002000,0.257897,-0.533494,0.432964,0.025629,0.274113,2.506622,-5.957581,9.918193,-8.397586,0.002000,2.438606,-5.229431
518.000000,0.002000,0.123839,0.378090,0.075893,-0.988289,-0.451157,1.925194,-2.345398,-16.665970,-2.961140,0.002000,0.124672,0.686771
519.000000,0.002000,0.080730,-0.558962,0.011289,0.604265,-3.029511,-0.182790,-3.921806,16.625308,-1.165211,0.002000,-0.097448,-1.874803
520.000000,0.002000,-0.610709,0.395930,-0.260574,-0.190960,-1.859127,0.319709,10.565778,-7.332235,5.519207,0.002000,-0.710758,0.483127
521.000000,0.002000,0.307747,0.765235,0.010796,-1.917183,2.364171,1.586714,-5.252204,-12.456795,-0.618931,0.002000,-0.878768,-0.077638
522.000000,0.002000,0.278901,-0.271744,-0.084232,1.572060,2.209662,1.194576,-10.180947,11.638854,3.674543,0.002000,0.458176,-0.717272
523.000000,0.002000,-0.185531,-0.038308,-0.553023,2.772075,-1.288498,1.261181,6.996416,1.487631,18.009597,0.002000,0.257897,0.480375
524.000000,0.002000,0.895455,1.035750,-0.075562,2.061906,2.336533,-0.291922,-4.040134,-4.864507,0.395312,0.002000,0.123839,0.029502
525.000000,0.002000,1.741313,1.533557,-0.340892,-0.283394,-0.213873,0.602013,-2.281155,-1.930640,0.420563,0.002000,0.080730,0.562192
526.000000,0.002000,-0.526536,-0.446843,-0.117655,-0.320952,-1.327396,1.402602,11.194585,10.049353,1.392590,0.002000,-0.610709,-0.587436
527.000000,0.002000,0.190324,0.026670,-0.249078,-1.540279,-1.448910,-3.614180,-10.545705,2.294620,11.527646,0.002000,0.307747,-0.100594
528.000000,0.002000,1.441512,-1.084562,2.091142,1.720899,-0.315602,-0.473176,-1.215744,0.916040,-1.876098,0.002000,0.278901,-1.484757
529.000000,0.002000,0.274467,0.133902,-0.394900,-0.682121,1.950459,-2.112422,-9.602055,-4.916050,14.466681,0.002000,-0.185531,-0.773427
530.000000,0.002000,-0.456470,-1.919883,-0.924008,1.291019,-2.564125,-1.075666,0.734699,3.112310,1.523734,0.002000,0.895455,0.832081
531.000000,0.002000,0.659633,-0.062384,1.851450,-0.917513,-0.052830,0.046211,-0.567837,-0.387490,-2.924194,0.002000,1.741313,-3.055135
532.000000,0.002000,-0.642744,0.935616,1.026031,2.341920,0.997339,1.206200,2.280790,-3.295294,-3.778107,0.002000,-0.526536,0.068655
533.000000,0.002000,1.223810,0.683555,-1.310728,-1.222200,1.179850,-0.941606,-2.644869,-1.484797,2.675880,0.002000,0.190324,0.062142
534.000000,0.002000,-0.130100,0.091563,0.061513,1.968992,-0.463241,1.961869,6.467182,-4.251660,-4.695164,0.002000,1.441512,0.637185
535.000000,0.002000,1.412754,1.323669,1.590966,1.142337,1.125993,1.001673,-1.612137,-1.415561,-1.787344,0.002000,0.274467,2.220022
536.000000,0.002000,-1.272013,-2.176404,-0.404905,-0.476932,-0.549288,-0.253364,1.280861,2.280406,0.404637,0.002000,-0.456470,-0.136239
537.000000,0.002000,0.442178,0.008753,1.019889,-1.563715,-1.825744,-1.393226,-3.653800,0.164088,-8.494223,0.002000,0.659633,-0.533494
538.000000,0.002000,1.135969,-1.512176,-0.418733,-2.023943,1.802974,0.953346,-2.490033,2.806249,0.826190,0.002000,-0.642744,0.378090
539.000000,0.002000,0.038222,0.376101,1.052877,-1.819211,-0.726147,2.938968,-0.486749,-2.643760,-8.050891,0.002000,1.223810,-0.558962
540.000000,0.002000,-0.311120,0.783397,-0.119222,-0.707616,-1.889287,-0.152372,5.265720,-11.634703,1.528556,0.002000,-0.130100,0.395930
541.000000,0.002000,0.252446,1.640251,1.435681,-0.357038,-0.161217,-0.089975,-0.307374,-2.541595,-2.185576,0.002000,1.412754,0.765235
542.000000,0.002000,0.434642,0.026444,0.933702,-2.548697,-0.058205,0.580167,-4.038724,-0.222530,-9.088701,0.002000,-1.272013,-0.271744
543.000000,0.002000,0.092067,-0.148032,0.323994,2.336896,0.724181,3.777042,-7.578429,4.841925,-15.275856,0.002000,0.442178,-0.038308
544.000000,0.002000,-0.068237,-0.318307,0.370674,1.725123,0.773590,-1.784622,0.491710,9.179040,-15.027804,0.002000,1.135969,1.035750
545.000000,0.002000,0.552247,-1.601275,-0.216640,1.335215,-1.532033,-0.796079,-1.897063,4.465127,0.627712,0.002000,0.038222,1.533557
546.000000,0.002000,-0.059587,-0.162889,0.128855,-2.754508,-0.622278,0.931221,2.177563,8.413868,-12.538769,0.002000,-0.311120,-0.446843
547.000000,0.002000,0.095694,0.416700,-0.276409,-0.566640,2.038808,-2.566415,-3.788798,-15.783603,8.441445,0.002000,0.252446,0.026670
548.000000,0.002000,-0.934085,1.650780,1.460361,0.228745,0.882672,0.365682,1.206994,-2.017053,-1.838097,0.002000,0.434642,-1.084562
549.000000,0.002000,-2.147955,-0.139760,0.339642,-1.330631,1.809525,-1.036187,3.420984,0.406422,-0.405214,0.002000,0.092067,0.133902
550.000000,0.002000,0.161386,-0.773233,0.157039,-0.221259,-2.821405,-1.533393,-2.441940,12.709691,-1.841120,0.002000,-0.068237,-1.919883
551.000000,0.002000,0.961878,0.917925,1.153203,2.798086,1.352005,-0.120546,-2.840299,-2.174431,-3.031731,0.002000,0.552247,-0.062384
552.000000,0.002000,0.177281,0.032464,0.916946,-1.366123,1.455290,1.152550,-1.590101,-0.563608,-10.618451,0.002000,-0.059587,0.935616
553.000000,0.002000,1.005825,-0.720507,-2.050544,1.677727,-1.262818,-0.701918,-1.309854,0.920430,2.569314,0.002000,0.095694,0.683555
554.000000,0.002000,0.150297,-0.100265,0.010918,-1.702073,-1.384032,-1.006524,-11.572472,4.482162,-3.764301,0.002000,-0.934085,0.091563
555.000000,0.002000,-0.007593,-0.883121,-0.297643,1.235953,-1.850234,-1.180125,0.269142,9.971165,3.255592,0.002000,-2.147955,1.323669
556.000000,0.002000,-0.294996,-0.326301,0.633587,-0.110896,-1.898765,1.353175,4.134563,6.002725,-11.431913,0.002000,0.161386,-2.176404
557.000000,0.002000,0.273265,0.074506,0.808206,-2.170845,0.011212,0.302818,-3.247844,-1.594470,-11.632092,0.002000,0.961878,0.008753
558.000000,0.002000,0.845125,1.178773,1.924655,1.255488,-0.765081,1.499669,-1.181907,-0.999485,-2.354258,0.002000,0.177281,-1.512176
559.000000,0.002000,-1.080218,-0.654666,-0.183877,-0.325047,1.871598,-3.020337,6.539181,4.247956,-0.802129,0.002000,1.005825,0.376101
560.000000,0.002000,0.063413,-0.004542,-2.041608,0.251220,2.443297,-1.166999,-0.204282,-0.057322,3.641023,0.002000,0.150297,0.783397
561.000000,0.002000,0.010837,-0.341859,-0.164106,1.382673,3.462434,-1.202769,-1.259876,15.606970,6.787581,0.002000,-0.007593,1.640251
562.000000,0.002000,-0.022324,-1.975581,-0.009181,-2.904978,0.823606,0.073932,0.315495,3.347799,-0.014637,0.002000,-0.294996,0.026444
563.000000,0.002000,1.690839,-1.171238,-1.182894,1.048905,-1.019653,0.341659,-2.110960,1.406551,1.402429,0.002000,0.273265,-0.148032
564.000000,0.002000,2.142074,-1.194308,0.276493,0.012235,-1.355609,1.097293,-2.502147,1.416748,-0.352640,0.002000,0.845125,-0.318307
565.000000,0.002000,1.569531,-1.055572,-0.598729,-2.707005,0.032047,0.078751,-2.883483,2.007354,1.087888,0.002000,-1.080218,-1.601275
566.000000,0.002000,0.629740,0.432814,-1.068820,0.028367,-1.395224,1.708027,-3.473405,-2.079260,5.498536,0.002000,0.063413,-0.162889
567.000000,0.002000,1.940059,-0.521105,1.629589,1.699387,-0.106339,0.594860,-1.979029,0.524536,-1.692153,0.002000,0.010837,0.416700
568.000000,0.002000,-0.124504,-0.194106,0.073603,0.160891,2.791453,-1.987739,5.887641,10.796184,-6.533752,0.002000,-0.022324,1.650780
569.000000,0.002000,-0.348233,0.717443,-1.405864,-0.785704,1.541416,1.453415,1.036708,-2.300663,4.589253,0.002000,1.690839,-0.139760
570.000000,0.002000,0.500826,-3.952356,2.844139,0.551443,-0.176837,0.443404,-0.087021,0.663606,-0.479004,0.002000,2.142074,-0.773233
571.000000,0.002000,-0.037212,0.619326,0.481250,-1.678257,-0.967017,2.381187,0.771179,-9.945062,-8.779552,0.002000,1.569531,0.917925
572.000000,0.002000,2.017172,-0.510570,0.216917,1.309492,-1.262568,-0.795690,-3.445989,0.925101,-0.368340,0.002000,0.629740,0.032464
573.000000,0.002000,-0.018754,0.128996,-0.064086,-0.356953,-3.026714,1.778093,-0.842832,-8.352245,6.380335,0.002000,1.940059,-0.720507
574.000000,0.002000,1.172558,-0.533356,-0.752130,-1.691210,-0.419046,-1.418598,-4.599144,2.113745,2.865120,0.002000,-0.124504,-0.100265
575.000000,0.002000,-0.252112,1.889487,0.275937,0.808342,2.647471,0.023241,0.545032,-3.869297,-0.493005,0.002000,-0.348233,-0.883121
576.000000,0.002000,-0.308855,-0.797026,0.191692,-1.672106,-0.171283,-0.597187,4.061142,11.246768,-2.494915,0.002000,0.500826,-0.326301
577.000000,0.002000,-0.348511,0.235264,0.665597,-1.804782,0.143186,-1.367507,5.263809,-4.056014,-11.514851,0.002000,-0.037212,0.074506
578.000000,0.002000,2.264313,3.547751,0.040023,-0.162577,-0.398517,-1.028746,-0.613632,-0.946660,-0.009583,0.002000,2.017172,1.178773
579.000000,0.002000,0.013114,-1.827496,1.611233,0.001013,0.154038,0.766153,-0.107545,2.125363,-1.975902,0.002000,-0.018754,-0.654666
580.000000,0.002000,-0.092978,-0.024244,-0.353269,3.292351,-3.942876,-0.356204,6.096996,2.968326,16.636330,0.002000,1.172558,-0.004542
581.000000,0.002000,0.253069,0.397750,-0.237577,2.511823,-2.789398,-1.315431,-9.155800,-13.639182,8.347007,0.002000,-0.252112,-0.341859
582.000000,0.002000,0.863185,0.749134,2.312738,0.122004,1.137376,1.954887,-0.987792,-0.742714,-2.427013,0.002000,-0.308855,-1.975581
583.000000,0.002000,-0.508471,1.099182,4.207607,1.168792,1.489726,0.037490,0.112652,-0.253631,-0.995080,0.002000,-0.348511,-1.171238
584.000000,0.002000,-0.336174,0.388751,-0.506538,-1.597168,1.651408,0.439670,5.590976,-9.360869,9.946820,0.002000,2.264313,-1.194308
585.000000,0.002000,-2.067298,-0.392071,0.970343,0.340741,-0.932045,0.780499,2.770046,0.475512,-1.515599,0.002000,0.013114,-1.055572
586.000000,0.002000,0.459426,0.056572,-0.282565,1.869430,-1.007412,-0.364851,-15.591190,-2.041748,7.513074,0.002000,-0.092978,0.432814
587.000000,0.002000,0.544402,2.211950,-1.510819,0.988640,0.698749,-0.534277,-0.588340,-1.924683,1.278878,0.002000,0.253069,-0.521105
588.000000,0.002000,-0.416505,1.189393,-0.430965,0.455793,-2.338208,0.016568,2.180198,-6.308367,2.228816,0.002000,0.863185,-0.194106
589.000000,0.002000,0.522673,0.271829,1.357557,-0.886810,1.842894,-0.776295,-2.055807,-1.089988,-5.252597,0.002000,-0.508471,0.717443
590.000000,0.002000,1.342002,2.237284,0.237967,1.372675,0.932268,1.302233,-1.644561,-2.271344,-0.410953,0.002000,-0.336174,-3.952356
591.000000,0.002000,0.337682,-0.083386,-0.117660,-1.999791,-2.245500,0.507254,-13.352401,2.410572,5.715135,0.002000,-2.067298,0.619326
592.000000,0.002000,-0.331675,-0.131437,-0.199542,-2.484200,-2.551210,-0.882813,11.997909,7.016230,7.478408,0.002000,0.459426,-0.510570
593.000000,0.002000,-1.563234,0.924710,1.440606,-1.058533,1.241526,0.963006,2.025744,-1.360875,-2.011512,0.002000,0.544402,0.128996
594.000000,0.002000,-0.891405,-1.902479,0.056105,-0.521910,-1.666928,1.849215,1.483720,3.147478,-0.127449,0.002000,-0.416505,-0.533356
595.000000,0.002000,0.273196,0.097392,0.095982,-0.845093,4.401290,0.906417,-14.518491,-4.703509,-6.182238,0.002000,0.522673,1.889487
596.000000,0.002000,-2.122119,1.894196,0.070363,-1.389296,0.458498,0.493393,1.727093,-1.559106,-0.035499,0.002000,1.342002,-0.797026
597.000000,0.002000,-1.619691,-0.543579,-1.012349,0.433947,-1.668968,-0.156008,3.163290,1.181181,1.757975,0.002000,0.337682,0.235264
598.000000,0.002000,-0.131042,0.444809,0.062275,-1.851345,-0.827882,-3.216559,3.916370,-17.595287,-2.596812,0.002000,-0.331675,3.547751
599.000000,0.002000,-1.070798,-0.814217,-0.380695,-0.145564,0.689990,1.895951,4.948088,3.799324,1.701410,0.002000,-1.563234,-1.827496
600.000000,0.002000,-0.614740,-1.123900,-0.147574,1.403650,1.064545,1.001745,3.435892,6.022775,0.972718,0.002000,-0.891405,-0.024244
601.000000,0.002000,0.139939,0.137034,0.869884,-2.274145,2.438955,-0.516367,-1.878892,-1.711039,-10.951959,0.002000,0.273196,0.397750
602.000000,0.002000,-0.080173,-0.059761,0.143631,-4.224709,3.064181,-0.841820,3.878785,3.758428,-12.370560,0.002000,-2.122119,0.749134
603.000000,0.002000,0.141450,-1.440611,-1.054083,-2.059780,-1.324426,-1.335216,-0.211356,3.613503,2.507317,0.002000,-1.619691,1.099182
604.000000,0.002000,0.311070,0.597269,0.114392,2.332777,0.802479,0.178970,-6.943368,-13.225081,-2.478255,0.002000,-0.131042,0.388751
605.000000,0.002000,-0.571119,-0.038806,-0.084337,1.699242,1.755209,2.498206,17.705869,2.023472,1.599878,0.002000,-1.070798,-0.392071
606.000000,0.002000,0.603703,-0.879647,0.192875,4.258614,0.161442,-1.740921,-4.727213,8.440959,-2.588157,0.002000,-0.614740,0.056572
607.000000,0.002000,0.078159,0.483989,-1.029004,1.886146,1.119460,0.858976,-0.727202,-3.713361,7.649718,0.002000,0.139939,2.211950
608.000000,0.002000,-0.245788,0.362611,0.010336,-0.708931,0.443063,1.774849,12.773153,-13.609457,-2.199149,0.002000,-0.080173,1.189393
609.000000,0.002000,1.190284,0.726629,0.610871,2.256760,0.448990,1.663414,-4.432046,-2.798594,-2.042794,0.002000,0.141450,0.271829
610.000000,0.002000,-0.279812,-0.365485,-0.241780,0.498971,1.910239,-0.048985,8.762600,11.106739,6.070585,0.002000,0.311070,2.237284
611.000000,0.002000,-0.032010,-0.376846,0.405132,-0.489801,-1.362653,-1.725993,0.181789,10.935211,-14.096008,0.002000,-0.571119,-0.083386
612.000000,0.002000,-0.328907,0.050840,-0.224639,-1.677699,0.746173,0.757739,13.348959,-1.194488,11.709538,0.002000,0.603703,-0.131437
613.000000,0.002000,-0.175110,0.079776,-0.237180,-0.175501,1.687217,-3.577896,14.388970,-4.446899,11.592706,0.002000,0.078159,0.924710
614.000000,0.002000,0.215357,-0.157500,-0.379136,-1.636545,-1.022820,-3.442941,-8.063782,5.290621,13.343716,0.002000,-0.245788,-1.902479
615.000000,0.002000,0.019952,0.906369,-0.070742,0.957309,2.657474,1.461134,-0.862903,-12.379284,0.630730,0.002000,1.190284,0.097392
616.000000,0.002000,-0.329863,0.058833,0.547254,-2.907839,-0.285218,-0.911613,4.882308,-0.201116,-13.238068,0.002000,-0.279812,1.894196
617.000000,0.002000,-0.491783,-0.377989,-0.529721,-0.520887,0.493526,-0.669105,6.987671,6.498978,8.564247,0.002000,-0.032010,-0.543579
618.000000,0.002000,-0.202498,0.327033,-0.080544,0.041712,-1.273409,-1.349545,9.634684,-14.038644,3.612209,0.002000,-0.328907,0.444809
619.000000,0.002000,0.466996,0.695594,-2.387296,0.563104,0.497158,-1.980813,-0.561023,-0.676807,2.708756,0.002000,-0.175110,-0.814217
620.000000,0.002000,0.284750,0.463914,0.431687,-2.224596,-0.337526,-1.317589,-6.438264,-8.261805,-9.963170,0.002000,0.215357,-1.123900
621.000000,0.002000,0.288697,0.202536,0.303611,1.473789,4.060335,-1.060485,-9.862684,-8.772690,-9.378806,0.002000,0.019952,0.137034
622.000000,0.002000,0.129283,0.114462,-0.590676,3.099129,-2.409064,0.775936,-7.739695,-5.857700,16.448793,0.002000,-0.329863,-0.059761
623.000000,0.002000,0.120255,-0.171584,-0.124464,-1.187905,1.477275,-0.092328,-5.591947,12.242372,6.768498,0.002000,-0.491783,-1.440611
624.000000,0.002000,-0.380567,0.105953,-0.064119,-1.443942,-1.052123,0.321526,11.951380,-4.816734,7.395909,0.002000,-0.202498,0.597269
625.000000,0.002000,0.578499,2.152790,0.667684,0.320119,1.903749,0.993410,-0.692873,-2.962185,-0.894434,0.002000,0.466996,-0.038806
626.000000,0.002000,0.223756,-0.259731,0.428629,3.610577,1.278774,0.493698,-8.417412,5.387546,-14.604509,0.002000,0.284750,-0.879647
627.000000,0.002000,-0.046556,0.289935,-0.525325,1.192613,1.470258,0.228348,0.187608,-8.442213,15.326511,0.002000,0.288697,0.483989
628.000000,0.002000,-0.241719,0.680997,-0.636042,1.141309,-1.157449,-2.067598,3.025171,-7.916952,6.904789,0.002000,0.129283,0.362611
629.000000,0.002000,-0.502177,0.114790,-0.870892,-2.070480,1.013736,2.290658,5.047226,-1.067964,8.889766,0.002000,0.120255,0.726629
630.000000,0.002000,-0.317315,0.041152,-0.012157,-2.919000,-0.495860,3.199026,16.110164,-2.497670,-1.190956,0.002000,-0.380567,-0.365485
631.000000,0.002000,2.798233,-0.607575,0.877639,1.028269,0.278534,0.419929,-1.995105,0.422516,-0.594679,0.002000,0.578499,-0.376846
632.000000,0.002000,-0.500257,-0.472847,0.286073,-0.199581,2.083336,-0.394336,9.463477,9.329418,-4.926265,0.002000,0.223756,0.050840
633.000000,0.002000,0.493514,1.661989,-1.790619,1.706454,0.714351,-1.791902,-0.626649,-1.912265,2.077522,0.002000,-0.046556,0.079776
634.000000,0.002000,-0.657146,0.317862,-0.500947,-1.714066,-0.433776,0.908803,9.276416,-4.505586,6.865843,0.002000,-0.241719,-0.157500
635.000000,0.002000,0.098896,0.253006,0.058479,2.457719,1.221955,3.431624,-11.292827,-11.375191,-1.138345,0.002000,-0.502177,0.906369
636.000000,0.002000,-0.223378,-0.488282,0.320005,0.248913,-0.620700,-0.302705,3.219788,15.894736,-7.557003,0.002000,-0.317315,0.058833
637.000000,0.002000,1.439371,1.699986,-0.813005,0.579315,0.832572,0.333952,-1.653604,-2.427287,1.659496,0.002000,2.798233,-0.377989
638.000000,0.002000,2.554366,0.271700,0.925077,0.817028,0.154326,0.428908,-2.178809,-0.273649,-0.727021,0.002000,-0.500257,0.327033
639.000000,0.002000,0.643510,-0.258257,-0.676425,-0.416127,0.712796,3.233179,-7.654503,4.319963,8.750666,0.002000,0.493514,0.695594
640.000000,0.002000,-1.014672,0.053829,-0.247614,0.922480,-0.213724,-0.185963,9.796269,-0.370957,2.315627,0.002000,-0.657146,0.463914
641.000000,0.002000,0.355006,0.371513,0.885797,-1.329670,1.499242,-0.261559,-2.764533,-3.074406,-8.525562,0.002000,0.098896,0.202536
642.000000,0.002000,-0.022497,-0.109619,0.104122,-0.541891,1.020779,3.775908,-1.054356,8.361145,-7.574179,0.002000,-0.223378,0.114462
643.000000,0.002000,-2.212059,-0.417273,-0.014677,-1.356165,1.483307,0.982916,3.293556,0.703770,0.058241,0.002000,1.439371,-0.171584
644.000000,0.002000,0.790376,-0.957121,-0.762535,0.071341,2.044234,-0.331440,-3.246753,4.150014,2.878755,0.002000,2.554366,0.105953
645.000000,0.002000,-0.226813,0.213103,0.264764,0.131935,2.562735,0.687198,10.104239,-8.424292,-12.484320,0.002000,0.643510,2.152790
646.000000,0.002000,-0.966399,1.118665,2.248312,-0.114533,0.696937,1.260483,0.714731,-0.911490,-2.174028,0.002000,-1.014672,-0.259731
647.000000,0.002000,1.036788,-1.204154,-1.072384,0.523345,-0.559558,1.234191,-2.128907,2.816596,1.909536,0.002000,0.355006,0.289935
648.000000,0.002000,1.166173,-0.644326,0.001829,-1.176113,-1.029883,0.594810,-6.312675,3.698069,-0.090928,0.002000,-0.022497,0.680997
649.000000,0.002000,0.039626,0.013782,0.095126,-0.314466,-2.295042,-0.915135,-5.061571,2.383061,-8.786753,0.002000,-2.212059,0.114790
650.000000,0.002000,-1.421498,0.213605,0.602391,-1.880280,-3.240323,0.660585,4.998532,-0.947501,-2.126000,0.002000,0.790376,0.041152
651.000000,0.002000,-1.419903,1.087446,1.625609,-2.413057,1.007398,0.509468,1.644364,-1.410189,-1.986189,0.002000,-0.226813,-0.607575
652.000000,0.002000,0.511525,0.418055,-0.355079,-0.958387,1.373229,1.845106,-11.109018,-7.567057,7.500848,0.002000,-0.966399,-0.472847
653.000000,0.002000,-0.927294,1.788218,0.562194,-1.033897,1.766803,1.613623,1.593414,-2.997881,-0.897566,0.002000,1.036788,1.661989
654.000000,0.002000,-0.844947,0.800618,0.790619,2.087191,-1.035083,0.187242,3.777748,-3.653563,-3.596289,0.002000,1.166173,0.317862
655.000000,0.002000,1.914404,-0.517348,0.405239,0.991858,1.801656,1.234466,-3.387296,0.934282,-0.765543,0.002000,0.039626,0.253006
656.000000,0.002000,0.421554,-0.010290,0.432789,-4.213729,0.330297,-1.234702,-12.758785,0.745826,-10.786355,0.002000,-1.421498,-0.488282
657.000000,0.002000,0.581076,-0.168898,0.070473,-0.182968,-0.110834,2.379757,-15.621366,4.952484,-2.035410,0.002000,-1.419903,1.699986
658.000000,0.002000,0.609881,0.093097,-0.276172,-0.361302,0.070411,0.078486,-14.337046,-2.011581,6.303313,0.002000,0.511525,0.271700
659.000000,0.002000,-0.393577,0.293762,1.631057,0.906419,0.743199,-0.205042,1.135269,-1.061114,-4.176385,0.002000,-0.927294,-0.258257
660.000000,0.002000,0.503721,0.379125,0.099141,2.082427,-0.687055,-1.879944,-12.838767,-10.320226,-3.487985,0.002000,-0.844947,0.053829
661.000000,0.002000,-0.506082,0.013180,-0.104870,2.963947,2.552678,2.538571,17.445661,-0.433428,7.040729,0.002000,1.914404,0.371513
662.000000,0.002000,-2.073320,0.229493,0.511867,-1.327911,-0.499868,-1.306993,3.225063,-0.359688,-0.819496,0.002000,0.421554,-0.109619
663.000000,0.002000,0.961769,0.207457,0.102497,-2.257599,-0.516722,-2.114380,-10.179934,-3.162529,-0.861502,0.002000,0.581076,-0.417273
664.000000,0.002000,0.338321,-0.425787,-0.343716,1.493420,0.725285,-1.814914,-8.496906,12.103777,9.496886,0.002000,0.609881,-0.957121
665.000000,0.002000,-0.712685,-0.159693,-0.177078,-0.276011,2.493293,0.501218,13.931817,3.638452,3.269515,0.002000,-0.393577,0.213103
666.000000,0.002000,0.254745,0.301444,-0.964549,-0.091778,-1.521917,0.174778,-2.609670,-2.731585,8.836892,0.002000,0.503721,1.118665
667.000000,0.002000,-0.027817,0.654428,-0.912045,0.850437,1.113900,0.348881,-0.193661,-5.346571,6.933039,0.002000,-0.506082,-1.204154
668.000000,0.002000,0.361317,0.899643,1.529735,-1.066203,-0.155454,-0.886873,-0.843159,-1.888708,-3.696450,0.002000,-2.073320,-0.644326
669.000000,0.002000,-0.368583,-0.103846,-0.311261,-1.992350,2.932652,3.064328,15.162007,5.378976,13.380411,0.002000,0.961769,0.013782
670.000000,0.002000,-0.165937,-0.384764,0.302288,-0.821838,2.477678,0.541635,5.383028,13.112020,-9.781252,0.002000,0.338321,0.213605
671.000000,0.002000,-0.490077,-0.755000,-0.577487,1.757009,0.588488,2.214731,4.092815,6.717667,5.668940,0.002000,-0.712685,1.087446
672.000000,0.002000,0.002228,0.065421,-0.075573,3.211015,0.912976,-1.048291,-3.835557,-1.584725,5.337182,0.002000,0.254745,0.418055
673.000000,0.002000,2.444284,-3.141892,-1.568926,0.212289,-1.134202,1.585597,-0.625115,0.805807,0.371721,0.002000,-0.027817,1.788218
674.000000,0.002000,0.364997,1.553358,0.879777,1.422420,1.524390,2.468065,-0.920245,-3.608098,-1.961178,0.002000,0.361317,0.800618
675.000000,0.002000,1.327752,1.243525,0.695917,-0.321329,1.627271,-0.256260,-2.672379,-2.427638,-1.351929,0.002000,-0.368583,-0.517348
676.000000,0.002000,0.204105,0.172629,0.076873,-3.298701,-1.284072,1.175725,-14.100565,-5.896340,-0.228782,0.002000,-0.165937,-0.010290
677.000000,0.002000,-0.104467,0.070149,-0.451299,3.276047,-0.024438,1.720519,5.358906,-4.706253,19.957790,0.002000,-0.490077,-0.168898
678.000000,0.002000,0.017252,-0.547715,-0.041303,0.090740,1.033623,2.267283,1.695183,13.447053,0.859801,0.002000,0.002228,0.093097
679.000000,0.002000,-1.809287,0.741177,1.297943,-0.901383,1.137816,1.139151,2.376853,-0.937302,-1.760286,0.002000,2.444284,0.293762
680.000000,0.002000,-0.910480,-1.006841,0.232453,-1.592709,-2.404130,1.721833,4.259802,4.773567,-1.123195,0.002000,0.364997,0.379125
681.000000,0.002000,-0.193970,-0.283807,0.099503,-1.229968,4.225808,-3.075273,13.119481,16.524755,-5.245908,0.002000,1.327752,0.013180
682.000000,0.002000,-0.210672,0.437454,0.061797,0.801682,-1.119794,0.063306,8.397997,-19.409189,-5.740349,0.002000,0.204105,0.229493
683.000000,0.002000,0.160226,0.760569,-1.180339,0.314322,-2.040047,2.833994,-0.700825,-3.516695,5.095660,0.002000,-0.104467,0.207457
684.000000,0.002000,-1.045252,1.651657,-0.383182,0.337467,-0.835930,0.150225,2.044593,-3.071063,0.747337,0.002000,0.017252,-0.425787
685.000000,0.002000,0.539993,-0.291060,0.002883,1.643779,2.520112,0.655711,-13.450137,7.126719,-1.605180,0.002000,-1.809287,-0.159693
686.000000,0.002000,-0.046492,-0.064316,0.445090,0.511783,-1.494844,-2.852160,0.345990,2.007336,-20.859653,0.002000,-0.910480,0.301444
687.000000,0.002000,-0.321795,-2.969593,-1.003093,-0.117499,-1.778182,0.455018,0.173255,1.866820,0.638667,0.002000,-0.193970,0.654428
688.000000,0.002000,-0.508785,-0.339230,-0.853067,1.632170,2.480727,0.589141,4.432914,3.465917,8.171593,0.002000,-0.210672,0.899643
689.000000,0.002000,0.297946,2.246593,1.227006,-0.448514,1.893865,0.528966,-0.217623,-2.290486,-1.292369,0.002000,0.160226,-0.103846
690.000000,0.002000,-0.392743,-0.940698,-2.126832,0.417365,-1.287402,-1.662958,0.571737,1.215529,2.741934,0.002000,-1.045252,-0.384764
691.000000,0.002000,-2.144828,-1.694797,0.190211,-0.911768,-1.300891,0.447635,1.940773,1.558444,-0.201296,0.002000,0.539993,-0.755000
692.000000,0.002000,-0.075639,0.290115,-0.460359,0.007988,0.433541,1.661871,0.350655,-9.446182,15.029233,0.002000,-0.046492,0.065421
693.000000,0.002000,-0.015822,-0.123155,-0.346223,-2.496333,-3.532481,0.675799,0.123563,6.722131,16.046694,0.002000,-0.321795,-3.141892
694.000000,0.002000,0.181109,-0.249186,0.215356,-1.775468,-4.316778,1.318191,-7.159109,16.116703,-10.269914,0.002000,-0.508785,1.553358
695.000000,0.002000,-1.771308,0.739997,0.293763,-0.466706,-1.372231,0.289860,3.574414,-1.507864,-0.621358,0.002000,0.297946,1.243525
696.000000,0.002000,2.330509,0.146231,-0.934533,2.286312,-0.205255,-0.556951,-2.621007,-0.152704,1.007805,0.002000,-0.392743,0.172629
697.000000,0.002000,-0.299424,-1.195577,0.125335,-1.682036,3.212696,-1.858048,1.889382,7.161086,-0.825512,0.002000,-2.144828,0.070149
698.000000,0.002000,-0.001573,0.020994,-0.280121,-0.110025,0.453174,-0.082195,-0.942856,0.071843,15.499410,0.002000,-0.075639,-0.547715
699.000000,0.002000,0.298953,-1.021543,0.179616,0.270787,-1.777813,0.289097,-2.623718,8.684241,-0.925352,0.002000,-0.015822,0.741177
700.000000,0.002000,-0.873649,0.241520,0.806001,2.093937,1.272253,1.536861,5.596083,-1.636572,-5.510871,0.002000,0.181109,-1.006841
701.000000,0.002000,0.154597,0.032826,0.214897,0.155435,-2.016648,-0.943483,-9.469242,-4.303823,-11.482413,0.002000,-1.771308,-0.283807
702.000000,0.002000,-1.898911,0.367605,-1.506705,-1.424933,1.137563,0.408921,2.354957,-0.378362,1.764413,0.002000,2.330509,0.437454
703.000000,0.002000,0.777143,0.044394,-0.448526,-1.062799,-1.518380,2.628041,-9.644241,0.062384,5.596279,0.002000,-0.299424,0.760569
704.000000,0.002000,2.368837,-0.117801,-1.470677,1.848415,0.696766,-0.538571,-2.129452,0.157302,1.372279,0.002000,-0.001573,1.651657
705.000000,0.002000,0.652990,0.017724,2.851274,0.879066,-0.578346,2.862120,-0.493438,0.091206,-2.183116,0.002000,0.298953,-0.291060
706.000000,0.002000,-1.324968,0.104441,-2.179901,-1.421260,-0.048740,-0.393398,1.262306,0.018320,2.500179,0.002000,-0.873649,-0.064316
707.000000,0.002000,2.022501,-0.004620,1.199729,0.451085,0.407142,1.720097,-2.573275,-0.010054,-1.495139,0.002000,0.154597,-2.969593
708.000000,0.002000,-0.628643,-0.599268,-0.041045,-1.590978,-1.640138,1.746689,8.727811,8.641221,1.046673,0.002000,-1.898911,-0.339230
709.000000,0.002000,0.073588,0.298087,0.205834,-2.796095,-0.418212,-1.863275,-5.049245,-14.744221,-10.929738,0.002000,0.777143,2.246593
710.000000,0.002000,-0.122252,0.372561,-0.272981,-0.729830,2.968551,0.020364,3.241583,-13.008054,9.668361,0.002000,2.368837,-0.940698
711.000000,0.002000,0.538503,0.275229,-1.472746,-3.119796,0.911109,-1.292193,-1.776217,-0.750730,4.897683,0.002000,0.652990,-1.694797
712.000000,0.002000,-0.249581,0.145688,-0.137120,-1.827378,1.992382,0.054326,13.876886,-7.720628,6.712440,0.002000,-1.324968,0.290115
713.000000,0.002000,-0.840222,1.356599,-1.105065,1.231556,0.819901,-0.182041,1.707721,-2.636691,2.378453,0.002000,2.022501,-0.123155
714.000000,0.002000,0.384830,0.260053,-0.622077,1.392291,2.129746,-0.820662,-8.491677,-4.022901,11.441357,0.002000,-0.628643,-0.249186
715.000000,0.002000,-0.691482,-1.424005,2.314630,-1.342132,-2.019765,1.589660,0.545866,1.225540,-1.980876,0.002000,0.073588,0.739997
716.000000,0.002000,0.519891,-1.758415,-1.493656,-0.587938,-0.740360,-0.085618,-0.590628,2.359005,1.777734,0.002000,-0.122252,0.146231
717.000000,0.002000,-1.784468,-0.587608,1.407021,-0.228849,-0.759796,-0.338185,2.368983,0.815441,-1.927359,0.002000,0.538503,-1.195577
718.000000,0.002000,-0.358130,0.301939,-0.519729,3.083407,4.009975,1.175541,6.884161,-4.967010,10.979074,0.002000,-0.249581,0.020994
719.000000,0.002000,-2.086778,-0.791327,-0.092823,-0.236328,-1.596796,-0.837087,3.026036,1.205947,0.176870,0.002000,-0.840222,-1.021543
720.000000,0.002000,2.257703,0.865291,-0.391493,1.223113,0.151234,-1.189815,-2.594323,-1.006833,0.542779,0.002000,0.384830,0.241520
721.000000,0.002000,0.147857,-0.555249,0.134874,-1.373964,-0.625181,-0.980267,-4.650720,13.812859,-3.413705,0.002000,-0.691482,0.032826
722.000000,0.002000,0.946823,-0.194204,-0.064160,1.415546,-0.427519,0.712918,-10.866344,2.262277,0.350848,0.002000,0.519891,0.367605
723.000000,0.002000,-0.167626,0.238749,0.072765,-3.691112,-0.857197,-0.908085,8.279647,-18.771007,-10.944323,0.002000,-1.784468,0.044394
724.000000,0.002000,0.642939,-0.074656,-1.364237,3.540936,0.077928,-1.439070,-2.367207,0.363786,5.090810,0.002000,-0.358130,-0.117801
725.000000,0.002000,0.201336,0.807690,0.274200,-0.861465,-0.152557,-1.886766,-2.522457,-10.793142,-4.221138,0.002000,-2.086778,0.017724
726.000000,0.002000,-1.386888,-1.896291,-0.836539,0.010084,-0.254376,-0.818532,1.539404,2.186474,0.981523,0.002000,2.257703,0.104441
727.000000,0.002000,1.066191,-0.476356,-0.985226,-1.113476,1.594622,-0.534843,-3.936290,3.127728,3.519681,0.002000,0.147857,-0.004620
728.000000,0.002000,-0.502690,0.095447,0.541573,0.283982,2.593082,1.893995,8.788740,-1.811404,-10.418807,0.002000,0.946823,-0.599268
729.000000,0.002000,0.291769,-0.244525,0.121359,2.330323,3.270210,-0.452410,-17.295624,7.548145,-6.800060,0.002000,-0.167626,0.298087
730.000000,0.002000,0.545590,-0.244388,-0.037541,2.306387,3.213815,-0.460918,-13.397377,3.325622,3.425520,0.002000,0.642939,0.372561
731.000000,0.002000,0.463102,-0.164706,-0.325112,2.253504,0.936811,-0.787266,-13.724522,4.302086,8.675800,0.002000,0.201336,0.275229
732.000000,0.002000,0.584187,-0.331300,-0.199086,0.246736,2.881621,-1.003072,-11.079641,6.963106,4.016111,0.002000,-1.386888,0.145688
733.000000,0.002000,0.954177,0.360100,1.609280,0.740500,2.629343,1.328085,-2.003853,-0.771551,-3.327808,0.002000,1.066191,1.356599
734.000000,0.002000,0.130558,-0.182143,-0.034481,-2.298312,-1.520675,-1.937198,-6.837647,12.720843,2.933912,0.002000,-0.502690,0.260053
735.000000,0.002000,-0.342634,0.682135,1.378469,1.615575,-0.815784,-0.351243,1.189730,-2.268870,-4.564297,0.002000,0.291769,-1.424005
736.000000,0.002000,0.358190,-0.424813,0.170124,2.440674,-0.713796,-1.100717,-10.174725,12.366726,-5.227867,0.002000,0.545590,-1.758415
737.000000,0.002000,-0.002479,0.116238,-0.329206,0.851596,1.400114,-2.596660,0.798891,-3.236682,13.535077,0.002000,0.463102,-0.587608
738.000000,0.002000,-2.505657,0.618212,1.498489,-1.127509,0.149281,0.933181,1.831590,-0.464350,-1.107687,0.002000,0.584187,0.301939
739.000000,0.002000,0.014049,-1.811676,3.619969,0.639193,0.831716,-0.091616,-0.004129,0.537851,-1.070680,0.002000,0.954177,-0.791327
740.000000,0.002000,-0.114451,-0.066499,-0.229175,-0.117204,2.874361,-0.737314,4.393544,3.839241,13.396033,0.002000,0.130558,0.865291
741.000000,0.002000,-0.571126,0.125706,0.293450,-0.028146,0.750879,-3.505410,14.223736,-3.638188,-8.720804,0.002000,-0.342634,-0.555249
742.000000,0.002000,0.124416,0.133131,0.540720,-0.972561,-1.406512,-0.106256,-1.827358,-2.947898,-16.834003,0.002000,0.358190,-0.194204
743.000000,0.002000,0.539744,-0.999901,0.680783,0.400807,0.908369,-2.094974,-3.084214,5.250212,-3.557773,0.002000,-0.002479,0.238749
744.000000,0.002000,0.188269,-0.179615,0.157647,0.387020,2.090610,4.017219,-11.222982,10.096782,-5.553193,0.002000,-2.505657,-0.074656
745.000000,0.002000,2.645540,-1.477887,0.909687,2.095322,-0.141519,-1.332973,-1.611390,0.917923,-0.563866,0.002000,0.014049,0.807690
746.000000,0.002000,-2.035011,-0.793426,-0.380270,-0.325610,-0.267886,0.067860,3.009875,1.195093,0.550142,0.002000,-0.114451,-1.896291
747.000000,0.002000,0.580062,-0.804054,0.697726,0.754250,-3.269107,-2.057940,-3.987220,5.096736,-4.488257,0.002000,-0.571126,-0.476356
748.000000,0.002000,0.385281,-2.696485,-0.664188,0.518022,-1.299662,-0.090744,-0.306581,2.315815,0.570348,0.002000,0.124416,0.095447
749.000000,0.002000,2.318288,0.886709,0.839860,1.717930,0.581667,0.874167,-2.402968,-0.936195,-0.933236,0.002000,0.539744,-0.244525
750.000000,0.002000,0.183841,0.160732,0.002561,-0.757410,1.091939,2.021860,-4.728632,-11.428505,1.764102,0.002000,0.188269,-0.244388
751.000000,0.002000,0.422837,-0.140218,0.522929,0.199861,-2.942443,2.115226,-9.119351,3.129815,-11.942717,0.002000,2.645540,-0.164706
752.000000,0.002000,2.484236,-1.980686,0.907401,-0.130493,1.500440,0.779012,-1.312469,1.073708,-0.497002,0.002000,-2.035011,-0.331300
753.000000,0.002000,0.427333,0.894769,-0.878397,-0.823004,-1.342572,1.351495,-1.970795,-2.862804,12.086422,0.002000,0.580062,0.360100
754.000000,0.002000,-0.651114,-0.527749,0.250503,2.876086,1.688880,-1.228461,8.646271,7.552855,-3.215869,0.002000,0.385281,-0.182143
755.000000,0.002000,-1.066570,1.615460,0.915256,-1.123332,0.491659,-1.346905,1.827393,-2.593133,-1.501951,0.002000,2.318288,0.682135
756.000000,0.002000,-0.141868,-2.105755,1.265733,0.290523,-1.196122,-0.041906,0.075919,2.516212,-1.427641,0.002000,0.183841,-0.424813
757.000000,0.002000,1.128054,-0.066731,-0.021216,-2.271696,-0.035150,0.333698,-8.947356,0.538833,0.260799,0.002000,0.422837,0.116238
758.000000,0.002000,0.084313,-0.070077,0.402142,0.385432,-0.932072,0.133832,-5.030198,3.370466,-17.052439,0.002000,2.484236,0.618212
759.000000,0.002000,-0.435864,-0.566601,0.018902,2.087112,-0.855474,-1.193216,10.043924,11.054327,-0.754866,0.002000,0.427333,-1.811676
760.000000,0.002000,0.923523,-0.261569,-0.439482,-0.997001,-2.853525,-0.144094,-8.233002,2.381124,3.889628,0.002000,-0.651114,-0.066499
761.000000,0.002000,-0.150861,-0.090539,0.724777,2.782294,-0.086829,-1.048084,3.286394,3.632215,-13.828700,0.002000,-1.066570,0.125706
762.000000,0.002000,-0.859554,-0.005669,-0.753039,0.773363,2.164897,1.361632,7.566153,-0.840250,7.629882,0.002000,-0.141868,0.133131
763.000000,0.002000,-0.068396,1.027380,-0.044385,1.244045,0.769528,0.027110,0.365534,-10.624216,0.053240,0.002000,1.128054,-0.999901
764.000000,0.002000,-0.017429,-0.124870,0.135422,-3.177685,0.804511,1.349460,-2.526622,9.226877,-12.241660,0.002000,0.084313,-0.179615
765.000000,0.002000,-1.441158,-0.597965,0.063555,1.253666,1.062448,-3.095127,4.955388,2.121254,-0.080846,0.002000,-0.435864,-1.477887
766.000000,0.002000,-0.003998,-0.394034,0.526070,-0.439570,-1.368911,-2.737671,2.505734,6.292540,-16.022736,0.002000,0.923523,-0.793426
767.000000,0.002000,0.113636,-0.745482,-0.551456,2.825635,1.056979,0.117594,-1.079327,9.089741,6.406790,0.002000,-0.150861,-0.804054
768.000000,0.002000,-0.326619,-0.704317,-0.338339,1.704003,-0.282385,1.463391,3.952653,10.259323,5.189600,0.002000,-0.859554,-2.696485
769.000000,0.002000,0.159335,-0.110826,0.099122,-1.365169,0.364650,1.102478,-8.825403,3.242506,-5.581232,0.002000,-0.068396,0.886709
770.000000,0.002000,-1.001523,-0.237562,0.164345,0.270289,-1.874521,0.950974,9.661078,2.434360,-1.465173,0.002000,-0.017429,0.160732
771.000000,0.002000,-0.207766,2.197968,0.421223,0.215002,2.406504,0.300231,0.351529,-3.229739,-0.650096,0.002000,-1.441158,-0.140218
772.000000,0.002000,0.259315,1.808568,0.728586,0.003186,-0.203398,1.686166,-0.609439,-3.496467,-1.386193,0.002000,-0.003998,-1.980686
773.000000,0.002000,-0.696461,-0.022232,1.897552,0.013009,-1.421053,1.112982,1.391769,0.095899,-3.386932,0.002000,0.113636,0.894769
774.000000,0.002000,-0.328607,-0.204335,0.203967,-2.839039,-0.370471,0.320118,11.445730,7.915564,-7.395887,0.002000,-0.326619,-0.527749
775.000000,0.002000,2.301428,-1.380000,0.645535,1.546507,-1.342424,0.934885,-2.012534,1.320547,-0.618279,0.002000,0.159335,1.615460
776.000000,0.002000,0.312491,-1.426062,-0.134033,2.130957,-2.301955,-1.956920,-1.240164,5.470184,0.469450,0.002000,-1.001523,-2.105755
777.000000,0.002000,-0.706567,-0.319815,0.297782,0.173093,-1.156583,2.237133,9.999483,5.537307,-4.386175,0.002000,-0.207766,-0.066731
778.000000,0.002000,0.387089,0.454293,0.637930,-0.504320,-0.563044,2.024845,-5.111350,-5.681680,-8.917507,0.002000,0.259315,-0.070077
779.000000,0.002000,0.385661,0.178840,-0.111332,-3.120664,2.086366,2.561872,-14.837459,-7.421518,7.192555,0.002000,-0.696461,-0.566601
780.000000,0.002000,0.894542,2.123175,-0.456396,-0.503800,0.411377,-0.204923,-1.085974,-2.770750,0.570848,0.002000,-0.328607,-0.261569
781.000000,0.002000,1.209796,1.139219,-0.542511,-0.218764,-0.835250,-1.488117,-3.138875,-2.746516,1.417337,0.002000,2.301428,-0.090539
782.000000,0.002000,-0.535922,0.113031,-0.383876,-0.143476,2.463257,-2.045349,12.193064,-4.528471,10.640011,0.002000,0.312491,-0.005669
783.000000,0.002000,0.127596,-1.151462,-2.989303,0.392231,-0.439653,-1.603626,-0.090895,0.690216,1.789929,0.002000,-0.706567,1.027380
784.000000,0.002000,-0.547745,-0.121970,0.309021,0.119495,-1.203422,3.595188,11.128099,2.515734,-8.864725,0.002000,0.387089,-0.124870
785.000000,0.002000,-0.379717,0.690407,-1.661799,-0.892376,0.780425,2.829744,0.908948,-1.536206,3.912842,0.002000,0.385661,-0.597965
786.000000,0.002000,-0.693224,-0.328252,2.018450,0.993159,-0.727810,1.100797,1.077007,0.610884,-3.205988,0.002000,0.894542,-0.394034
787.000000,0.002000,0.047985,-1.049515,0.235834,-0.610394,3.589820,2.559290,-0.042172,9.145733,-2.241148,0.002000,1.209796,-0.745482
788.000000,0.002000,0.216074,-0.678758,0.300685,1.684613,2.043177,1.850678,-4.324004,12.135816,-5.438992,0.002000,-0.535922,-0.704317
789.000000,0.002000,0.224831,0.408208,-0.416859,0.184897,1.317589,-1.958935,-6.643217,-8.771203,11.948948,0.002000,0.127596,-0.110826
790.000000,0.002000,-0.171325,-0.744535,0.091139,0.957729,2.943230,2.167717,2.175334,13.808012,-1.098465,0.002000,-0.547745,-0.237562
791.000000,0.002000,-2.472562,1.312309,0.619948,-1.102542,1.128179,-0.339557,2.083396,-1.040252,-0.432111,0.002000,-0.379717,2.197968
792.000000,0.002000,0.211089,-0.806327,0.306158,2.191097,0.071868,0.998617,-3.151336,10.716145,-4.104371,0.002000,-0.693224,1.808568
793.000000,0.002000,-0.728031,0.638693,-0.220098,-0.044966,-0.374554,-0.436715,8.703417,-8.693628,1.915319,0.002000,0.047985,-0.022232
794.000000,0.002000,0.671916,0.819050,0.010143,-0.330945,1.428143,-1.161614,-5.784666,-7.494851,-0.066891,0.002000,0.216074,-0.204335
795.000000,0.002000,0.111070,-1.195640,2.318124,-0.378761,0.149829,1.509379,-0.115647,1.186372,-2.225038,0.002000,0.224831,-1.380000
796.000000,0.002000,1.490036,0.196769,-1.357890,-0.498695,-0.933873,-0.075946,-2.755172,-0.333830,2.445005,0.002000,-0.171325,-1.426062
797.000000,0.002000,-0.075520,0.314241,-0.071450,0.059668,1.479220,-2.928133,5.936880,-18.791168,5.238858,0.002000,-2.472562,-0.319815
798.000000,0.002000,0.553113,-0.519878,0.042522,-1.463793,-2.017346,1.042060,-9.785313,9.868513,-1.395163,0.002000,0.211089,0.454293
799.000000,0.002000,0.319774,1.874628,1.632714,0.598062,-1.689408,-0.096485,-0.342365,-2.134700,-1.819439,0.002000,-0.728031,0.178840
800.000000,0.002000,-0.069917,0.586532,-0.062161,2.177640,-1.029217,-1.316098,1.221726,-15.767070,0.513301,0.002000,0.671916,2.123175
801.000000,0.002000,-0.177484,0.762941,-0.148209,0.388376,-1.220232,-1.335560,2.461681,-12.496093,3.450259,0.002000,0.111070,1.139219
802.000000,0.002000,0.133147,-0.010289,0.068380,1.799504,2.780052,0.339584,-9.163956,3.036146,-5.439305,0.002000,1.490036,0.113031
803.000000,0.002000,-1.570388,-0.925505,-0.463180,-0.229319,0.813831,0.742669,3.519230,1.942863,0.979247,0.002000,-0.075520,-1.151462
804.000000,0.002000,-0.039976,0.056147,0.406329,1.942943,-1.650684,-2.171406,1.149438,-6.686456,-15.933892,0.002000,0.553113,-0.121970
805.000000,0.002000,-0.023909,0.731777,0.512021,-1.817994,0.811003,-0.237323,0.798237,-9.428647,-6.942291,0.002000,0.319774,0.690407
806.000000,0.002000,-1.087898,-1.219066,-1.650816,-1.074704,-1.365439,-2.492376,1.459307,1.680045,2.085108,0.002000,-0.069917,-0.328252
807.000000,0.002000,-0.483463,0.180639,-0.021314,-2.611934,-1.795955,2.064609,15.589651,-5.653326,1.638480,0.002000,-0.177484,-1.049515
808.000000,0.002000,-0.223419,0.248542,-0.351503,-1.021112,-1.728444,-2.067542,6.629947,-8.805756,11.951665,0.002000,0.133147,-0.678758
809.000000,0.002000,0.108061,0.512216,0.634832,1.870660,-0.525973,0.614538,-1.487157,-7.464386,-10.097733,0.002000,-1.570388,0.408208
810.000000,0.002000,0.259495,0.262045,0.101291,-1.683439,0.976550,0.022297,-14.915396,-8.788366,-3.896734,0.002000,-0.039976,-0.744535
811.000000,0.002000,-0.172886,-1.359575,0.184307,0.276940,1.080055,-1.892594,0.554439,6.745447,-0.063864,0.002000,-0.023909,1.312309
812.000000,0.002000,-1.029223,-0.338490,-0.350171,-1.008669,0.207681,0.950316,8.026602,2.813146,2.841207,0.002000,-1.087898,-0.806327
813.000000,0.002000,0.315123,0.248569,-0.272340,-2.559341,-2.779137,2.789071,-11.855138,-8.462304,9.377529,0.002000,-0.483463,0.638693
814.000000,0.002000,0.255556,0.412135,0.008905,1.694112,3.558110,2.211228,-9.199054,-19.893046,1.777552,0.002000,-0.223419,0.819050
815.000000,0.002000,-0.038841,0.391693,-0.116997,-2.755853,-2.938574,2.373874,2.143469,-16.845688,6.197826,0.002000,0.108061,-1.195640
816.000000,0.002000,-0.577104,-0.514141,0.462700,1.626744,-0.548934,0.133898,7.295658,7.165920,-5.265480,0.002000,0.259495,0.196769
817.000000,0.002000,-0.973573,0.195192,-1.581022,0.126971,0.434163,1.118005,2.075115,-0.436809,3.603415,0.002000,-0.172886,0.314241
818.000000,0.002000,-1.772780,1.511049,-0.072495,-0.190045,2.282518,-1.331773,2.306195,-2.100178,0.088056,0.002000,-1.029223,-0.519878
819.000000,0.002000,-0.447469,0.559742,-0.422286,1.850199,-0.541823,-1.159305,7.035062,-8.837531,5.773343,0.002000,0.315123,1.874628
820.000000,0.002000,0.951848,-0.879976,-1.848553,-0.237471,-0.134209,-0.706668,-1.332703,1.176307,2.791067,0.002000,0.255556,0.586532
821.000000,0.002000,0.635944,1.732099,0.302511,-1.062919,0.021253,0.426696,-1.430401,-3.831217,-0.708304,0.002000,-0.038841,0.762941
822.000000,0.002000,-0.982952,0.723531,-0.640556,2.044585,-1.724586,2.545648,4.691058,-3.522638,3.074722,0.002000,-0.577104,-0.010289
823.000000,0.002000,0.316196,0.304350,1.711487,0.156431,1.478740,2.214695,-0.712986,-0.725740,-4.330170,0.002000,-0.973573,-0.925505
824.000000,0.002000,-0.256245,0.740021,-0.245654,-0.504473,1.376069,-1.114928,3.741256,-12.247250,4.319897,0.002000,-1.772780,0.056147
825.000000,0.002000,0.631948,1.026493,1.944863,3.116588,-0.141728,-0.409002,-0.968859,-1.296981,-2.715287,0.002000,-0.447469,0.731777
826.000000,0.002000,0.522593,0.166374,0.526635,-2.509110,0.757392,0.240509,-8.832465,-2.453049,-9.983592,0.002000,0.951848,-1.219066
827.000000,0.002000,-0.632938,-0.898121,-0.138276,-1.134524,0.352429,-0.554089,5.519291,7.362081,1.113741,0.002000,0.635944,0.180639
828.000000,0.002000,-0.307194,-0.241220,0.247869,-1.112306,4.036493,0.106875,10.818730,10.287507,-9.370363,0.002000,-0.982952,0.248542
829.000000,0.002000,-0.201369,-0.200891,-1.917388,-1.560043,-1.016724,-1.894123,0.265646,0.380450,3.903880,0.002000,0.316196,0.512216
830.000000,0.002000,0.319536,0.930854,0.177335,0.541128,1.993131,-0.231509,-3.847799,-10.666103,-1.821958,0.002000,-0.256245,0.262045
831.000000,0.002000,0.337437,-0.407223,0.411281,0.961401,-3.028769,-2.578811,-10.113846,8.627515,-10.824100,0.002000,0.631948,-1.359575
832.000000,0.002000,0.459698,-0.600513,0.232004,-1.734789,1.392872,-0.841065,-7.723725,10.250385,-3.821219,0.002000,0.522593,-0.338490
833.000000,0.002000,-0.015196,-0.187614,0.393497,-0.846328,-0.333148,-3.858488,-1.210958,6.655567,-18.322718,0.002000,-0.632938,0.248569
834.000000,0.002000,-0.839488,0.468941,0.344150,0.805926,1.069168,-0.617826,7.798317,-4.376249,-3.770860,0.002000,-0.307194,0.412135
835.000000,0.002000,0.645436,2.121286,1.349576,1.561244,0.611998,0.576087,-0.744284,-2.158919,-1.395481,0.002000,-0.201369,0.391693
836.000000,0.002000,-0.409556,1.731363,-1.886494,0.763566,-0.864420,1.698122,0.477992,-1.780972,1.932770,0.002000,0.319536,-0.514141
837.000000,0.002000,-0.296448,0.127999,-0.673470,1.141654,0.461677,-3.376966,5.960014,-2.483771,15.457184,0.002000,0.337437,0.195192
838.000000,0.002000,0.126370,0.167756,-0.579398,3.314787,0.568063,-1.370613,-4.642914,-6.045621,14.240793,0.002000,0.459698,1.511049
839.000000,0.002000,-0.625637,-0.646218,-0.375890,0.082317,0.687159,0.456029,7.294418,5.723607,3.715288,0.002000,-0.015196,0.559742
840.000000,0.002000,-0.173358,0.389837,-0.403735,2.735104,-3.664151,0.205811,3.296646,-11.384791,10.706917,0.002000,-0.839488,-0.879976
841.000000,0.002000,0.140141,0.117188,0.502840,-4.520488,0.806665,-0.422410,-4.072113,-2.503323,-15.147011,0.002000,0.645436,1.732099
842.000000,0.002000,-0.195416,-0.170599,0.100660,-0.643989,1.453420,-1.602851,16.423975,8.649177,-10.643768,0.002000,-0.409556,0.723531
843.000000,0.002000,0.130258,0.041889,0.016614,-2.457222,0.619514,-0.058826,-7.159954,-0.225019,-3.338141,0.002000,-0.296448,0.304350
844.000000,0.002000,-0.724791,-0.434884,-0.284667,-1.285456,-0.767409,-1.327043,9.838400,6.112269,3.344991,0.002000,0.126370,0.740021
845.000000,0.002000,0.436810,0.831795,0.402755,2.896903,-2.864213,1.817477,-4.073807,-8.287091,-4.290221,0.002000,-0.625637,1.026493
846.000000,0.002000,0.005031,-0.215581,0.265937,1.859440,2.501880,0.246976,-1.050427,11.187755,-15.864497,0.002000,-0.173358,0.166374
847.000000,0.002000,-1.730469,1.583112,-0.541285,-1.969159,0.849241,0.183509,2.470622,-2.012504,0.316235,0.002000,0.140141,-0.898121
848.000000,0.002000,0.306378,-0.401298,0.879440,0.534350,-1.682470,-0.202604,-4.121799,2.052140,-10.862593,0.002000,-0.195416,-0.241220
849.000000,0.002000,-0.692269,-0.192448,0.024772,-1.051664,3.398330,-3.790257,14.712916,4.974648,-0.258023,0.002000,0.130258,-0.200891
850.000000,0.002000,-0.460369,-0.085342,-0.119079,-2.617695,-1.458538,-1.054154,16.058181,3.833952,5.455249,0.002000,-0.724791,0.930854
851.000000,0.002000,-0.275144,-0.141520,1.052993,1.259594,1.058758,-0.672571,2.157381,0.899171,-8.519777,0.002000,0.436810,-0.407223
852.000000,0.002000,0.452172,-0.005637,-0.193570,1.009172,1.652520,2.133263,-16.075024,-2.408641,6.038778,0.002000,0.005031,-0.600513
853.000000,0.002000,-0.271386,0.419195,0.137455,3.257963,1.167949,-0.397618,8.312726,-13.913136,-5.459045,0.002000,-1.730469,-0.187614
854.000000,0.002000,0.135703,-0.122540,-0.450885,2.796333,0.932037,-0.523183,-4.287722,2.053802,19.233491,0.002000,0.306378,0.468941
855.000000,0.002000,-0.494713,-0.803354,-0.414964,-2.956688,0.680331,0.152126,4.592645,8.135003,4.055925,0.002000,-0.692269,2.121286
856.000000,0.002000,-0.266227,0.250061,-0.354198,0.113795,0.810988,2.281796,4.563290,-8.619981,8.125309,0.002000,-0.460369,1.731363
857.000000,0.002000,0.037799,0.241014,0.822015,0.802457,-0.723945,-2.008510,-3.352721,-2.092507,-12.247798,0.002000,-0.275144,0.127999
858.000000,0.002000,0.501368,0.233916,0.356254,-2.770025,-1.199387,0.251283,-13.293690,-2.361315,-8.876861,0.002000,0.452172,0.167756
859.000000,0.002000,0.018799,1.643823,-1.251463,-1.360613,1.435211,-0.598729,-0.059684,-2.878345,2.266416,0.002000,-0.271386,-0.646218
860.000000,0.002000,-0.293639,0.196422,-0.376739,0.088363,-2.634251,-2.032893,10.631790,-6.435710,13.767528,0.002000,0.135703,0.389837
861.000000,0.002000,-0.106316,2.046599,-0.812482,2.850263,0.381409,0.708960,0.081079,-3.190821,1.008350,0.002000,-0.494713,0.117188
862.000000,0.002000,0.325600,-0.144102,0.169614,2.602990,0.864791,-1.068452,-15.470111,5.876531,-6.415554,0.002000,-0.266227,-0.170599
863.000000,0.002000,-0.975345,-1.835597,0.966111,-1.357781,0.023125,0.324949,1.223645,2.544619,-1.654814,0.002000,0.037799,0.041889
864.000000,0.002000,-0.992986,-2.868165,0.373716,-0.107772,-2.358728,-0.489998,0.661705,1.954385,-0.268491,0.002000,0.501368,-0.434884
865.000000,0.002000,-0.139933,1.051737,-1.578624,0.686936,-0.452910,-2.549346,0.314345,-2.314515,3.270341,0.002000,0.018799,0.831795
866.000000,0.002000,0.137312,-0.273422,-0.264121,2.527257,-0.421920,-3.883123,-5.772867,14.090620,9.475500,0.002000,-0.293639,-0.215581
867.000000,0.002000,2.173409,1.653428,-0.177184,0.950727,0.553581,0.181928,-2.017081,-1.446637,0.177572,0.002000,-0.106316,1.583112
868.000000,0.002000,0.643738,-0.970035,-0.900430,-0.978298,1.668064,-1.259591,-2.523559,4.098152,3.418431,0.002000,0.325600,-0.401298
869.000000,0.002000,0.293286,-0.962639,0.318298,0.199975,0.523266,0.926251,-3.475874,8.429779,-2.641803,0.002000,-0.975345,-0.192448
870.000000,0.002000,0.321692,0.223611,-0.364343,0.545131,4.381595,-0.430706,-12.442718,-4.737069,14.239457,0.002000,-0.992986,-0.085342
871.000000,0.002000,-0.112673,0.455079,-0.151898,-0.126159,-0.727553,-2.570316,4.007333,-16.072318,6.519465,0.002000,-0.139933,-0.141520
872.000000,0.002000,-0.277451,-0.327967,0.167937,-2.828710,-5.074859,-0.345934,12.407515,13.026985,-6.134149,0.002000,0.137312,-0.005637
873.000000,0.002000,0.344040,1.135396,2.011493,0.445737,1.227874,1.991316,-0.363451,-1.524062,-2.719758,0.002000,2.173409,0.419195
874.000000,0.002000,-1.045148,-1.359913,-2.415821,-0.972809,-1.151746,-1.584250,0.756312,1.020105,1.794484,0.002000,0.643738,-0.122540
875.000000,0.002000,0.485437,-2.350186,-1.438260,-0.114971,-0.771887,-0.279582,-0.398172,2.032940,1.216210,0.002000,0.293286,-0.803354
876.000000,0.002000,-0.612479,0.016342,-0.298711,3.053209,0.812657,2.550561,13.965673,-0.170630,6.854594,0.002000,0.321692,0.250061
877.000000,0.002000,-1.096137,-0.425482,1.672554,-0.318599,-0.320987,2.545421,1.879152,0.765867,-3.018339,0.002000,-0.112673,0.241014
878.000000,0.002000,-1.460923,-0.320018,-1.895423,-1.203423,0.031835,-0.145169,1.846733,0.422277,2.310685,0.002000,-0.277451,0.233916
879.000000,0.002000,-0.048602,0.106955,-0.027317,-1.885332,2.825317,2.726323,4.280020,-3.533196,-3.857117,0.002000,0.344040,1.643823
880.000000,0.002000,-1.990679,0.347450,1.844273,-1.239071,0.255565,0.277815,1.589960,-0.299078,-1.559901,0.002000,-1.045148,0.196422
881.000000,0.002000,0.034186,0.034932,0.058557,2.326180,2.735684,0.055821,-4.653548,-1.647798,-7.242639,0.002000,0.485437,2.046599
882.000000,0.002000,-0.970299,-0.213245,-2.033142,-0.448647,-1.813016,-0.931573,1.328534,0.219908,2.626638,0.002000,-0.612479,-0.144102
883.000000,0.002000,-0.599241,0.221021,-0.810600,-0.626697,0.488035,1.124298,5.861100,-3.220437,7.133458,0.002000,-1.096137,-1.835597
884.000000,0.002000,0.571489,-0.229407,0.221275,-1.606964,0.311238,0.100647,-13.321128,4.835594,-5.728125,0.002000,-1.460923,-2.868165
885.000000,0.002000,-2.160487,-0.750964,0.063916,-1.745460,-0.890354,-0.857446,3.035479,1.135413,-0.045253,0.002000,-0.048602,1.051737
886.000000,0.002000,-0.647329,0.269904,0.005697,3.480852,1.653553,1.029662,14.988150,-5.146197,-0.663413,0.002000,-1.990679,-0.273422
887.000000,0.002000,-0.778978,-0.009218,-0.208604,0.803948,-1.232013,1.506993,13.138846,0.132755,3.321042,0.002000,0.034186,1.653428
