# 
#                 columns are tag, mass, x, y, z, vx, vy, vz, ax, ay, az, EK, EU, E
#                 Time=6.000000
# 
1.000000,0.002000,-0.485866,-0.506404,-1.184418,-3.337125,-0.321226,-1.997282,2.389915,2.819858,5.876520,85.349769,-167.481519,-82.131750
2.000000,0.002000,-2.284292,-2.229610,1.600102,1.725401,0.003097,1.506278,0.926569,0.935655,-0.661014,0.000000,0.000000,0.000000
3.000000,0.002000,0.311990,-0.994356,0.880889,0.374419,-1.716286,1.676507,-1.503439,5.058274,-4.229868,0.000000,0.002000,0.000000
4.000000,0.002000,-0.147026,0.072375,-0.670120,-0.005587,-3.751603,1.042942,4.081433,-1.164749,15.852598,0.000000,0.002000,0.000000
5.000000,0.002000,-0.048137,0.157917,-0.652883,1.055941,0.677058,-0.928623,3.242619,-2.803766,17.444886,0.000000,-1.908401,0.000000
6.000000,0.002000,0.391270,0.431358,0.316970,0.528098,2.568389,-0.527367,-10.425297,-9.874384,-8.183130,0.000000,0.081403,0.000000
7.000000,0.002000,-0.163370,2.247040,0.392907,-0.234418,1.665223,1.327932,0.019632,-3.329990,-0.588319,0.002000,-1.956314,0.308171
8.000000,0.002000,0.633453,1.174426,-0.517169,1.170165,1.335807,0.222059,-2.794105,-5.284304,2.606171,0.002000,0.031895,-0.976940
9.000000,0.002000,2.014039,-1.039873,-0.830679,1.250105,-0.549072,-0.706787,-2.395430,1.287285,0.922261,0.002000,0.372927,-0.506404
10.000000,0.002000,-1.913097,-2.026928,-1.231051,0.559061,-0.140636,-0.546378,1.265707,1.326103,0.810258,0.002000,-0.259294,-2.229610
11.000000,0.002000,0.033484,0.469886,-0.499090,-1.789860,-1.654400,-0.551736,-0.558470,-10.869559,11.863285,0.002000,-0.310498,-0.994356
12.000000,0.002000,-0.692022,-2.876464,-0.439510,0.264009,-0.759356,-0.225596,0.402890,1.989012,0.224070,0.002000,-1.057548,0.072375
13.000000,0.002000,-0.638253,0.063760,0.762761,-1.399964,-2.511405,-1.291348,6.724970,0.157699,-8.299584,0.002000,0.531663,0.157917
14.000000,0.002000,-0.846497,-1.221732,-1.314504,0.285115,-0.609617,-1.425647,1.547178,2.606250,2.553639,0.002000,0.000000,0.431358
15.000000,0.002000,-0.783692,-0.555246,-0.693008,1.381326,3.354291,1.979738,6.402670,5.243249,5.625321,0.002000,0.000000,2.247040
16.000000,0.002000,0.804762,1.711973,-2.155246,0.131858,-0.938713,-0.543656,-0.718484,-1.299884,1.680760,0.002000,0.000000,1.174426
17.000000,0.002000,-0.297415,-0.815177,-0.150088,-0.931790,-1.299422,-0.256042,3.740171,11.340958,2.004065,0.002000,0.000000,-1.039873
18.000000,0.002000,0.178158,0.063857,-0.334002,-2.468628,-3.903889,0.716693,-5.408961,-5.489436,15.861951,0.002000,0.000000,-2.026928
19.000000,0.002000,-0.051856,0.086881,0.081661,0.219650,1.871589,0.102927,4.732875,-2.091564,-6.228130,0.002000,0.000000,0.469886
20.000000,0.002000,0.207542,-0.478431,-0.255987,2.477986,-1.083628,0.876632,-5.407992,13.440877,7.207155,0.002000,0.000000,-2.876464
21.000000,0.002000,0.641701,-0.153029,-0.205491,-2.261349,-0.817854,-1.884381,-14.806394,4.117754,5.000163,0.002000,-0.485866,0.063760
22.000000,0.002000,-0.074398,0.711006,0.106293,1.383108,-3.834952,-0.194994,0.177556,-14.321318,-2.869633,0.002000,-2.284292,-1.221732
23.000000,0.002000,-0.454230,-0.848850,-1.258132,-2.548984,1.634196,-0.465219,1.521118,3.161288,4.409195,0.002000,0.311990,-0.555246
24.000000,0.002000,-0.399856,0.298058,-0.034350,0.613437,-3.462363,0.203416,16.845681,-9.237469,0.016062,0.002000,-0.147026,1.711973
25.000000,0.002000,0.345976,0.602766,0.697368,-0.918174,1.571958,-0.597985,-4.295712,-5.601904,-8.600605,0.002000,-0.048137,-0.815177
26.000000,0.002000,-1.588443,-0.363603,0.737121,-0.765487,1.019744,1.535382,4.127690,1.176309,-2.051733,0.002000,0.391270,0.063857
27.000000,0.002000,-0.364516,0.547914,-0.206587,0.812297,2.537261,-0.288394,9.564909,-12.577637,4.623625,0.002000,-0.163370,0.086881
28.000000,0.002000,0.161456,0.545929,-0.703888,-0.315800,0.063295,1.994294,0.209969,-9.794242,9.153670,0.002000,0.633453,-0.478431
29.000000,0.002000,-1.502368,-1.243254,1.581731,1.747310,1.719562,-0.969153,1.570560,1.392311,-1.669388,0.002000,2.014039,-0.153029
30.000000,0.002000,-0.064758,-0.017847,-0.230296,-1.112278,-4.377748,3.446349,4.412219,2.953303,12.570076,0.002000,-1.913097,0.711006
31.000000,0.002000,0.358762,0.304863,-0.030639,3.654852,-1.981424,-0.734371,-12.607712,-11.443158,-0.534698,0.002000,0.033484,-0.848850
32.000000,0.002000,-0.185948,0.097659,-0.124611,-0.961294,-0.880316,-1.982096,12.476789,-1.890236,4.001074,0.002000,-0.692022,0.298058
33.000000,0.002000,0.084444,-0.916052,-0.489001,0.370675,-1.342876,0.212230,-1.013970,8.880278,4.744794,0.002000,-0.638253,0.602766
34.000000,0.002000,1.059431,0.495891,0.620353,-1.685262,-2.162044,0.451239,-6.067101,-2.506783,-3.617673,0.002000,-0.846497,-0.363603
35.000000,0.002000,2.873886,0.191425,-0.344730,-0.327194,-0.358084,0.645312,-2.130445,-0.088803,0.271597,0.002000,-0.783692,0.547914
36.000000,0.002000,-2.375890,1.775809,-0.747557,-0.506909,-0.260894,0.576521,1.659707,-1.134450,0.502503,0.002000,0.804762,0.545929
37.000000,0.002000,-2.474209,-3.117703,3.670633,0.629105,0.571041,-0.020966,0.294011,0.396090,-0.451105,0.002000,-0.297415,-1.243254
38.000000,0.002000,0.173258,-0.126692,0.309332,4.679288,0.482804,1.787794,-6.679218,7.859865,-16.291138,0.002000,0.178158,-0.017847
39.000000,0.002000,0.071351,-0.276515,0.757038,1.146941,-0.834690,-0.943983,-1.568511,5.071955,-11.817606,0.002000,-0.051856,0.304863
40.000000,0.002000,0.418274,-1.079266,-0.429478,0.347585,1.006000,1.273734,-2.531342,6.925510,2.479070,0.002000,0.207542,0.097659
41.000000,0.002000,-0.266038,0.676052,-0.794554,-0.027748,0.087074,-1.810699,2.897782,-6.452140,8.040227,0.002000,0.641701,-0.916052
42.000000,0.002000,-1.069940,0.189855,1.040629,-3.023803,1.334916,1.031535,4.320919,-0.516176,-4.306726,0.002000,-0.074398,0.495891
43.000000,0.002000,-1.173189,-1.931728,0.652611,-1.057458,0.999681,0.953446,1.465502,2.494390,-0.841543,0.002000,-0.454230,0.191425
44.000000,0.002000,0.106091,0.395452,-0.385543,-1.679937,2.302464,0.111140,-3.138672,-14.613801,13.079906,0.002000,-0.399856,1.775809
45.000000,0.002000,0.819393,0.004805,0.320306,0.589158,-0.595032,-2.366380,-12.085095,1.513634,-5.267686,0.002000,0.345976,-3.117703
46.000000,0.002000,0.453888,-0.112465,0.401232,1.259787,0.106128,-1.152763,-10.441051,4.365917,-9.065122,0.002000,-1.588443,-0.126692
47.000000,0.002000,0.211461,1.204177,1.068983,-0.779703,0.073376,0.369022,-0.612888,-4.024352,-3.950723,0.002000,-0.364516,-0.276515
48.000000,0.002000,-0.270812,-0.260225,0.068165,3.191841,2.019233,0.086089,15.428518,13.526638,-1.611863,0.002000,0.161456,-1.079266
49.000000,0.002000,0.987548,0.234399,0.226526,4.119724,0.464647,1.849802,-9.958589,-1.417907,-2.777779,0.002000,-1.502368,0.676052
50.000000,0.002000,-0.864420,0.602859,-0.238428,-0.721473,-0.492425,-0.792850,7.779484,-5.709318,2.201185,0.002000,-0.064758,0.189855
51.000000,0.002000,-1.361290,-0.073738,-0.203329,0.197062,-0.387554,-0.043201,6.520358,0.687582,0.851988,0.002000,0.358762,-1.931728
52.000000,0.002000,-0.378468,0.044057,0.069852,-1.493592,-1.147327,-3.343256,17.375389,1.038642,-1.033058,0.002000,-0.185948,0.395452
53.000000,0.002000,-0.307851,-0.222716,-0.166174,-4.184160,-1.917771,-1.015619,12.480995,10.047932,5.153155,0.002000,0.084444,0.004805
54.000000,0.002000,0.185257,0.217697,-0.637881,3.180927,1.793790,2.830856,-5.003604,-3.835822,14.471710,0.002000,1.059431,-0.112465
55.000000,0.002000,0.032030,0.081695,0.229974,-3.073551,-1.615312,-0.787391,-0.386066,-1.256173,-16.675084,0.002000,2.873886,1.204177
56.000000,0.002000,-0.093365,-0.254780,-0.826172,-0.788380,1.320950,1.037940,1.109069,4.475536,11.744740,0.002000,-2.375890,-0.260225
57.000000,0.002000,-1.339044,0.048776,-0.673885,-2.637651,2.304553,0.979548,5.742973,-0.051320,2.817172,0.002000,-2.474209,0.234399
58.000000,0.002000,-0.109707,-0.217082,0.552241,0.114200,-0.023405,-4.993827,2.121971,6.797786,-13.828751,0.002000,0.173258,0.602859
59.000000,0.002000,0.411868,-0.371716,0.428199,0.801401,-0.032979,-2.738018,-7.222763,7.426581,-9.248589,0.002000,0.071351,-0.073738
60.000000,0.002000,-0.081127,-0.029702,-0.163017,-0.411130,2.457613,-0.824577,0.799818,5.399650,7.155810,0.002000,0.418274,0.044057
61.000000,0.002000,0.174862,0.717982,0.144538,2.846612,0.264938,-0.769814,-2.715867,-15.367787,-2.949260,0.002000,-0.266038,-0.222716
62.000000,0.002000,-1.712669,0.191578,0.644657,2.046199,0.007665,-2.732072,4.335239,-0.496505,-1.673135,0.002000,-1.069940,0.217697
63.000000,0.002000,0.393380,-0.124170,-0.355125,-1.532825,0.138758,0.527646,-14.733834,5.997580,11.927860,0.002000,-1.173189,0.081695
64.000000,0.002000,-0.385549,-0.033796,-0.178127,0.347180,-4.675434,-0.848628,15.515680,4.920334,5.739414,0.002000,0.106091,-0.254780
65.000000,0.002000,-0.615943,0.358338,-0.634234,-2.246894,-1.763037,-0.888389,7.730935,-4.555685,8.145767,0.002000,0.819393,0.048776
66.000000,0.002000,-1.226191,0.528229,-0.009326,-1.309506,-0.363395,-1.221068,7.239313,-3.172435,-0.193935,0.002000,0.453888,-0.217082
67.000000,0.002000,0.157502,1.392539,-0.566126,-0.225356,3.194908,-1.459814,-0.721893,-5.873945,2.619277,0.002000,0.211461,-0.371716
68.000000,0.002000,0.376025,-0.912405,0.053832,-1.277717,1.670016,-2.706861,-3.672266,10.129252,-0.283023,0.002000,-0.270812,-0.029702
69.000000,0.002000,-0.038512,1.537496,0.435277,2.207139,1.168207,2.135210,0.140832,-5.687847,-1.547798,0.002000,0.987548,0.717982
70.000000,0.002000,-0.417268,0.200126,0.141741,2.291197,-4.171844,1.871781,17.689112,-4.063806,-6.185495,0.002000,-0.864420,0.191578
71.000000,0.002000,0.442818,0.498570,0.450364,0.853422,-0.462733,3.004938,-7.302131,-8.094487,-8.144042,0.002000,-1.361290,-0.124170
72.000000,0.002000,-0.423020,-0.706956,0.141979,1.723965,2.180193,0.525942,5.944970,11.155491,-2.937603,0.002000,-0.378468,-0.033796
73.000000,0.002000,0.895264,-1.047831,-0.173789,1.569286,-2.603035,-2.069375,-4.190326,5.065568,0.691896,0.002000,-0.307851,0.358338
74.000000,0.002000,-0.005728,0.206624,0.037408,-0.057330,3.558867,2.378010,3.284992,-12.644416,-5.724958,0.002000,0.185257,0.528229
75.000000,0.002000,0.613369,-0.776218,2.378308,-1.004486,-0.014479,0.968679,-0.687990,0.768490,-2.455207,0.002000,0.032030,1.392539
76.000000,0.002000,-0.123190,-0.399783,-0.648645,-0.347552,1.864118,1.951088,1.493690,8.351681,12.211393,0.002000,-0.093365,-0.912405
77.000000,0.002000,0.491487,0.469381,0.501434,1.142112,0.250519,-0.579306,-8.360187,-6.834382,-9.448221,0.002000,-1.339044,1.537496
78.000000,0.002000,0.302761,0.214745,0.587662,2.480319,1.626378,1.707378,-5.813426,-4.436640,-12.955134,0.002000,-0.109707,0.200126
79.000000,0.002000,0.371489,0.497630,0.373504,-2.822042,1.126464,2.266552,-7.145739,-9.897885,-8.683300,0.002000,0.411868,0.498570
80.000000,0.002000,-1.706341,0.885607,0.338212,1.369956,-2.873343,0.506501,3.718389,-1.822244,-0.780651,0.002000,-0.081127,-0.706956
81.000000,0.002000,0.282623,0.079131,-0.180579,-0.954779,0.912298,-0.318379,-17.137963,-2.805452,13.112130,0.002000,0.174862,-1.047831
82.000000,0.002000,0.584352,0.416181,-0.236907,0.041207,-0.118251,-4.512722,-11.216159,-7.849751,4.506913,0.002000,-1.712669,0.206624
83.000000,0.002000,0.925644,0.778973,-0.495314,1.879725,0.225561,1.874627,-5.764551,-4.634602,3.010527,0.002000,0.393380,-0.776218
84.000000,0.002000,0.781705,1.560258,-0.767444,0.553583,2.086854,-1.239201,-1.814825,-3.630405,1.751553,0.002000,-0.385549,-0.399783
85.000000,0.002000,0.467372,-0.351547,0.292419,-4.064369,2.258854,1.650889,-11.947912,8.948949,-8.708881,0.002000,-0.615943,0.469381
86.000000,0.002000,0.380863,-0.523621,0.417741,2.165565,-2.572669,-1.186357,-6.504246,8.762291,-7.293060,0.002000,-1.226191,0.214745
87.000000,0.002000,-1.057821,0.620085,-0.569526,0.632248,-1.182403,-0.128609,5.843407,-3.457746,3.643909,0.002000,0.157502,0.497630
88.000000,0.002000,-0.319467,-0.318151,-0.171701,-1.696477,2.175516,-0.083099,9.131718,11.869863,7.487687,0.002000,0.376025,0.885607
89.000000,0.002000,0.927163,-0.298635,-0.354166,-3.758232,-1.069214,0.931915,-8.958197,3.216249,3.305377,0.002000,-0.038512,0.079131
90.000000,0.002000,-0.020722,0.183169,-0.074142,0.337692,0.017842,0.375439,3.687644,-8.789166,0.836750,0.002000,-0.417268,0.416181
91.000000,0.002000,-2.951066,-3.772085,-4.078264,0.030507,-0.935063,0.373769,0.235780,0.304713,0.324157,0.002000,0.442818,0.778973
92.000000,0.002000,-0.869894,0.178963,0.114462,1.090100,-0.484679,-0.574185,11.460828,-1.722120,-1.601516,0.002000,-0.423020,1.560258
93.000000,0.002000,0.264005,-0.579708,2.303939,1.293581,-1.056112,-0.092234,-0.399190,0.709543,-2.883389,0.002000,0.895264,-0.351547
94.000000,0.002000,-0.520194,-0.792597,-1.526815,-2.132969,-0.998027,-2.163482,0.925211,2.255461,3.937556,0.002000,-0.005728,-0.523621
95.000000,0.002000,0.255104,0.005641,0.006523,-4.903583,-2.404711,-1.512753,-13.872678,3.593646,-1.429910,0.002000,0.613369,0.620085
96.000000,0.002000,-0.092474,0.073230,-0.115999,-2.895943,-2.851864,-2.778736,9.729674,0.569065,3.341427,0.002000,-0.123190,-0.318151
97.000000,0.002000,-0.112850,0.363123,-0.216438,-4.390887,0.544228,-0.910092,7.233549,-15.621322,10.131431,0.002000,0.491487,-0.298635
98.000000,0.002000,0.016271,-1.034638,1.823710,-0.270442,1.825346,-2.337835,-0.015299,1.850428,-3.063744,0.002000,0.302761,0.183169
99.000000,0.002000,-0.051663,0.098856,-0.321880,-1.013183,1.402713,0.227213,3.364045,-2.340494,18.627003,0.002000,0.371489,-3.772085
100.000000,0.002000,0.389216,-0.257467,-0.136273,-1.674186,0.129376,1.585269,-13.888499,9.438572,5.037424,0.002000,-1.706341,0.178963
101.000000,0.002000,0.736028,0.379688,-0.849871,0.417007,-1.740998,1.067069,-5.875143,-2.867931,6.413276,0.002000,0.282623,-0.579708
102.000000,0.002000,0.132073,-0.376426,0.285917,2.530153,-0.537915,-3.122725,-4.899565,12.553182,-9.941688,0.002000,0.584352,-0.792597
103.000000,0.002000,1.338375,-1.727926,1.148502,-0.142567,0.905531,-0.735751,-1.483744,1.937098,-1.271057,0.002000,0.925644,0.005641
104.000000,0.002000,-0.021998,-0.064719,0.556264,-1.462456,2.143761,-0.471325,-1.002101,3.670831,-16.348840,0.002000,0.781705,0.073230
105.000000,0.002000,-1.496167,-0.730520,-0.866592,-0.552871,-1.393593,1.683394,3.335126,1.679652,2.065431,0.002000,0.467372,0.363123
106.000000,0.002000,-0.087130,0.014808,-0.018019,0.204067,-1.536955,-2.640520,9.310804,2.527313,-0.487246,0.002000,0.380863,-1.034638
107.000000,0.002000,-0.189891,0.391297,-0.387906,-0.139738,-0.070842,0.993688,6.658424,-10.894596,12.852324,0.002000,-1.057821,0.098856
108.000000,0.002000,-0.553098,-0.084026,-0.057419,3.692871,1.033982,0.549142,18.670156,4.314510,-0.637003,0.002000,-0.319467,-0.257467
109.000000,0.002000,-0.446167,0.200452,-0.319054,1.901176,2.391079,-2.194060,15.380433,-5.051665,10.396359,0.002000,0.927163,0.379688
110.000000,0.002000,0.051548,0.224549,0.871087,-1.392874,1.541598,4.215072,-0.451086,-2.365407,-11.628685,0.002000,-0.020722,-0.376426
111.000000,0.002000,0.084495,-0.385610,0.414089,2.635463,0.021729,-1.789407,-2.055784,11.123361,-12.417660,0.002000,-2.951066,-1.727926
112.000000,0.002000,-1.824792,2.168879,-1.486333,0.511184,0.554167,-0.029887,1.085889,-1.257455,0.876965,0.002000,-0.869894,-0.064719
113.000000,0.002000,0.572425,-5.043094,-3.315371,0.823887,0.278695,0.657241,-0.053364,0.442736,0.288558,0.002000,0.264005,-0.730520
114.000000,0.002000,-0.289190,0.981550,0.950299,-1.521697,-0.507721,0.640058,1.403383,-4.873887,-5.146903,0.002000,-0.520194,0.014808
115.000000,0.002000,0.482829,-0.360763,-0.026442,-1.311362,0.309832,-0.590837,-12.724611,11.344725,-0.334924,0.002000,0.255104,0.391297
116.000000,0.002000,0.156260,-0.263731,-0.095829,-0.829763,0.345570,-1.057974,-7.391735,17.148155,1.783300,0.002000,-0.092474,-0.084026
117.000000,0.002000,0.417991,-0.379983,0.173916,-1.824223,-1.676026,1.176744,-11.329311,11.977462,-5.148077,0.002000,-0.112850,0.200452
118.000000,0.002000,-0.270039,0.576354,0.388713,0.948098,1.156186,2.153539,5.645581,-10.182422,-8.004805,0.002000,0.016271,0.224549
119.000000,0.002000,-0.465943,0.323498,-1.576276,-0.206938,-0.894778,1.485152,1.406461,-0.859661,4.904831,0.002000,-0.051663,-0.385610
120.000000,0.002000,0.333702,0.247645,0.440562,-0.598040,-1.958191,0.811794,-7.900651,-6.486859,-13.358529,0.002000,0.389216,2.168879
121.000000,0.002000,-0.647741,0.052118,-0.732437,-1.007072,-1.265638,-0.306844,7.159508,-0.078851,8.447960,0.002000,0.736028,-5.043094
122.000000,0.002000,-0.252010,0.182901,-0.149105,1.101832,-2.115687,1.062319,13.382008,-10.239969,5.773153,0.002000,0.132073,0.981550
123.000000,0.002000,-0.924361,-1.022141,-0.963944,1.489671,0.503126,1.327152,2.634770,3.175670,2.808707,0.002000,1.338375,-0.360763
124.000000,0.002000,0.506423,-0.048392,0.408687,1.566776,0.792250,2.878241,-9.113084,3.324994,-12.254870,0.002000,-0.021998,-0.263731
125.000000,0.002000,0.766833,-0.382637,0.847734,-1.209963,0.329280,0.487017,-5.015648,2.852664,-5.703898,0.002000,-1.496167,-0.379983
126.000000,0.002000,-0.450823,-0.595806,2.023671,-0.459015,-1.926077,1.098717,1.110993,1.263099,-3.320915,0.002000,-0.087130,0.576354
127.000000,0.002000,1.709718,-0.901101,-0.202660,-0.473975,1.247742,-1.698690,-3.671210,1.665586,0.273976,0.002000,-0.189891,0.323498
128.000000,0.002000,0.451041,2.416293,0.270341,-0.248873,-2.424397,-0.501213,-0.530339,-2.776443,-0.366037,0.002000,-0.553098,0.247645
129.000000,0.002000,0.734998,0.541383,0.136360,2.014655,2.886313,1.152791,-10.298596,-6.587879,-2.087978,0.002000,-0.446167,0.052118
130.000000,0.002000,0.981498,0.275235,0.469496,-2.331008,1.378640,-0.566340,-8.215463,-1.779322,-4.355125,0.002000,0.051548,0.182901
131.000000,0.002000,-0.418748,-0.165570,0.766121,0.868446,-1.725971,-0.448868,5.217508,3.312718,-11.146497,0.002000,0.084495,-1.022141
132.000000,0.002000,-0.768444,-0.022373,-0.474002,-1.304233,-2.634981,0.377673,10.578388,1.403050,6.205048,0.002000,-1.824792,-0.048392
133.000000,0.002000,-0.099834,-1.550460,-1.616509,1.649410,-1.708400,-0.631855,0.301308,2.460958,1.945444,0.002000,0.572425,-0.382637
134.000000,0.002000,-1.073377,1.150553,2.127399,-0.881208,0.665794,-0.238173,1.065586,-1.016065,-2.044859,0.002000,-0.289190,-0.595806
135.000000,0.002000,-0.493604,1.784039,2.716461,-0.143213,-0.656121,0.151798,0.240526,-0.928301,-1.452785,0.002000,0.482829,-0.901101
136.000000,0.002000,0.420780,-0.024387,0.687127,0.350402,0.375148,-1.226236,-6.643695,1.564176,-11.945838,0.002000,0.156260,2.416293
137.000000,0.002000,0.283325,0.582004,-0.360742,1.109333,3.053432,0.750283,-5.486364,-11.808006,7.720708,0.002000,0.417991,0.541383
138.000000,0.002000,1.437727,1.543381,0.104680,-0.930782,0.747481,0.222258,-2.533735,-2.579272,-0.319673,0.002000,-0.270039,0.275235
139.000000,0.002000,0.782376,1.046931,0.345032,1.847409,0.544802,0.411804,-4.413092,-5.680924,-2.191215,0.002000,-0.465943,-0.165570
140.000000,0.002000,-1.156191,-1.672744,0.624831,-0.118556,0.766933,1.987282,1.852186,2.818469,-1.074251,0.002000,0.333702,-0.022373
141.000000,0.002000,0.380595,0.355432,-0.934570,-2.170881,2.691507,3.084312,-3.965024,-3.245777,9.324839,0.002000,-0.647741,-1.550460
142.000000,0.002000,-0.284176,0.096803,0.192106,2.225016,-1.491450,-2.256943,12.783891,-2.301546,-7.880868,0.002000,-0.252010,1.150553
143.000000,0.002000,0.941265,6.738577,1.757933,0.140041,-0.073868,-0.006423,-0.055465,-0.388983,-0.105003,0.002000,-0.924361,1.784039
144.000000,0.002000,-0.059742,0.341816,0.046820,-0.310646,-0.455568,3.574054,4.091027,-16.869597,-4.358465,0.002000,0.506423,-0.024387
145.000000,0.002000,-0.339795,-0.227501,0.489115,-2.785007,0.313484,-1.708421,7.198113,6.875205,-12.673230,0.002000,0.766833,0.582004
146.000000,0.002000,0.322506,0.166176,-0.079297,1.294214,2.091574,1.313621,-21.047465,-5.693537,3.354824,0.002000,-0.450823,1.543381
147.000000,0.002000,-0.659669,0.249595,0.357235,-1.580141,-1.772671,-0.547535,11.420083,-3.840555,-7.559458,0.002000,1.709718,1.046931
148.000000,0.002000,-0.956061,0.667006,-0.513767,-3.194461,1.040314,-0.417768,5.863959,-4.410571,3.359627,0.002000,0.451041,-1.672744
149.000000,0.002000,-0.143458,0.154878,-0.262699,-2.272887,1.083434,-1.321472,9.976629,-5.864358,14.284101,0.002000,0.734998,0.355432
150.000000,0.002000,0.546366,0.369469,-0.021752,0.280965,2.574549,-2.960466,-15.172402,-8.480602,0.448855,0.002000,0.981498,0.096803
151.000000,0.002000,-1.078904,0.278889,0.125722,3.371749,0.623214,0.341444,9.965777,-2.279925,-0.208962,0.002000,-0.418748,6.738577
152.000000,0.002000,-0.241689,0.481087,-0.413606,0.971989,-1.247544,-3.883134,2.422176,-13.425851,9.588669,0.002000,-0.768444,0.341816
153.000000,0.002000,-1.302720,-1.211183,-0.558651,-0.496593,1.230763,-0.465337,2.881358,2.881162,1.173174,0.002000,-0.099834,-0.227501
154.000000,0.002000,-0.242382,0.673965,-0.049351,-0.023111,1.436275,0.537797,6.212950,-14.451327,1.251719,0.002000,-1.073377,0.166176
155.000000,0.002000,-0.107161,-0.010511,-0.147830,1.147474,0.812469,0.946096,10.282557,4.149517,6.170616,0.002000,-0.493604,0.249595
156.000000,0.002000,0.997209,-0.936212,-2.845695,0.807877,0.233461,1.973542,-0.614531,0.580206,1.665088,0.002000,0.420780,0.667006
157.000000,0.002000,0.132291,0.566007,0.041896,-3.587632,-4.191183,-2.454556,-3.326740,-19.933610,-3.735872,0.002000,0.283325,0.154878
158.000000,0.002000,0.038715,0.100527,0.416648,1.034986,0.181205,-2.270291,1.440905,-1.465105,-18.297864,0.002000,1.437727,0.369469
159.000000,0.002000,0.385699,0.252789,1.229730,2.552637,0.795536,0.203943,-2.238340,-0.721167,-6.638950,0.002000,0.782376,0.278889
160.000000,0.002000,-0.778505,1.817747,0.755730,-1.332599,1.465055,0.037048,1.364029,-3.141543,-1.361960,0.002000,-1.156191,0.481087
161.000000,0.002000,0.213558,1.002847,-0.284173,1.489579,-0.376117,-1.515763,-2.369982,-10.248813,2.963566,0.002000,0.380595,-1.211183
162.000000,0.002000,-1.965346,-3.045017,-2.911887,0.267768,1.118373,-0.437267,0.374279,0.590008,0.558818,0.002000,-0.284176,0.673965
163.000000,0.002000,-2.520362,0.032158,0.894218,-1.203879,-0.788844,-0.149371,2.398216,-0.031948,-0.841502,0.002000,0.941265,-0.010511
164.000000,0.002000,0.435005,-0.085173,-0.261766,0.533207,-2.227230,1.094745,-16.842489,4.980687,9.886939,0.002000,-0.059742,-0.936212
165.000000,0.002000,-0.309508,-5.726738,2.053174,0.212490,0.463530,0.391706,0.026877,0.491842,-0.180978,0.002000,-0.339795,0.566007
166.000000,0.002000,0.152553,0.292325,0.213122,2.450551,-1.890179,4.821314,-7.169756,-12.454053,-11.553208,0.002000,0.322506,0.100527
167.000000,0.002000,0.974822,0.274374,-0.428730,-0.137690,0.241882,2.185831,-8.745486,-3.043909,3.633461,0.002000,-0.659669,0.252789
168.000000,0.002000,0.456220,0.040666,-0.402848,0.039698,-0.590017,0.537127,-13.980932,0.962183,10.471715,0.002000,-0.956061,1.817747
169.000000,0.002000,-0.035585,0.630133,-0.578893,0.595457,-2.179909,3.080666,0.798736,-7.936104,11.281687,0.002000,-0.143458,1.002847
170.000000,0.002000,0.854001,-1.344833,0.924592,2.066038,-1.999194,1.032601,-2.005758,3.119117,-2.173491,0.002000,0.546366,-3.045017
171.000000,0.002000,-0.972118,-1.800160,1.571307,-0.828341,0.273139,-0.653213,0.920268,1.807928,-1.573489,0.002000,-1.078904,0.032158
172.000000,0.002000,0.697985,1.464455,-1.052736,2.489206,1.824348,-1.145180,-1.538529,-3.214948,2.437536,0.002000,-0.241689,-0.085173
173.000000,0.002000,-0.143384,0.477473,0.083312,-0.368486,-4.005564,-0.644862,5.415836,-16.521577,-3.727106,0.002000,-1.302720,-5.726738
174.000000,0.002000,-1.667712,1.603360,1.281922,-1.317851,0.097130,0.950435,1.635097,-1.514997,-1.211210,0.002000,-0.242382,0.292325
175.000000,0.002000,-0.088966,1.033579,0.451611,2.918546,2.479323,-0.209165,1.297139,-8.652557,-4.939654,0.002000,-0.107161,0.274374
176.000000,0.002000,-0.080665,1.194865,0.355201,1.270281,3.156950,-1.241495,0.721923,-9.691298,-2.327802,0.002000,0.997209,0.040666
177.000000,0.002000,0.860364,-6.019784,-2.941419,-0.633440,-0.173878,-0.814687,-0.057290,0.384012,0.184596,0.002000,0.132291,0.630133
178.000000,0.002000,0.256263,0.259899,-0.069305,-2.172582,1.822520,-0.184793,-14.513631,-10.413983,1.084205,0.002000,0.038715,-1.344833
179.000000,0.002000,-0.282135,-0.326579,0.642847,0.925813,0.010557,1.560552,2.918838,7.965043,-10.204708,0.002000,0.385699,-1.800160
180.000000,0.002000,0.446501,0.651713,0.356526,-0.286209,0.523818,-0.649568,-6.598255,-10.180935,-5.572930,0.002000,-0.778505,1.464455
181.000000,0.002000,0.329377,0.934299,1.206753,0.452549,-1.017813,0.427159,-1.227116,-3.215710,-4.390819,0.002000,0.213558,0.477473
182.000000,0.002000,-1.031848,-0.016853,0.097023,-2.383512,2.877193,2.434791,10.322701,0.722692,-1.497368,0.002000,-1.965346,1.603360
183.000000,0.002000,0.482474,-3.584391,-4.368813,0.263356,-0.579143,0.697837,-0.062048,0.380769,0.466456,0.002000,-2.520362,1.033579
184.000000,0.002000,0.350688,-0.411278,-0.580217,1.070047,0.007708,1.634211,-5.737117,7.847361,8.881333,0.002000,0.435005,1.194865
185.000000,0.002000,0.988033,-0.707665,-0.025518,0.242237,-1.439749,0.695085,-6.641571,4.781793,-0.000258,0.002000,-0.309508,-6.019784
186.000000,0.002000,0.730657,-2.218263,-1.055006,0.481232,1.097180,2.034306,-0.699948,2.258480,1.020173,0.002000,0.152553,0.259899
187.000000,0.002000,-0.731210,1.966092,-0.360205,-0.129960,2.151185,-1.116367,1.269995,-3.347820,0.608054,0.002000,0.974822,-0.326579
188.000000,0.002000,0.163122,-0.080715,1.180401,-0.025919,-2.052910,-0.688527,-0.868387,0.678804,-8.190410,0.002000,0.456220,0.651713
189.000000,0.002000,-3.160318,-0.963091,1.489017,-0.120704,0.850810,0.074759,1.265673,0.394910,-0.589792,0.002000,-0.035585,0.934299
190.000000,0.002000,0.153677,0.279124,0.089204,0.732436,-1.809001,-0.131685,-8.237967,-16.241436,-7.508250,0.002000,0.854001,-0.016853
191.000000,0.002000,-0.096900,0.070449,0.252139,-0.489640,1.546935,4.246066,2.761500,3.253514,-16.855967,0.002000,-0.972118,-3.584391
192.000000,0.002000,0.590408,0.111836,-0.049874,3.667969,-1.621376,2.186965,-16.583040,-0.908841,1.157674,0.002000,0.697985,-0.411278
193.000000,0.002000,0.123093,0.180030,-0.379460,0.597104,-1.041963,-0.466654,-6.431727,-4.195040,14.122637,0.002000,-0.143384,-0.707665
194.000000,0.002000,-0.278753,2.205063,0.058946,-1.627268,2.181217,0.828297,0.329835,-3.387043,-0.184133,0.002000,-1.667712,-2.218263
195.000000,0.002000,-0.328735,0.179378,-0.113637,-1.761971,-1.088243,4.752804,14.581428,-7.363883,2.972720,0.002000,-0.088966,1.966092
196.000000,0.002000,-0.277165,0.269382,0.078302,2.396289,1.305970,-2.402679,10.321343,-10.604069,-4.359940,0.002000,-0.080665,-0.080715
197.000000,0.002000,0.746907,-3.933840,-2.285141,0.027299,1.588266,0.093947,-0.155154,0.773873,0.442645,0.002000,0.860364,-0.963091
198.000000,0.002000,0.386057,0.325672,0.283044,-1.952078,-0.896906,-1.202580,-11.972472,-9.603679,-9.826830,0.002000,0.256263,0.279124
199.000000,0.002000,0.313477,0.075319,-0.539136,0.989854,2.196848,-0.605711,-8.820338,0.179645,14.524962,0.002000,-0.282135,0.070449
200.000000,0.002000,-0.203483,-0.345983,-0.587945,0.014262,-0.747035,1.665717,4.402523,7.790079,11.507050,0.002000,0.446501,0.111836
201.000000,0.002000,-2.024559,0.669411,-1.806851,-0.116486,-0.012914,-0.118227,1.620425,-0.536346,1.499368,0.002000,0.329377,0.180030
202.000000,0.002000,-0.912758,0.067177,0.116995,4.255970,1.389452,-0.444823,11.927451,-0.305558,-1.991182,0.002000,-1.031848,2.205063
203.000000,0.002000,-0.001813,-0.592204,-0.013459,1.285117,2.036404,-4.043607,0.018161,15.875503,-0.718301,0.002000,0.482474,0.179378
204.000000,0.002000,-0.360366,-0.900375,-0.796735,1.814148,-1.862527,-0.197006,2.121213,5.732227,4.872548,0.002000,0.350688,0.269382
205.000000,0.002000,0.201843,-0.106645,-0.455450,-2.303649,-4.146304,-0.163030,-6.706206,6.782611,16.169933,0.002000,0.988033,-3.933840
206.000000,0.002000,-0.155927,-0.343463,-0.068448,0.183105,-2.961170,0.561716,5.879463,17.836669,3.465393,0.002000,0.730657,0.325672
207.000000,0.002000,-0.637462,0.309069,-0.121912,4.533373,-2.815932,1.561109,13.703431,-8.241736,2.863562,0.002000,-0.731210,0.075319
208.000000,0.002000,-0.325854,0.108966,-0.172663,-3.484308,2.676922,1.524881,14.751826,-1.385397,8.207020,0.002000,0.163122,-0.345983
209.000000,0.002000,0.406084,0.113376,0.362701,2.231525,2.708349,0.114505,-10.358940,-1.662054,-12.644639,0.002000,-3.160318,0.669411
210.000000,0.002000,1.264752,-0.347421,0.557263,1.505726,0.354198,-1.178363,-5.745121,1.796651,-2.546042,0.002000,0.153677,0.067177
211.000000,0.002000,0.164385,0.241771,-0.242491,3.847644,-1.409373,-0.253904,-11.126222,-10.784570,11.082500,0.002000,-0.096900,-0.592204
212.000000,0.002000,0.028458,0.210402,0.217032,-0.984524,-0.763803,0.338288,-2.533707,-5.393129,-14.448393,0.002000,0.590408,-0.900375
213.000000,0.002000,0.217932,0.158421,-0.773266,1.306460,-1.337550,1.754624,-3.922457,-2.137804,13.374019,0.002000,0.123093,-0.106645
214.000000,0.002000,-0.784185,-0.263466,-1.132436,2.630263,-0.573496,1.548194,3.346162,1.730287,5.583512,0.002000,-0.278753,-0.343463
215.000000,0.002000,-1.075905,1.119744,-0.227565,0.665169,-0.206019,2.216455,4.222171,-4.226707,0.796412,0.002000,-0.328735,0.309069
216.000000,0.002000,-0.153564,-1.139273,0.343474,0.121906,1.455231,1.028519,0.902317,7.835525,-2.367570,0.002000,-0.277165,0.108966
217.000000,0.002000,-0.529280,0.513606,0.860608,1.402858,-2.798291,-1.334169,4.385658,-3.715869,-7.969234,0.002000,0.746907,0.113376
218.000000,0.002000,-2.154705,0.169686,0.353844,2.121483,1.775666,1.150621,3.404236,-0.363556,-0.623522,0.002000,0.386057,-0.347421
219.000000,0.002000,0.128521,0.010761,-0.061356,0.620452,1.115793,2.966324,-9.216943,3.644779,1.912255,0.002000,0.313477,0.241771
220.000000,0.002000,-1.896098,-0.177209,-0.171968,1.379588,0.074882,-0.689595,4.151880,0.494891,0.369044,0.002000,-0.203483,0.210402
221.000000,0.002000,0.810147,0.468018,-0.641137,1.898198,3.781805,-0.836817,-8.108737,-2.748945,5.652132,0.002000,-2.024559,0.158421
222.000000,0.002000,-0.311090,0.137541,0.083051,1.315068,0.547213,2.469525,15.799023,-4.858874,-5.601547,0.002000,-0.912758,-0.263466
223.000000,0.002000,-0.762829,1.688929,1.282942,-0.578526,0.909215,1.780564,1.136953,-2.468239,-1.977560,0.002000,-0.001813,1.119744
224.000000,0.002000,-0.526079,0.589769,1.989622,-0.604360,2.216856,1.185614,1.036241,-0.778149,-3.409477,0.002000,-0.360366,-1.139273
225.000000,0.002000,-0.238142,-0.708582,0.645807,-1.571510,1.347663,-2.180769,2.273679,7.332715,-6.835453,0.002000,0.201843,0.513606
226.000000,0.002000,0.232565,0.158876,-0.558528,-0.831171,-0.706607,-2.750937,-5.841136,-3.148157,17.831188,0.002000,-0.155927,0.169686
227.000000,0.002000,0.647464,-0.148435,-0.709866,0.163605,0.932394,0.259654,-8.211114,2.888195,7.630554,0.002000,-0.637462,0.010761
228.000000,0.002000,-0.334334,-0.012426,-1.642837,1.838719,1.821092,-1.906510,1.029631,0.292418,5.065130,0.002000,-0.325854,-0.177209
229.000000,0.002000,4.434728,0.337999,-1.411593,-0.992413,1.380262,-0.688683,-0.853667,-0.056481,0.262730,0.002000,0.406084,0.468018
230.000000,0.002000,-1.610998,-3.495680,-2.511905,-0.014583,0.661842,0.949249,0.321776,0.701582,0.495787,0.002000,1.264752,0.137541
231.000000,0.002000,-0.288940,0.333695,-0.611295,-3.384754,-0.073976,-2.506811,7.237744,-3.430365,7.596901,0.002000,0.164385,1.688929
232.000000,0.002000,-0.739714,-0.900330,0.088738,-1.541011,-2.641308,-0.001596,5.240728,6.551143,-0.888946,0.002000,0.028458,0.589769
233.000000,0.002000,-0.044032,-0.481578,0.661799,-0.181082,-1.555932,0.357619,0.734316,8.500959,-9.775932,0.002000,0.217932,-0.708582
234.000000,0.002000,0.288566,-0.061477,-0.576008,0.777354,-5.095789,1.228941,-8.034995,3.159283,14.457141,0.002000,-0.784185,0.158876
235.000000,0.002000,0.774822,-0.430379,0.030616,1.631589,-3.091207,1.086494,-10.149770,6.436461,0.809038,0.002000,-1.075905,-0.148435
236.000000,0.002000,-2.263371,-0.569623,-0.251877,-1.700422,0.882095,-1.470185,2.909118,0.962261,0.447613,0.002000,-0.153564,-0.012426
237.000000,0.002000,0.571344,0.277815,-0.264544,2.319046,-2.031145,-2.188266,-14.623868,-3.623365,6.891096,0.002000,-0.529280,0.337999
238.000000,0.002000,-0.254868,0.190667,0.039069,0.250825,4.710530,1.462395,7.563555,-8.147602,-5.373296,0.002000,-2.154705,-3.495680
239.000000,0.002000,0.007932,0.798927,0.193542,-2.596862,1.588877,2.202871,-0.184769,-13.686354,-3.343024,0.002000,0.128521,0.333695
240.000000,0.002000,-0.322413,-0.287940,-0.049799,0.345633,2.192120,-1.375450,14.160941,15.258921,1.241612,0.002000,-1.896098,-0.900330
241.000000,0.002000,0.009007,0.980581,-0.038858,1.354230,0.826420,-0.121425,-0.118170,-12.265377,0.420881,0.002000,0.810147,-0.481578
242.000000,0.002000,0.798949,-1.214586,2.444422,-0.032049,0.858594,-0.500595,-0.616648,0.968201,-1.885920,0.002000,-0.311090,-0.061477
243.000000,0.002000,-0.119157,0.355950,-0.026834,-1.231016,3.378374,-1.920463,6.597541,-17.518745,-0.569633,0.002000,-0.762829,-0.430379
244.000000,0.002000,-0.235608,0.347084,0.370613,-2.589206,-0.953501,0.155459,7.890392,-8.346120,-13.559339,0.002000,-0.526079,-0.569623
245.000000,0.002000,3.190565,2.933069,-7.599675,-0.647731,0.625074,-0.989680,-0.095606,-0.085864,0.227294,0.002000,-0.238142,0.277815
246.000000,0.002000,-1.863144,1.316707,-1.144148,-1.318033,1.058622,-0.807964,2.069713,-1.335228,1.326806,0.002000,0.232565,0.190667
247.000000,0.002000,0.968176,1.212496,0.887792,2.879266,0.762591,-0.755960,-2.684271,-3.128016,-2.460014,0.002000,0.647464,0.798927
248.000000,0.002000,0.017777,-0.019422,0.188590,-3.254566,4.172753,-0.539829,0.644089,2.409492,-12.989814,0.002000,-0.334334,-0.287940
249.000000,0.002000,0.529199,0.188863,0.008606,-0.419583,0.505165,0.905033,-18.649053,-4.387119,-1.285276,0.002000,4.434728,0.980581
250.000000,0.002000,-0.289152,0.671712,0.573131,-0.582358,-0.482642,2.327799,1.013263,-10.229690,-6.464855,0.002000,-1.610998,-1.214586
251.000000,0.002000,-0.533284,2.177677,-0.265998,-1.526947,1.577940,-1.158351,0.796364,-3.185073,0.419117,0.002000,-0.288940,0.355950
252.000000,0.002000,0.350815,0.858414,-0.120515,-1.394292,1.122587,-0.972446,-4.795011,-11.513667,1.127159,0.002000,-0.739714,0.347084
253.000000,0.002000,-0.287358,0.371541,0.001144,3.180913,0.574976,0.100197,11.229401,-16.162545,-0.867046,0.002000,-0.044032,2.933069
254.000000,0.002000,0.920664,-0.017327,0.061291,-2.286643,-2.407620,2.003439,-11.968290,1.424833,-1.091733,0.002000,0.288566,1.316707
255.000000,0.002000,0.258706,0.617572,0.721169,-1.279686,1.417688,-1.092847,-2.003792,-6.315051,-11.378499,0.002000,0.774822,1.212496
256.000000,0.002000,-0.196080,-0.780663,-0.356215,-1.277007,-2.394235,-0.969434,2.266699,11.858342,4.917951,0.002000,-2.263371,-0.019422
257.000000,0.002000,-0.004227,0.366508,0.174930,3.798803,-2.078810,-2.365007,-1.993423,-15.275900,-7.772222,0.002000,0.571344,0.188863
258.000000,0.002000,0.200634,-0.016895,0.090115,3.686826,0.658036,0.372540,-13.119297,7.475988,-3.875016,0.002000,-0.254868,0.671712
259.000000,0.002000,0.151084,-0.362707,-0.244402,3.125109,2.871361,-2.275583,-6.090174,15.631090,10.475991,0.002000,0.007932,2.177677
260.000000,0.002000,-0.336116,0.904534,-1.221765,0.655493,2.496484,0.075190,1.287783,-3.384099,4.950731,0.002000,-0.322413,0.858414
261.000000,0.002000,0.344081,1.059605,0.378744,1.479661,-2.069905,-0.121285,-2.934923,-8.374132,-3.112825,0.002000,0.009007,0.371541
262.000000,0.002000,0.775368,0.407552,-1.063421,3.020405,-0.900566,-0.276435,-4.317188,-1.973806,5.824604,0.002000,0.798949,-0.017327
263.000000,0.002000,0.383086,-0.199216,1.202133,1.183235,0.280876,0.099366,-2.406258,1.149235,-6.982019,0.002000,-0.119157,0.617572
264.000000,0.002000,0.008859,0.243012,-0.022804,-4.022785,-1.491595,-4.052600,2.379684,-11.745378,-3.055644,0.002000,-0.235608,-0.780663
265.000000,0.002000,0.261272,0.018246,0.811806,0.926143,-1.664802,-0.859148,-3.426731,0.423951,-12.127679,0.002000,3.190565,0.366508
266.000000,0.002000,-0.109557,-0.896851,-1.523127,-0.885164,-0.680328,-2.178429,0.177669,2.490218,3.988578,0.002000,-1.863144,-0.016895
267.000000,0.002000,0.344574,0.490405,-0.462360,-0.422840,2.402653,-3.736844,-7.825405,-9.065474,9.821334,0.002000,0.968176,-0.362707
268.000000,0.002000,-0.246161,-0.148246,0.281767,-1.544339,3.600670,-1.801937,9.209727,10.212061,-13.626483,0.002000,0.017777,0.904534
269.000000,0.002000,0.312076,0.291096,0.348737,1.365614,0.401278,0.029634,-8.265042,-9.482625,-13.375049,0.002000,0.529199,1.059605
270.000000,0.002000,-1.123711,-0.486106,-1.040507,1.587005,-1.774090,1.308876,3.855079,1.910662,3.591058,0.002000,-0.289152,0.407552
271.000000,0.002000,-0.308922,-0.276114,0.177061,-0.489876,-2.618020,-1.183289,11.144855,12.122521,-7.574967,0.002000,-0.533284,-0.199216
272.000000,0.002000,-0.135521,0.946672,-0.222252,1.498491,-1.320370,-4.408580,2.194102,-11.742945,2.345991,0.002000,0.350815,0.243012
273.000000,0.002000,-0.912911,0.470554,-0.132993,2.544748,0.728343,-1.582862,9.333918,-5.064979,1.120748,0.002000,-0.287358,0.018246
274.000000,0.002000,-0.056270,-0.040513,0.197717,0.443607,1.811453,-0.318182,4.204435,2.577084,-12.832366,0.002000,0.920664,-0.896851
275.000000,0.002000,-0.406016,-0.345286,-0.699860,1.152723,0.257817,0.268249,6.600048,5.688835,9.466054,0.002000,0.258706,0.490405
276.000000,0.002000,0.159518,1.729087,0.997199,0.326330,3.054697,1.180671,-0.321352,-3.509869,-2.040070,0.002000,-0.196080,-0.148246
277.000000,0.002000,-0.032677,-0.254535,0.059554,-3.684273,2.360038,0.171288,0.397238,11.527939,-2.629110,0.002000,-0.004227,0.291096
278.000000,0.002000,0.007692,-0.137807,-0.060494,2.508850,0.865336,1.572771,1.364709,9.214699,0.110770,0.002000,0.200634,-0.486106
279.000000,0.002000,-0.310412,-0.284635,-0.805168,-0.342968,0.150689,-2.155906,3.721346,5.479654,11.256462,0.002000,0.151084,-0.276114
280.000000,0.002000,0.018847,-0.071537,0.154270,0.360732,1.181229,-0.326970,-0.755520,2.590634,-11.228169,0.002000,-0.336116,0.946672
281.000000,0.002000,0.833076,1.017237,-0.327829,-0.500466,0.855154,-1.319707,-4.691927,-5.453647,1.848580,0.002000,0.344081,0.470554
282.000000,0.002000,-1.598942,-0.669898,-0.983323,1.310533,-0.657157,-2.083495,3.206822,1.349482,2.061293,0.002000,0.775368,-0.040513
283.000000,0.002000,0.681783,0.184697,-0.105715,1.865721,-1.961715,-1.390890,-15.760448,-2.468522,3.017204,0.002000,0.383086,-0.345286
284.000000,0.002000,-4.662368,-1.531891,2.316486,0.485557,-0.429665,-0.526446,0.571790,0.189668,-0.284020,0.002000,0.008859,1.729087
285.000000,0.002000,0.318898,-0.059230,-0.040557,2.755158,-2.911822,-2.204031,-15.896819,4.372677,1.069479,0.002000,0.261272,-0.254535
286.000000,0.002000,-0.633056,1.131055,0.231825,-2.700434,-1.226038,-0.264327,4.388383,-6.966846,-1.690893,0.002000,-0.109557,-0.137807
287.000000,0.002000,-0.034155,0.289212,-0.121226,-0.379810,-3.251055,1.222823,4.796453,-15.702637,2.532982,0.002000,0.344574,-0.284635
288.000000,0.002000,0.053135,0.272472,0.207604,0.097076,-0.930027,-0.169461,-3.627773,-13.661362,-11.918453,0.002000,-0.246161,-0.071537
289.000000,0.002000,0.477444,-0.151670,-0.168781,0.561937,-2.096626,-0.458142,-16.919614,5.598942,6.551805,0.002000,0.312076,1.017237
290.000000,0.002000,0.181000,0.284198,-0.007759,-1.921463,-3.011263,0.540082,-8.340068,-14.937762,-3.679376,0.002000,-1.123711,-0.669898
291.000000,0.002000,-1.456162,1.125873,-0.400273,2.010754,-0.690455,-0.998991,3.673274,-2.605443,0.989794,0.002000,-0.308922,0.184697
292.000000,0.002000,0.221011,-0.352091,0.155659,-2.163335,-2.281648,-0.419059,-8.809306,14.699052,-6.337735,0.002000,-0.135521,-1.531891
293.000000,0.002000,-0.199360,-0.434801,-0.080083,1.535697,-1.446440,-0.705862,6.240785,15.059851,2.915825,0.002000,-0.912911,-0.059230
294.000000,0.002000,-0.571519,1.293537,0.935157,1.314755,-0.301256,1.116229,1.843823,-3.965432,-3.023356,0.002000,-0.056270,1.131055
295.000000,0.002000,0.421583,0.305328,-0.211482,-1.109816,0.290776,-1.413972,-15.305813,-8.756278,9.345919,0.002000,-0.406016,0.289212
296.000000,0.002000,-0.512691,0.158601,0.579274,1.331377,-2.237575,1.704170,8.797516,-1.948383,-10.453566,0.002000,0.159518,0.272472
297.000000,0.002000,0.079788,0.536848,0.071761,0.455535,-0.070313,-1.135921,-0.723787,-17.052531,-3.915856,0.002000,-0.032677,-0.151670
298.000000,0.002000,-0.818864,1.406073,-0.370624,0.462066,0.880347,-0.212488,2.575496,-4.657042,1.100882,0.002000,0.007692,0.284198
299.000000,0.002000,-0.416484,-0.032257,-0.277455,-0.856125,-5.829478,-0.177743,15.566098,4.344101,9.360245,0.002000,-0.310412,1.125873
300.000000,0.002000,-0.132914,3.126449,1.588207,-1.073812,0.979612,-0.764762,0.070490,-1.445508,-0.737845,0.002000,0.018847,-0.352091
301.000000,0.002000,0.580948,1.159093,0.469794,0.038211,-1.115955,-0.961904,-3.406755,-5.985981,-2.642805,0.002000,0.833076,-0.434801
302.000000,0.002000,0.676816,-0.823218,0.598536,1.776896,-1.231188,-0.377373,-4.363050,5.334146,-4.146324,0.002000,-1.598942,1.293537
303.000000,0.002000,-0.226008,1.394391,-1.604653,-1.948474,0.566267,-1.630333,0.364022,-2.312936,2.682276,0.002000,0.681783,0.305328
304.000000,0.002000,0.573241,0.394313,-0.425193,1.805278,2.520247,0.016089,-9.736559,-6.393630,7.954898,0.002000,-4.662368,0.158601
305.000000,0.002000,1.491171,-1.233102,-0.929238,0.422327,-1.646474,-0.368473,-2.373460,1.921976,1.406007,0.002000,0.318898,0.536848
306.000000,0.002000,0.068834,-0.117368,-0.118172,-2.389090,2.249013,1.244226,-0.349929,7.509732,5.125704,0.002000,-0.633056,1.406073
307.000000,0.002000,0.146853,0.312315,-0.651089,-0.582307,-2.781496,-0.222850,-3.735480,-6.262234,13.629875,0.002000,-0.034155,-0.032257
308.000000,0.002000,-1.548180,-0.123621,0.343925,-2.969687,-2.114624,0.205872,5.570440,0.451820,-1.276553,0.002000,0.053135,3.126449
309.000000,0.002000,-1.912680,-1.774814,-0.428830,1.012111,-0.111463,0.412213,1.752336,1.812210,0.403433,0.002000,0.477444,1.159093
310.000000,0.002000,-0.293347,0.456516,0.182110,-0.394260,-0.439734,-3.858342,8.289598,-15.044129,-4.704084,0.002000,0.181000,-0.823218
311.000000,0.002000,-1.932123,1.460438,-1.137237,-1.647532,0.184880,0.046656,1.889840,-1.394980,1.132538,0.002000,-1.456162,1.394391
312.000000,0.002000,-1.389923,-0.343055,-0.179455,-2.111684,-0.781063,-1.510429,6.250606,1.903546,0.757638,0.002000,0.221011,0.394313
313.000000,0.002000,1.034870,-2.105533,0.859255,-0.456193,-1.532100,-0.543790,-1.170794,2.192683,-0.965152,0.002000,-0.199360,-1.233102
314.000000,0.002000,0.155894,0.463231,-0.850704,1.428557,-1.096019,-0.901633,-1.767763,-4.161547,11.210698,0.002000,-0.571519,-0.117368
315.000000,0.002000,-3.044172,-0.549156,-0.454298,1.037913,0.833137,0.107498,1.885596,0.365289,0.276381,0.002000,0.421583,0.312315
316.000000,0.002000,1.275929,0.489747,0.455108,-1.046425,-0.236809,1.315437,-5.926058,-2.043866,-2.168501,0.002000,-0.512691,-0.123621
317.000000,0.002000,0.535194,-1.021654,0.662460,-1.013515,0.568458,1.033696,-2.698681,5.632612,-3.370585,0.002000,0.079788,-1.774814
318.000000,0.002000,-0.394141,0.712329,-0.896818,0.500001,1.458513,0.701324,3.123487,-5.093360,6.792980,0.002000,-0.818864,0.456516
319.000000,0.002000,-0.569649,-0.165941,0.243451,-1.986531,-0.445931,-1.273306,14.160601,4.124901,-5.435656,0.002000,-0.416484,1.460438
320.000000,0.002000,-0.992131,-0.454825,-2.790751,0.442726,1.450981,1.617454,0.698483,0.334756,1.907121,0.002000,-0.132914,-0.343055
321.000000,0.002000,-0.196705,0.045694,0.138945,-3.244997,3.244890,1.094069,12.656104,0.334326,-9.895822,0.002000,0.580948,-2.105533
322.000000,0.002000,0.382699,0.174069,-0.066475,1.028180,-4.149644,-0.050494,-17.804051,-4.040369,1.419596,0.002000,0.676816,0.463231
323.000000,0.002000,0.065955,-0.479591,-0.553613,0.387397,0.334258,-1.778422,-2.273600,9.532622,10.278142,0.002000,-0.226008,-0.549156
324.000000,0.002000,-0.003442,0.142596,-0.468376,2.816571,0.399928,-1.370633,-0.103729,-3.569449,17.748355,0.002000,0.573241,0.489747
325.000000,0.002000,0.930163,2.888377,0.042153,-0.296038,-0.314255,2.342931,-0.648293,-1.951552,-0.047757,0.002000,1.491171,-1.021654
326.000000,0.002000,-0.074992,-1.423634,-0.877094,0.504982,-1.447991,0.333780,0.026553,4.383884,2.360240,0.002000,0.068834,0.712329
327.000000,0.002000,0.134432,0.055437,0.128917,-0.189539,-1.565044,-1.176807,-5.550371,-4.464689,-8.187112,0.002000,0.146853,-0.165941
328.000000,0.002000,0.014245,-0.024482,0.265519,-4.661011,0.159334,-0.205636,2.130506,4.862531,-16.642367,0.002000,-1.548180,-0.454825
329.000000,0.002000,0.084329,-0.097754,0.065817,1.752507,-2.274296,0.469341,-6.231187,9.455243,-3.102871,0.002000,-1.912680,0.045694
330.000000,0.002000,0.529603,-0.199122,-0.461278,-1.549732,-0.957803,1.293771,-11.231380,4.936318,8.704699,0.002000,-0.293347,0.174069
331.000000,0.002000,0.263005,-0.290048,0.257554,-0.279485,-0.809338,0.575249,-10.234618,17.680778,-10.077813,0.002000,-1.932123,-0.479591
332.000000,0.002000,-0.077604,-0.241287,-0.522803,-0.896521,-2.070171,-0.761666,1.097181,9.886621,16.416051,0.002000,-1.389923,0.142596
333.000000,0.002000,0.494326,0.176558,-0.596221,-1.474820,0.793743,-3.927273,-9.538717,-3.073266,10.353521,0.002000,1.034870,2.888377
334.000000,0.002000,0.625765,-0.641691,-0.161482,-0.851598,1.409853,2.108826,-7.484070,9.188439,1.315528,0.002000,0.155894,-1.423634
335.000000,0.002000,0.475311,0.400788,0.280866,-0.519143,0.269215,0.935387,-10.510329,-10.799930,-9.073091,0.002000,-3.044172,0.055437
336.000000,0.002000,-0.253641,-0.355420,-0.054591,0.197042,-1.932773,3.747605,8.808716,14.813433,0.749293,0.002000,1.275929,-0.024482
337.000000,0.002000,-0.070421,-0.310931,-0.164727,-0.199163,2.744931,-3.079767,2.943653,15.799289,6.040431,0.002000,0.535194,-0.097754
338.000000,0.002000,1.280255,0.119783,1.442344,-2.691498,-1.699665,0.072522,-2.739438,-0.209789,-3.126363,0.002000,-0.394141,-0.199122
339.000000,0.002000,0.491945,-0.026001,-0.027649,-0.263887,2.722222,-1.677216,-17.067817,1.909189,-0.121290,0.002000,-0.569649,-0.290048
340.000000,0.002000,1.674287,0.744532,0.371373,0.503663,2.451720,1.205763,-3.966593,-1.481812,-1.172513,0.002000,-0.992131,-0.241287
341.000000,0.002000,-0.157756,0.211643,-0.146399,2.300385,-2.055376,0.599662,10.203742,-8.682831,5.762253,0.002000,-0.196705,0.176558
342.000000,0.002000,-0.444605,0.623529,0.042490,1.727259,-2.073482,4.754203,11.347398,-10.435404,0.976142,0.002000,0.382699,-0.641691
343.000000,0.002000,0.516314,-0.447646,-0.247548,-1.464616,-2.918194,2.047202,-11.399509,13.156711,2.917781,0.002000,0.065955,0.400788
344.000000,0.002000,-0.127421,-0.673846,-0.087898,-0.811860,-0.473916,-0.632035,3.018725,14.702564,-0.252365,0.002000,-0.003442,-0.355420
345.000000,0.002000,0.207538,-0.035664,0.180691,-0.405822,3.123534,-4.068056,-11.827343,3.176352,-11.835927,0.002000,0.930163,-0.310931
346.000000,0.002000,-1.148179,-1.881320,-0.558524,0.164628,-1.910187,0.776877,1.516411,2.716044,0.770513,0.002000,-0.074992,0.119783
347.000000,0.002000,-0.230304,-0.540759,-1.617590,-0.552270,1.807001,-1.526601,0.814495,1.708620,4.598532,0.002000,0.134432,-0.026001
348.000000,0.002000,-0.574302,-0.180039,0.353030,0.000820,-0.033940,-0.063967,11.883230,4.967343,-8.261000,0.002000,0.014245,0.744532
349.000000,0.002000,-0.675668,-0.545185,0.001790,0.024427,2.342775,-2.579482,9.406223,7.814335,-0.219054,0.002000,0.084329,0.211643
350.000000,0.002000,0.501500,0.034739,0.950847,-0.857537,-1.450419,1.685558,-4.453931,0.117231,-8.547213,0.002000,0.529603,0.623529
351.000000,0.002000,0.503655,0.368653,0.525571,1.384975,-0.221311,3.970537,-8.412688,-6.541898,-10.175811,0.002000,0.263005,-0.447646
352.000000,0.002000,1.948443,2.065084,-2.071785,0.035804,1.446510,1.007799,-0.865344,-0.892893,0.948840,0.002000,-0.077604,-0.673846
353.000000,0.002000,2.606345,-1.193972,0.933798,-0.168264,-0.809728,-0.350233,-1.698533,0.822961,-0.652001,0.002000,0.494326,-0.035664
354.000000,0.002000,0.109128,0.105132,0.490849,1.950467,1.174119,-1.418684,-3.645319,-1.442909,-15.708415,0.002000,0.625765,-1.881320
355.000000,0.002000,-0.134366,-0.005875,-0.150982,0.830041,0.456309,-0.272557,13.948839,3.656372,7.726925,0.002000,0.475311,-0.540759
356.000000,0.002000,-0.018346,-0.052443,0.468992,0.493274,0.410633,2.736517,-0.880235,4.194472,-17.514207,0.002000,-0.253641,-0.180039
357.000000,0.002000,0.218982,0.344193,-0.910058,0.022771,-0.928648,-3.978575,-3.232755,-4.000481,10.808772,0.002000,-0.070421,-0.545185
358.000000,0.002000,0.975560,-0.037571,0.729856,1.351742,-2.196009,-1.961437,-6.051797,0.185817,-4.445691,0.002000,1.280255,0.034739
359.000000,0.002000,-0.371839,-0.604300,-0.577035,-2.142937,1.235597,-1.028338,4.536569,8.617870,7.539064,0.002000,0.491945,0.368653
360.000000,0.002000,-0.391229,2.368903,-0.924143,-1.225934,-0.662487,0.214804,0.424565,-2.453291,0.955980,0.002000,1.674287,2.065084
361.000000,0.002000,-0.407851,0.173619,0.139774,0.188806,-0.033158,1.689123,14.705956,-0.160705,-6.603621,0.002000,-0.157756,-1.193972
362.000000,0.002000,-0.025120,-0.490057,0.081958,-2.271997,-0.305536,-2.047971,2.959069,16.184238,-1.947669,0.002000,-0.444605,0.105132
363.000000,0.002000,-0.533988,1.005548,-0.289229,-0.975352,1.049581,0.086784,4.291002,-7.591824,2.460015,0.002000,0.516314,-0.005875
364.000000,0.002000,-0.583771,-0.630149,-0.533449,-1.197297,1.023275,-0.258172,5.564420,6.825905,5.447803,0.002000,-0.127421,-0.052443
365.000000,0.002000,-0.202889,0.009897,-0.114603,0.669920,-0.932588,6.803404,11.287075,1.618307,4.813324,0.002000,0.207538,0.344193
366.000000,0.002000,-0.064933,0.145367,-0.117556,-0.974546,-0.735575,1.416531,9.944336,-6.924085,1.027496,0.002000,-1.148179,-0.037571
367.000000,0.002000,0.690910,0.302660,-0.188578,2.107328,0.746822,1.469384,-14.245233,-3.786381,4.007148,0.002000,-0.230304,-0.604300
368.000000,0.002000,-1.540797,0.720928,1.011252,-0.027816,1.984372,-1.043958,3.228930,-1.437770,-2.094050,0.002000,-0.574302,2.368903
369.000000,0.002000,-0.306641,0.006112,0.440763,-1.252119,-0.794301,-0.674694,8.770902,0.070930,-15.615083,0.002000,-0.675668,0.173619
370.000000,0.002000,0.105452,0.596404,0.292523,-0.512156,-3.142415,1.708629,-3.015741,-13.727569,-9.751083,0.002000,0.501500,-0.490057
371.000000,0.002000,-0.911895,-0.041098,-0.493877,2.669805,-0.428855,0.860168,7.735819,1.107322,4.564147,0.002000,0.503655,1.005548
372.000000,0.002000,1.254439,-0.206537,-2.420284,-1.023318,0.695412,1.901809,-1.046305,0.197824,2.229225,0.002000,1.948443,-0.630149
373.000000,0.002000,-1.212303,0.034587,-0.780204,-0.199880,-1.084584,-2.787693,5.647992,0.065562,3.725906,0.002000,2.606345,0.009897
374.000000,0.002000,1.373217,-0.923678,-0.119930,-0.806308,-0.076915,-1.585988,-5.082842,1.033430,1.911686,0.002000,0.109128,0.145367
375.000000,0.002000,2.129423,0.320684,-1.214676,0.401919,-1.072775,0.644268,-2.404936,-0.241655,1.253035,0.002000,-0.134366,0.302660
376.000000,0.002000,-0.013415,-0.015935,-0.008592,1.533011,-0.561551,1.427428,0.147109,6.286132,-3.618177,0.002000,-0.018346,0.720928
377.000000,0.002000,0.400086,1.854564,0.550296,-0.168616,1.584518,2.161019,-0.814564,-3.886046,-1.211580,0.002000,0.218982,0.006112
378.000000,0.002000,0.358220,-0.861975,1.760955,0.106103,0.154599,0.723259,-0.756997,1.888707,-3.469671,0.002000,0.975560,0.596404
379.000000,0.002000,0.203095,-0.122088,-0.037089,-0.974002,0.280649,-1.608288,-13.037281,3.205156,0.743697,0.002000,-0.371839,-0.041098
380.000000,0.002000,0.143921,0.343478,0.071624,1.905479,-1.359166,3.588992,-5.666987,-15.859119,-5.013319,0.002000,-0.391229,-0.206537
381.000000,0.002000,1.427333,-0.367272,-0.525503,-3.318579,0.225375,1.556761,-5.261273,1.588156,1.809619,0.002000,-0.407851,0.034587
382.000000,0.002000,0.543347,0.015876,0.030074,-0.991083,2.859382,-2.227965,-17.394248,0.983887,-1.366667,0.002000,-0.025120,-0.923678
383.000000,0.002000,0.021894,0.138946,0.293758,-2.576408,-1.336194,0.281840,-1.640887,-4.227951,-19.834223,0.002000,-0.533988,0.320684
384.000000,0.002000,-0.106871,0.202076,-0.866282,-0.192967,-0.534391,-2.167416,1.925075,-2.313150,12.304689,0.002000,-0.583771,-0.015935
385.000000,0.002000,-0.769968,0.083095,0.404703,1.442530,0.487750,-1.315337,10.776781,-1.535361,-7.002439,0.002000,-0.202889,1.854564
386.000000,0.002000,0.221780,-0.217837,-0.239889,2.063808,-3.171411,-2.014135,-18.635430,9.499279,14.094831,0.002000,-0.064933,-0.861975
387.000000,0.002000,-0.319525,-0.785287,0.403072,3.107413,2.496388,-2.711342,3.285373,9.098148,-4.481048,0.002000,0.690910,-0.122088
388.000000,0.002000,-0.140161,-0.561563,0.463864,0.210845,0.516170,-1.409984,2.765051,10.589239,-8.775956,0.002000,-1.540797,0.343478
389.000000,0.002000,0.137869,-0.768803,-1.416780,-1.712368,0.865000,-1.051120,-0.564028,2.729334,4.706121,0.002000,-0.306641,-0.367272
390.000000,0.002000,-0.299087,-0.857203,0.263974,-0.197073,-0.650542,-1.151780,3.057828,10.085215,-2.920449,0.002000,0.105452,0.015876
391.000000,0.002000,-0.512847,0.800337,0.456694,-0.118954,0.383532,0.628533,5.810344,-8.038471,-4.329308,0.002000,-0.911895,0.138946
392.000000,0.002000,-0.408198,-0.412625,0.072258,-1.908013,2.075197,0.130132,10.765710,10.658048,-1.985054,0.002000,1.254439,0.202076
393.000000,0.002000,0.566000,0.449688,-0.095983,1.616688,1.493554,-2.084845,-13.192881,-8.699841,1.236122,0.002000,-1.212303,0.083095
394.000000,0.002000,-0.398554,0.623079,0.126409,3.178689,-0.342276,-1.144032,7.376891,-11.080646,-4.741959,0.002000,1.373217,-0.217837
395.000000,0.002000,0.169300,0.978477,0.099938,0.203090,2.233419,0.972643,-2.402005,-10.624399,-0.157063,0.002000,2.129423,-0.785287
396.000000,0.002000,-0.103238,0.160285,0.252985,0.281261,1.082039,-1.361917,5.296152,-6.189160,-15.167918,0.002000,-0.013415,-0.561563
397.000000,0.002000,-0.249230,0.102602,0.068972,-1.327555,3.497041,2.759624,12.189235,-2.695588,-7.949399,0.002000,0.400086,-0.768803
398.000000,0.002000,-2.057244,-0.170224,-0.193588,0.068783,-0.002980,0.035673,3.462936,0.793859,0.780276,0.002000,0.358220,-0.857203
399.000000,0.002000,-0.512423,-1.063327,-0.468812,-0.114678,3.016665,1.799318,2.695271,6.502059,2.545950,0.002000,0.203095,0.800337
400.000000,0.002000,1.983842,1.105817,0.735331,-0.266013,-1.595531,0.611852,-2.442401,-1.219263,-0.963357,0.002000,0.143921,-0.412625
401.000000,0.002000,-1.061477,0.634392,0.351185,-2.951327,2.806349,0.231483,6.932616,-3.949787,-2.054410,0.002000,1.427333,0.449688
402.000000,0.002000,0.477340,-0.122927,-1.043729,0.266444,-1.428377,1.370118,-3.957649,1.423397,8.371228,0.002000,0.543347,0.623079
403.000000,0.002000,-0.885235,1.288137,-1.771593,-0.955893,-0.261406,0.576057,1.270095,-1.573074,2.321292,0.002000,0.021894,0.978477
404.000000,0.002000,-0.974736,-0.658296,-0.379170,-1.824391,-1.089622,0.675543,5.911796,4.496800,1.894543,0.002000,-0.106871,0.160285
405.000000,0.002000,0.299527,0.297785,-0.377715,-1.233232,-0.680853,-0.858713,-11.252029,-8.847734,12.024494,0.002000,-0.769968,0.102602
406.000000,0.002000,0.080604,-0.291221,0.046770,0.727413,-0.823065,1.860568,-1.393659,14.044965,-5.179479,0.002000,0.221780,-0.170224
407.000000,0.002000,0.144771,0.248641,0.102466,1.165985,2.368315,2.190379,-8.865409,-11.083358,-8.697352,0.002000,-0.319525,-1.063327
408.000000,0.002000,0.409826,0.884854,0.152190,2.057352,0.953131,1.183607,-5.214987,-11.167535,-2.181053,0.002000,-0.140161,1.105817
409.000000,0.002000,-0.013524,0.367286,0.026364,1.730123,0.513254,-0.531878,1.003334,-18.545205,-3.080906,0.002000,0.137869,0.634392
410.000000,0.002000,0.426596,0.217863,1.551322,0.874167,1.526352,1.084670,-1.474280,-0.359793,-5.303147,0.002000,-0.299087,-0.122927
411.000000,0.002000,-0.275258,0.091009,0.857504,-1.466894,-1.854793,-3.060037,3.308352,-0.973195,-11.379181,0.002000,-0.512847,1.288137
412.000000,0.002000,-0.417322,-2.021241,0.170512,1.572895,2.364079,-1.187613,0.746622,3.523266,-0.311927,0.002000,-0.408198,-0.658296
413.000000,0.002000,0.264558,-0.002828,-0.530108,2.571227,-0.887071,-0.236691,-8.057574,2.101552,15.251545,0.002000,0.566000,0.297785
414.000000,0.002000,-0.092441,2.158417,0.506358,-1.507725,-1.894207,-1.438783,0.031412,-3.283607,-0.920255,0.002000,-0.398554,-0.291221
415.000000,0.002000,0.064884,-0.474661,0.242740,-2.340928,1.941682,-3.125144,-1.347789,15.650529,-9.227459,0.002000,0.169300,0.248641
416.000000,0.002000,-0.009205,0.267542,-0.295274,4.002169,2.687384,1.351477,-0.358116,-12.226504,17.301557,0.002000,-0.103238,0.884854
417.000000,0.002000,-0.672029,0.652546,-3.203746,-0.062459,0.470584,-0.135876,0.364279,-0.310867,1.650371,0.002000,-0.249230,0.367286
418.000000,0.002000,0.459929,1.041672,0.355962,-0.168887,-0.556878,-1.186409,-4.039525,-7.754517,-2.874799,0.002000,-2.057244,0.217863
419.000000,0.002000,2.840351,3.350833,-3.316244,-0.294707,-0.687901,-0.793757,-0.346056,-0.399419,0.402353,0.002000,-0.512423,0.091009
420.000000,0.002000,-0.284819,-1.098443,-1.612972,0.257767,-1.427752,-1.526918,0.514495,2.298759,3.221861,0.002000,1.983842,-2.021241
421.000000,0.002000,-0.114318,-0.352664,0.176834,1.221930,2.460354,0.164927,4.248342,17.536246,-7.191169,0.002000,-1.061477,-0.002828
422.000000,0.002000,1.647005,2.143285,-1.465018,-0.552374,-0.303932,0.161325,-1.097153,-1.356889,0.964561,0.002000,0.477340,2.158417
423.000000,0.002000,-1.449167,-5.639052,4.643729,-0.269502,-0.060766,0.101395,0.067632,0.270004,-0.221444,0.002000,-0.885235,-0.474661
424.000000,0.002000,0.568978,-0.265808,0.594032,-2.339861,-1.742794,-3.881913,-8.542376,3.656103,-8.062833,0.002000,-0.974736,0.267542
425.000000,0.002000,0.654939,-0.320166,0.682985,0.756042,-0.467873,-1.944600,-6.691080,3.887833,-7.151566,0.002000,0.299527,0.652546
426.000000,0.002000,0.535837,-0.484690,0.735945,0.272479,-0.283789,-2.138595,-5.557972,4.698129,-7.147103,0.002000,0.080604,1.041672
427.000000,0.002000,1.441400,0.203683,0.452880,-1.077721,-1.993414,-0.901482,-5.813192,-0.733688,-1.812270,0.002000,0.144771,3.350833
428.000000,0.002000,-0.256575,0.464887,-0.585646,1.187759,-1.230798,-2.570354,4.023367,-7.381689,11.041229,0.002000,0.409826,-1.098443
429.000000,0.002000,-0.099163,0.647258,-0.087826,2.599586,2.185340,-1.317732,3.816936,-15.372758,3.115534,0.002000,-0.013524,-0.352664
430.000000,0.002000,-1.850213,1.423396,-1.897639,-0.077659,0.190974,-1.074093,1.398357,-0.911317,1.195521,0.002000,0.426596,2.143285
431.000000,0.002000,0.448933,-0.030405,-0.310197,2.572240,2.322773,-1.685287,-15.812917,2.431786,10.633904,0.002000,-0.275258,-5.639052
432.000000,0.002000,1.000385,0.229561,-0.315919,2.962911,-0.420265,-0.194840,-9.243475,-2.013299,3.142514,0.002000,-0.417322,-0.265808
433.000000,0.002000,-0.263797,0.230169,-0.377160,-0.359170,-1.135428,0.627274,10.077340,-7.096753,14.310115,0.002000,0.264558,-0.320166
434.000000,0.002000,0.089800,-1.776419,-1.560634,-2.681015,-0.861654,0.446060,-0.216997,2.244503,1.883438,0.002000,-0.092441,-0.484690
435.000000,0.002000,-0.100786,0.663276,0.351839,0.697987,1.096588,-2.888030,2.306417,-11.545630,-7.280571,0.002000,0.064884,0.203683
436.000000,0.002000,-0.607070,-0.387237,0.174807,2.883692,-0.540342,2.243832,11.853241,7.458113,-3.337217,0.002000,-0.009205,0.464887
437.000000,0.002000,0.439761,-0.039357,0.177982,3.187824,0.074676,0.508129,-15.406163,3.321097,-6.312809,0.002000,-0.672029,0.647258
438.000000,0.002000,0.028203,0.163340,-0.582792,-0.001843,0.522129,0.653661,-2.450572,-4.382208,15.806980,0.002000,0.459929,1.423396
439.000000,0.002000,-0.096614,0.426766,0.192622,2.492913,-0.953031,2.689917,3.447924,-15.389296,-7.424004,0.002000,2.840351,-0.030405
440.000000,0.002000,-0.718609,-0.133959,0.151086,-1.654108,-0.743352,-1.400142,13.608261,4.233119,-3.209045,0.002000,-0.284819,0.229561
441.000000,0.002000,0.392124,0.103611,0.517116,1.279598,2.668816,0.309629,-4.846615,-1.543019,-13.629370,0.002000,-0.114318,0.230169
442.000000,0.002000,0.029489,0.497475,0.147051,-1.000376,2.293306,2.714916,1.074388,-15.274967,-5.846408,0.002000,1.647005,-1.776419
443.000000,0.002000,-0.393819,0.112596,-0.824237,1.275049,-1.822124,2.747991,4.824443,-2.251351,12.442763,0.002000,-1.449167,0.663276
444.000000,0.002000,0.089423,-0.056799,-0.082310,1.876443,1.268284,-3.363204,-7.632266,7.957109,3.887341,0.002000,0.568978,-0.387237
445.000000,0.002000,-0.195825,-0.028595,-0.270550,3.655627,1.317437,0.066742,7.843160,4.698083,10.215304,0.002000,0.654939,-0.039357
446.000000,0.002000,0.707046,1.001056,0.640567,1.718662,2.301060,0.801490,-3.988011,-4.946925,-3.140266,0.002000,0.535837,0.163340
447.000000,0.002000,-0.227826,0.619248,0.351943,-1.093004,2.237513,1.745553,4.240768,-11.845793,-6.582990,0.002000,1.441400,0.426766
448.000000,0.002000,1.265818,-0.828390,0.122695,-0.143748,0.440093,-1.953237,-4.795049,3.388734,-0.669249,0.002000,-0.256575,-0.133959
449.000000,0.002000,0.364486,0.262582,-0.105055,1.733976,-0.152588,0.509385,-13.255598,-8.281477,0.904148,0.002000,-0.099163,0.103611
450.000000,0.002000,-0.079970,0.145991,-0.166947,-3.984969,3.442615,1.983844,11.997021,-8.644690,7.643917,0.002000,-1.850213,0.497475
451.000000,0.002000,0.048201,-5.914855,1.641711,-0.801685,0.012638,1.136014,-0.011484,0.499560,-0.135048,0.002000,0.448933,0.112596
452.000000,0.002000,-1.402845,4.163016,1.364700,1.081597,-0.488112,-0.421755,0.292844,-0.851311,-0.287701,0.002000,1.000385,-0.056799
453.000000,0.002000,-1.588565,0.661798,1.932683,1.115855,-0.422540,-0.165137,1.595401,-0.603602,-1.987490,0.002000,-0.263797,-0.028595
454.000000,0.002000,0.225241,0.362230,-0.198559,-0.398340,-4.247911,-0.800855,-6.418037,-14.572184,11.246417,0.002000,0.089800,1.001056
455.000000,0.002000,-0.898529,0.428564,-0.646124,2.674489,0.532368,1.464724,6.676148,-3.098933,4.883888,0.002000,-0.100786,0.619248
456.000000,0.002000,0.143392,0.205806,-0.241754,-2.078100,0.516485,0.691687,-10.553846,-7.313743,11.223355,0.002000,-0.607070,-0.828390
457.000000,0.002000,-0.410867,-1.520770,1.101180,0.406248,0.988047,-0.297537,0.750375,3.326126,-2.329674,0.002000,0.439761,0.262582
458.000000,0.002000,0.067085,-0.484174,0.055443,1.124384,-0.393519,4.005450,-2.754034,16.857028,-3.115255,0.002000,0.028203,0.145991
459.000000,0.002000,-0.427280,0.642275,-0.821212,2.333234,-1.203711,-1.755505,4.192960,-5.281426,7.288896,0.002000,-0.096614,-5.914855
460.000000,0.002000,0.107351,-0.066705,-0.017592,2.594919,2.062559,1.029160,-8.282318,7.860147,-0.243787,0.002000,-0.718609,4.163016
461.000000,0.002000,0.082786,-0.246140,-0.933206,-3.075127,0.483669,0.671672,-0.805819,3.579242,10.900504,0.002000,0.392124,0.661798
462.000000,0.002000,-1.135290,0.510670,-0.236924,1.517227,-0.012814,1.521201,8.131094,-2.908562,1.131593,0.002000,0.029489,0.362230
463.000000,0.002000,-0.315567,0.108649,-0.469982,0.917422,2.527873,2.593261,10.265484,-2.005000,14.385824,0.002000,-0.393819,0.428564
464.000000,0.002000,0.430195,-0.439883,0.364536,-3.279223,-0.413079,-0.003054,-8.442486,9.125239,-7.478750,0.002000,0.089423,0.205806
465.000000,0.002000,-0.079689,-0.295851,0.499886,-0.334687,-5.024806,0.034498,1.820422,7.547417,-12.780640,0.002000,-0.195825,-1.520770
466.000000,0.002000,1.054348,-0.282279,1.694867,2.084293,-1.607835,0.388715,-2.153812,0.570208,-3.218289,0.002000,0.707046,-0.484174
467.000000,0.002000,-0.174436,0.313486,-0.042568,0.981529,-2.981079,-0.641222,8.956617,-15.126450,-1.740623,0.002000,-0.227826,0.642275
468.000000,0.002000,-0.531004,-0.410319,0.805558,4.116317,0.666339,-1.860840,4.977774,3.940669,-8.093837,0.002000,1.265818,-0.066705
469.000000,0.002000,0.041015,-0.184687,0.291658,1.215385,-0.480383,-0.846035,-1.359518,11.824806,-13.849379,0.002000,0.364486,-0.246140
470.000000,0.002000,-1.565290,1.912717,-0.121589,2.492860,-0.812254,-0.000949,1.865233,-2.182620,0.124842,0.002000,-0.079970,0.510670
471.000000,0.002000,0.280338,1.117394,-0.248275,1.276517,1.821209,-2.050139,-2.387699,-8.787053,2.002470,0.002000,0.048201,0.108649
472.000000,0.002000,0.347823,0.967701,1.587759,-1.221066,2.513302,0.615988,-0.829542,-2.122260,-3.837997,0.002000,-1.402845,-0.439883
473.000000,0.002000,-8.323597,1.984254,7.756795,-1.672500,-0.261913,0.794686,0.107622,-0.025428,-0.100818,0.002000,-1.588565,-0.295851
474.000000,0.002000,-0.160765,-0.357988,0.689967,-2.262936,-1.529725,-2.019751,2.728434,6.114935,-10.911658,0.002000,0.225241,-0.282279
475.000000,0.002000,-0.402903,-0.494891,-0.524424,-1.346990,1.214894,0.525403,3.610336,6.514746,4.567192,0.002000,-0.898529,0.313486
476.000000,0.002000,0.372762,1.278289,0.976920,-0.071010,2.455607,0.195382,-1.205161,-4.580028,-3.233461,0.002000,0.143392,-0.410319
477.000000,0.002000,0.506325,0.379624,0.037545,-1.413404,-0.203339,3.313996,-15.369990,-9.271110,-2.246758,0.002000,-0.410867,-0.184687
478.000000,0.002000,0.701923,5.818870,-2.582150,-0.333985,-0.180944,0.097450,-0.054406,-0.446512,0.199091,0.002000,0.067085,1.912717
479.000000,0.002000,-0.056343,-0.428595,-0.609251,1.934793,-2.258232,0.155672,0.500994,8.955704,12.033020,0.002000,-0.427280,1.117394
480.000000,0.002000,1.374864,-0.248859,-1.618430,-1.512362,-0.815589,0.849757,-2.290442,0.504282,2.563981,0.002000,0.107351,0.967701
481.000000,0.002000,1.703807,0.908577,-0.192749,-0.453295,0.811859,-1.101104,-3.813032,-1.897031,0.322025,0.002000,0.082786,1.984254
482.000000,0.002000,0.901834,-0.458217,1.760332,0.159803,-1.441084,0.987948,-1.717475,0.980030,-3.301881,0.002000,-1.135290,-0.357988
483.000000,0.002000,10.385089,-3.799854,-2.076527,1.274446,-0.482600,-0.160094,-0.144664,0.053770,0.029024,0.002000,-0.315567,-0.494891
484.000000,0.002000,-0.099662,0.258801,-0.231269,-1.496379,-3.622649,-0.850633,7.809904,-9.768083,10.994711,0.002000,0.430195,1.278289
485.000000,0.002000,-0.106815,-0.330843,-0.008796,1.253423,1.446138,0.032954,6.310781,16.175173,0.465475,0.002000,-0.079689,0.379624
486.000000,0.002000,0.798396,0.980526,0.101334,0.410271,1.028210,3.178106,-5.028113,-6.081842,-0.224164,0.002000,1.054348,5.818870
487.000000,0.002000,0.034076,-0.510731,-0.585795,2.623938,2.004912,-4.042622,0.254444,9.929419,11.070694,0.002000,-0.174436,-0.428595
488.000000,0.002000,-1.810450,1.393842,1.253502,0.304943,-0.098991,1.057491,1.777757,-1.219420,-1.202500,0.002000,-0.531004,-0.248859
489.000000,0.002000,0.186182,-0.575496,-0.012893,1.653504,-2.134391,2.575430,-6.360984,16.654354,0.760131,0.002000,0.041015,0.908577
490.000000,0.002000,-0.605205,0.711956,-1.593765,-1.020006,-0.405661,0.451709,1.553293,-1.845192,3.893694,0.002000,-1.565290,-0.458217
491.000000,0.002000,-0.377905,0.148750,-0.060119,0.503262,-0.723310,-1.408428,18.114383,-4.206891,0.250850,0.002000,0.280338,-3.799854
492.000000,0.002000,0.368901,0.037391,-0.476547,0.259817,0.578117,0.874961,-9.631923,0.758709,13.752643,0.002000,0.347823,0.258801
493.000000,0.002000,0.299854,0.122006,0.313211,4.590464,-0.488334,-1.579108,-11.523194,-0.742386,-12.402187,0.002000,-8.323597,-0.330843
494.000000,0.002000,-0.036303,0.236691,-0.305114,-1.764641,1.242032,0.293288,1.718368,-7.703626,18.131552,0.002000,-0.160765,0.980526
495.000000,0.002000,-0.431594,0.121755,-0.352261,-2.029576,0.400286,-0.176152,14.107217,-1.587642,12.793605,0.002000,-0.402903,-0.510731
496.000000,0.002000,0.312314,0.094645,-0.183931,0.573826,4.908453,3.610448,-18.367461,-3.259470,7.997521,0.002000,0.372762,1.393842
497.000000,0.002000,0.054932,-11.480590,-4.868196,-0.682553,-1.232114,-0.289421,-0.000676,0.117897,0.049746,0.002000,0.506325,-0.575496
498.000000,0.002000,-0.354363,0.371381,0.014925,-0.342235,-3.482447,1.395141,13.696877,-14.979538,0.893483,0.002000,0.701923,0.711956
499.000000,0.002000,-0.421086,-0.143429,0.283669,-3.940212,3.454040,-1.547568,14.640157,7.526294,-12.339694,0.002000,-0.056343,0.148750
500.000000,0.002000,0.521607,0.263137,0.554074,0.777940,-1.471136,1.212294,-10.313251,-2.817445,-10.195957,0.002000,1.374864,0.037391
501.000000,0.002000,0.443657,0.173971,0.116642,-1.265680,0.247124,0.352494,-17.371854,-5.273733,-4.836773,0.002000,1.703807,0.122006
502.000000,0.002000,0.434233,0.508236,-0.256860,-1.083593,2.835444,-2.700225,-9.988457,-11.633398,6.491623,0.002000,0.901834,0.236691
503.000000,0.002000,0.014283,-0.023148,0.535469,-0.037425,-3.694628,-0.459077,-2.850735,2.729887,-16.223392,0.002000,10.385089,0.121755
504.000000,0.002000,-1.280194,0.179053,-0.626288,-1.570809,-0.843085,0.898421,6.023020,1.241022,5.152373,0.002000,-0.099662,0.094645
505.000000,0.002000,0.136137,0.308897,0.639455,0.074151,0.928982,3.821251,-3.055986,-5.619902,-13.855961,0.002000,-0.106815,-11.480590
506.000000,0.002000,0.104157,0.414880,0.697422,0.475537,0.846787,0.029904,-1.798713,-5.551251,-11.733156,0.002000,0.798396,0.371381
507.000000,0.002000,-0.580667,0.154493,-0.187042,-0.447985,-0.010800,-4.484733,14.959205,-2.030363,5.598926,0.002000,0.034076,-0.143429
508.000000,0.002000,0.247269,-0.270869,0.139982,0.106044,-1.563799,5.669126,-11.431560,12.762704,-7.502393,0.002000,-1.810450,0.263137
509.000000,0.002000,-0.285956,0.437556,-0.362685,2.769671,-1.517398,4.058377,7.626936,-11.856701,11.860113,0.002000,0.186182,0.173971
510.000000,0.002000,0.358725,0.033521,-0.636722,0.840873,2.935796,-4.688817,-7.562693,0.217491,13.247282,0.002000,-0.605205,0.508236
511.000000,0.002000,5.709788,-3.717761,2.986195,0.139709,0.382780,1.062463,-0.270725,0.178426,-0.141791,0.002000,-0.377905,-0.023148
512.000000,0.002000,0.371785,-0.053551,-0.354577,-2.457398,-0.441033,-2.828109,-13.981572,4.082795,12.053291,0.002000,0.368901,0.179053
513.000000,0.002000,0.409471,0.111452,0.508589,4.848966,1.805167,-2.261636,-11.501744,-3.966359,-11.007329,0.002000,0.299854,0.308897
514.000000,0.002000,-0.578500,0.500864,0.005797,3.526356,0.236840,-1.970410,11.323907,-9.106686,-0.407264,0.002000,-0.036303,0.414880
515.000000,0.002000,0.337424,-1.579258,-2.313461,0.006466,-0.472042,-1.175340,-0.305122,1.322005,1.816007,0.002000,-0.431594,0.154493
516.000000,0.002000,-0.081068,-0.073456,-0.026956,-1.701556,1.093665,-1.928960,8.314189,7.614568,-0.063008,0.002000,0.312314,-0.270869
517.000000,0.002000,-0.080994,0.202271,0.437056,-0.520395,2.351084,-2.578239,3.973235,-6.200726,-15.301224,0.002000,0.054932,0.437556
518.000000,0.002000,0.077313,-0.135013,-0.226806,0.106405,1.408428,-2.380822,-5.858482,9.303609,13.774372,0.002000,-0.354363,0.033521
519.000000,0.002000,-0.288081,0.857800,0.137857,0.556930,-1.217930,-0.039232,3.948040,-11.197613,-1.824494,0.002000,-0.421086,-3.717761
520.000000,0.002000,0.426297,-0.475068,0.292548,2.141316,0.182159,-0.031680,-8.813459,10.570432,-6.174082,0.002000,0.521607,-0.053551
521.000000,0.002000,-0.951866,0.147841,0.494517,0.237970,-2.220579,-0.998762,8.939697,-0.846918,-4.957800,0.002000,0.443657,0.111452
522.000000,0.002000,0.289122,-0.309910,-0.106081,1.163138,1.935836,1.670056,-9.260445,16.921728,-0.243273,0.002000,0.434233,0.500864
523.000000,0.002000,-0.326705,-0.041698,-0.876547,2.225024,-0.613693,0.432322,3.861445,1.388898,11.343145,0.002000,0.014283,-1.579258
524.000000,0.002000,-0.922762,-0.971571,0.157478,1.930402,2.220533,-0.374909,4.528434,5.111898,-0.994156,0.002000,-1.280194,-0.073456
525.000000,0.002000,0.842643,0.672876,1.950518,-0.183130,-0.221761,0.915795,-1.323662,-0.973084,-2.977098,0.002000,0.136137,0.202271
526.000000,0.002000,0.583567,0.288334,0.199854,-0.218203,0.806649,-0.963924,-14.624456,-5.769292,-5.524670,0.002000,0.104157,-0.135013
527.000000,0.002000,-0.200971,0.097723,0.330100,1.025909,1.535200,2.135560,6.908620,-2.874652,-16.430367,0.002000,-0.580667,0.857800
528.000000,0.002000,-1.098205,-0.257969,2.356761,1.369320,-0.783066,1.144596,1.070123,0.259606,-2.259853,0.002000,0.247269,-0.475068
529.000000,0.002000,-0.103119,-0.425966,0.425973,1.546510,-1.712386,-0.176124,2.023585,10.408693,-14.371337,0.002000,-0.285956,0.147841
530.000000,0.002000,2.724795,-2.066858,-0.805961,-0.376787,1.629545,0.695810,-1.164730,0.904945,0.335279,0.002000,0.358725,-0.309910
531.000000,0.002000,-1.970383,-0.233342,0.341053,0.439307,0.083072,-0.980772,3.911465,0.553870,-0.712865,0.002000,5.709788,-0.041698
532.000000,0.002000,1.147746,0.278155,0.250249,0.515302,-2.138160,-2.775115,-8.441135,-1.747695,-2.050076,0.002000,0.371785,-0.971571
533.000000,0.002000,-1.202148,-0.148675,0.666715,-0.106171,-2.041997,2.236438,6.099408,0.924730,-3.425206,0.002000,0.409471,0.672876
534.000000,0.002000,-0.023326,-0.199495,-0.005402,-1.454409,1.847076,-0.535479,1.967464,10.537063,0.903945,0.002000,-0.578500,0.288334
535.000000,0.002000,-1.618725,-2.141146,-0.885759,0.008234,-0.153624,0.194930,1.235603,1.753410,0.656616,0.002000,0.337424,0.097723
536.000000,0.002000,-0.510702,-0.437495,-0.313065,-3.459173,-2.695840,-2.160432,9.698956,7.652645,3.821145,0.002000,-0.081068,-0.257969
537.000000,0.002000,0.515210,0.037448,1.129585,-1.095185,-1.699171,-0.531872,-3.315386,0.145264,-7.252541,0.002000,-0.080994,-0.425966
538.000000,0.002000,0.258930,-1.455254,0.301365,-0.048536,-2.904218,1.036618,-1.117896,5.526605,-1.455878,0.002000,0.077313,-2.066858
539.000000,0.002000,0.200643,0.546325,1.214392,-2.064034,-2.155315,-1.398120,-1.026952,-2.694411,-6.551035,0.002000,-0.288081,-0.233342
540.000000,0.002000,-0.345255,-0.328850,-0.156375,0.383448,-3.103315,-0.330494,14.621333,13.132095,5.502930,0.002000,0.426297,0.278155
541.000000,0.002000,-0.728419,1.351670,1.362883,-0.864146,0.961510,1.035609,1.352446,-2.458691,-2.670860,0.002000,-0.951866,-0.148675
542.000000,0.002000,-0.735142,-0.046736,0.887138,-1.484286,0.122300,-2.227258,5.364225,0.550955,-6.837947,0.002000,0.289122,-0.199495
543.000000,0.002000,0.135530,0.686184,-0.509170,-0.962957,-2.170009,0.711600,-2.467259,-9.911108,8.785619,0.002000,-0.326705,-2.141146
544.000000,0.002000,0.187542,-0.283828,0.053571,3.444233,-0.255605,-0.912055,-5.436312,13.982790,-1.465515,0.002000,-0.922762,-0.437495
545.000000,0.002000,0.955275,0.253807,-0.567794,2.569637,1.979316,-1.236293,-7.612879,-1.859449,4.936925,0.002000,0.842643,0.037448
546.000000,0.002000,-0.136422,0.138585,-0.352623,1.961183,1.050519,-1.392383,8.603200,-2.881140,17.180958,0.002000,0.583567,-1.455254
547.000000,0.002000,0.014630,-0.100484,0.089931,3.026994,0.564111,2.088461,1.217047,11.560856,-10.824535,0.002000,-0.200971,0.546325
548.000000,0.002000,0.991456,1.058772,0.108277,2.802376,1.515828,-0.286402,-4.492862,-4.581211,-0.190930,0.002000,-1.098205,-0.328850
549.000000,0.002000,-1.405163,-1.442125,1.107731,-2.067624,0.695789,-0.246020,1.835299,1.949178,-1.535999,0.002000,-0.103119,1.351670
550.000000,0.002000,0.004913,-0.828687,-0.311011,-0.956805,2.456784,-1.077953,-0.566568,11.823039,4.164147,0.002000,2.724795,-0.046736
551.000000,0.002000,-0.925835,-0.053333,1.139226,0.203211,1.176357,3.337676,3.947804,0.377872,-5.027549,0.002000,-1.970383,0.686184
552.000000,0.002000,0.137847,0.031474,0.472030,-1.903298,1.856403,2.671563,-3.686019,1.633454,-16.857949,0.002000,1.147746,-0.283828
553.000000,0.002000,-1.365820,1.198514,-1.868977,0.225361,-0.092726,-1.678958,1.394880,-1.103320,1.878348,0.002000,-1.202148,0.253807
554.000000,0.002000,-0.090374,-0.039758,0.078700,1.499527,-0.437661,-0.161558,3.387063,6.815801,-9.402140,0.002000,-0.023326,0.138585
555.000000,0.002000,0.546546,0.573392,-0.062727,0.723437,2.960350,0.497051,-13.727407,-8.081246,2.316031,0.002000,-1.618725,-0.100484
556.000000,0.002000,-0.359547,0.545090,0.542897,-0.265351,-0.357961,1.128905,5.088164,-6.810240,-8.472519,0.002000,-0.510702,1.058772
557.000000,0.002000,-0.156981,0.221988,0.635796,-1.938924,-0.620613,-1.694485,2.424522,-3.375047,-13.991062,0.002000,0.515210,-1.442125
558.000000,0.002000,-0.466150,2.523276,0.626004,0.880266,0.206764,1.274036,0.474725,-2.465048,-0.697072,0.002000,0.258930,-0.828687
559.000000,0.002000,0.079713,1.083829,-1.387955,2.210193,1.042797,0.727619,-0.216537,-2.953388,3.856979,0.002000,0.200643,-0.053333
560.000000,0.002000,-0.021135,-1.357166,-1.347367,0.158804,0.751705,-2.694510,-0.115032,2.993210,2.777318,0.002000,-0.345255,0.031474
561.000000,0.002000,0.194749,0.279781,-0.343984,-2.223643,0.332828,2.560394,-7.871564,-10.128997,13.248002,0.002000,-0.728419,1.198514
562.000000,0.002000,2.318113,1.091008,-0.086935,0.152871,-2.378514,0.010199,-2.436519,-1.037162,0.119563,0.002000,-0.735142,-0.039758
563.000000,0.002000,0.119952,0.429463,-1.382526,1.224207,-1.694658,2.342787,-0.531128,-1.882802,6.161611,0.002000,0.135530,0.573392
564.000000,0.002000,1.787303,-0.039673,-0.541011,-0.961103,-1.478626,1.635649,-4.131072,0.274367,1.245841,0.002000,0.187542,0.545090
565.000000,0.002000,1.110134,3.016756,1.593687,0.548219,-1.125422,-0.658265,-0.478459,-1.256591,-0.693227,0.002000,0.955275,0.221988
566.000000,0.002000,-0.546134,1.400611,-1.082418,0.742433,-0.063458,-0.741713,1.371304,-3.428925,2.683080,0.002000,-0.136422,2.523276
567.000000,0.002000,-2.808524,-0.498296,0.827243,-0.085983,-0.320873,0.649922,2.051151,0.336292,-0.599069,0.002000,0.014630,1.083829
568.000000,0.002000,-0.306279,-0.242534,-0.363304,0.953375,1.076769,-0.141881,9.051728,7.605282,11.410776,0.002000,0.991456,-1.357166
569.000000,0.002000,0.540683,-1.032047,1.000824,0.246402,-0.948889,-2.189626,-2.041700,3.920139,-3.590231,0.002000,-1.405163,0.279781
570.000000,0.002000,-0.913476,0.660629,-0.920619,-3.481864,0.302574,-2.189687,4.195782,-3.135071,4.383901,0.002000,0.004913,1.091008
571.000000,0.002000,0.057462,0.597551,0.230615,-2.011508,-1.053037,2.611656,-1.617306,-13.865698,-5.987922,0.002000,-0.925835,0.429463
572.000000,0.002000,1.064175,0.998567,1.031864,0.144184,-1.831829,-1.639568,-2.890152,-2.495882,-2.826293,0.002000,0.137847,-0.039673
573.000000,0.002000,0.069630,0.461210,-0.196553,-0.572991,-1.341840,1.085933,-4.397350,-17.490665,6.335204,0.002000,-1.365820,3.016756
574.000000,0.002000,-0.193818,0.523911,1.073970,2.949234,-0.778864,-0.653581,1.519420,-3.051392,-7.608464,0.002000,-0.090374,1.400611
575.000000,0.002000,-2.448515,-1.097986,0.449029,-1.641450,0.162540,0.356343,2.218081,0.996822,-0.438529,0.002000,0.546546,-0.498296
576.000000,0.002000,-0.549548,-0.386586,-0.018821,-0.198013,1.848000,-1.402824,13.441398,8.073571,-0.140526,0.002000,-0.359547,-0.242534
577.000000,0.002000,-0.339596,0.034035,-0.221004,2.385819,-1.113623,-2.929324,13.504606,2.955438,8.895086,0.002000,-0.156981,-1.032047
578.000000,0.002000,-0.419020,0.132322,3.875670,0.521433,0.947487,0.875541,0.129667,-0.024289,-1.254874,0.002000,-0.466150,0.660629
579.000000,0.002000,0.165849,0.772937,1.200680,0.450317,2.603168,1.698549,-0.663522,-3.351499,-5.486851,0.002000,0.079713,0.597551
580.000000,0.002000,-0.297955,0.285094,-0.279489,2.530713,-3.939919,-2.096194,12.305946,-11.488910,11.685035,0.002000,-0.021135,0.998567
581.000000,0.002000,0.316005,0.672346,-0.369632,2.119377,-1.245187,-1.414073,-5.929722,-11.627999,7.085051,0.002000,0.194749,0.461210
582.000000,0.002000,0.630691,-1.212179,-1.056945,2.091628,-2.483972,-0.919487,-1.595663,3.477356,2.929339,0.002000,2.318113,0.523911
583.000000,0.002000,2.396035,2.586706,-1.202272,-0.413816,-1.251147,-1.871117,-0.950285,-0.979238,0.455529,0.002000,0.119952,-1.097986
584.000000,0.002000,0.160025,0.027013,0.369905,2.342128,-1.751561,2.302210,-5.184311,-0.496208,-18.002274,0.002000,1.787303,-0.386586
585.000000,0.002000,0.156047,-0.474355,0.344532,4.813263,-1.951336,-0.064845,-5.698329,12.692578,-7.311206,0.002000,1.110134,0.034035
586.000000,0.002000,0.085945,0.526558,-0.081079,1.787232,1.304116,-0.421671,-2.901419,-16.686100,2.526715,0.002000,-0.546134,0.132322
587.000000,0.002000,-3.052958,-0.143278,0.284688,0.443178,0.610101,-0.494962,1.995003,0.115504,-0.208966,0.002000,-2.808524,0.772937
588.000000,0.002000,0.403371,0.686196,1.348484,-0.389222,0.562399,-0.809155,-1.673053,-2.398010,-5.117234,0.002000,-0.306279,0.285094
589.000000,0.002000,0.157500,-0.503543,0.082860,1.478811,1.753058,4.325731,-4.483723,16.283070,-4.104613,0.002000,0.540683,0.672346
590.000000,0.002000,-0.889690,1.184365,-2.206248,0.372403,1.640845,-0.946174,0.946417,-1.012529,2.079377,0.002000,-0.913476,-1.212179
591.000000,0.002000,0.259288,-0.161170,-0.097767,-1.365518,-2.530112,1.331189,-12.270759,10.328559,3.511152,0.002000,0.057462,2.586706
592.000000,0.002000,-0.031897,0.447458,-0.192337,-0.916179,1.538962,-1.583447,4.226492,-21.014364,11.717305,0.002000,1.064175,0.027013
593.000000,0.002000,0.607367,-1.805197,-0.200199,-0.778668,1.488487,0.622179,-1.196779,3.858007,0.429108,0.002000,0.069630,-0.474355
594.000000,0.002000,-0.774471,-0.928951,-2.059844,-0.892921,-1.800625,-0.223838,0.949589,1.177514,2.532577,0.002000,-0.193818,0.526558
595.000000,0.002000,0.404123,0.508461,0.053213,0.407676,3.198132,0.068296,-10.169277,-13.677234,-2.327960,0.002000,-2.448515,-0.143278
596.000000,0.002000,2.251350,0.836703,-1.716414,-0.218284,0.636900,-0.193786,-1.642711,-0.625585,1.277659,0.002000,-0.549548,0.686196
597.000000,0.002000,1.533337,0.177292,0.870288,0.815703,1.896385,0.926795,-3.398866,-0.297952,-1.642069,0.002000,-0.339596,-0.503543
598.000000,0.002000,-0.133581,-0.149606,-0.487999,1.361417,-3.187614,0.010871,3.492210,9.451395,13.861986,0.002000,-0.419020,1.184365
599.000000,0.002000,-1.078276,-0.727324,-0.183476,-0.919263,0.066419,1.535154,5.686313,4.307689,1.272581,0.002000,0.165849,-0.161170
600.000000,0.002000,0.657232,0.314321,0.747545,0.629109,1.277754,-0.325560,-6.726152,-2.779016,-7.714758,0.002000,-0.297955,0.447458
601.000000,0.002000,-0.427557,0.157308,-0.743535,1.479143,-2.360923,-1.830291,6.422402,-2.012702,10.909779,0.002000,0.316005,-1.805197
602.000000,0.002000,0.437090,0.172536,-0.998793,0.924232,-0.430203,-0.785450,-3.945636,-1.041240,9.120826,0.002000,0.630691,-0.928951
603.000000,0.002000,1.445200,-1.536661,-0.996936,-1.047511,-1.027287,-0.944983,-1.936648,1.807020,1.353176,0.002000,2.396035,0.508461
604.000000,0.002000,0.162346,-0.158002,-0.058618,-2.796890,-2.994079,-1.341448,-6.278743,11.629587,3.002704,0.002000,0.160025,0.836703
605.000000,0.002000,-0.059542,0.170795,0.219397,3.216403,1.847538,2.199313,4.641479,-5.951216,-12.225774,0.002000,0.156047,0.177292
606.000000,0.002000,2.246689,3.408713,-2.369817,-1.051291,0.217284,0.325958,-0.442332,-0.644188,0.456683,0.002000,0.085945,-0.149606
607.000000,0.002000,0.836056,0.718746,-0.194772,0.231402,-0.937476,2.331827,-7.879113,-6.163096,1.374040,0.002000,-3.052958,-0.727324
608.000000,0.002000,-0.032242,-0.084481,0.266419,-0.447298,-2.250563,0.504064,2.250745,3.685405,-15.129285,0.002000,0.403371,0.314321
609.000000,0.002000,-1.809904,1.398187,-2.064524,0.501046,0.182135,0.296721,1.255902,-0.809339,1.459782,0.002000,0.157500,0.157308
610.000000,0.002000,0.213099,0.228744,0.096478,-0.692469,-3.277400,2.070898,-14.250630,-9.914808,-5.221305,0.002000,-0.889690,0.172536
611.000000,0.002000,0.260130,0.483233,0.016919,0.162717,-1.766153,2.881111,-4.066614,-17.421722,-2.096987,0.002000,0.259288,-1.536661
612.000000,0.002000,0.168106,-0.121017,0.148933,0.834294,-0.146786,-1.153187,-5.582027,8.527047,-5.707753,0.002000,-0.031897,-0.158002
613.000000,0.002000,-0.420410,-0.125755,-0.170227,-1.026790,0.454978,-0.606262,13.083970,5.916272,6.460846,0.002000,0.607367,0.170795
614.000000,0.002000,-0.460091,0.075987,-0.527653,-1.126260,0.249732,2.405771,10.266446,-0.500027,11.351408,0.002000,-0.774471,3.408713
615.000000,0.002000,-0.247135,0.879579,-0.634314,0.005897,3.213747,-0.301586,2.427157,-7.990616,6.079130,0.002000,0.404123,0.718746
616.000000,0.002000,-0.543078,-0.011995,0.023107,-0.977383,-0.491839,-3.514430,13.488613,1.871914,2.582551,0.002000,2.251350,-0.084481
617.000000,0.002000,0.004557,-0.472976,0.081115,-1.270773,3.335914,-1.030123,-0.268027,17.617396,-3.521073,0.002000,1.533337,1.398187
618.000000,0.002000,0.040271,-0.271846,-0.147642,0.912428,0.887872,2.333088,-1.384719,15.920737,7.894851,0.002000,-0.133581,0.228744
619.000000,0.002000,-0.892579,-0.337336,2.636897,-0.408316,-0.097151,1.091560,0.505141,0.260882,-2.319036,0.002000,-1.078276,0.483233
620.000000,0.002000,-0.340448,0.461580,-0.335381,-1.457160,0.647670,-2.002518,10.266115,-11.874097,8.761356,0.002000,0.657232,-0.121017
621.000000,0.002000,-0.226851,-0.512963,-0.020908,0.125053,-2.697974,2.761346,5.619883,14.670943,-1.111414,0.002000,-0.427557,-0.125755
622.000000,0.002000,0.064079,-0.224527,1.038117,-2.026901,1.141745,0.701783,-0.774663,2.226823,-9.399451,0.002000,0.437090,0.075987
623.000000,0.002000,0.074939,0.007526,-0.147236,-1.118019,-1.312315,-1.078796,-5.587530,4.759792,7.380373,0.002000,1.445200,0.879579
624.000000,0.002000,0.139640,0.169606,-0.160631,-1.796079,0.891255,-0.663072,-10.977398,-7.188332,10.640052,0.002000,0.162346,-0.011995
625.000000,0.002000,0.253404,-2.049168,-1.928827,0.167923,-0.114102,-0.465288,-0.267999,1.633102,1.493616,0.002000,-0.059542,-0.472976
626.000000,0.002000,-0.478906,-0.467822,0.271331,2.805823,0.402504,0.832453,9.525660,9.881676,-5.182449,0.002000,2.246689,-0.271846
627.000000,0.002000,-0.122959,-0.293614,0.254598,-0.429406,0.124381,-3.259699,5.607601,12.299361,-12.465059,0.002000,0.836056,-0.337336
628.000000,0.002000,0.226417,-0.490976,0.417420,-1.604026,1.818398,2.908274,-4.861271,10.601762,-9.340676,0.002000,-0.032242,0.461580
629.000000,0.002000,-0.985055,0.385076,-0.555781,-1.614856,0.601146,2.231018,7.202945,-2.532752,4.166847,0.002000,-1.809904,-0.512963
630.000000,0.002000,-0.786258,0.283810,-0.069541,0.358702,-0.636327,1.188110,12.685090,-4.189718,1.131733,0.002000,0.213099,-0.224527
631.000000,0.002000,-1.812787,-1.524917,-0.961430,0.985677,0.129375,0.462506,1.905730,1.631762,1.130356,0.002000,0.260130,0.007526
632.000000,0.002000,-0.229020,-0.119290,0.268743,-0.307105,3.612309,-2.024350,7.762507,5.947062,-12.377848,0.002000,0.168106,0.169606
633.000000,0.002000,0.987338,-0.537094,-0.157336,-3.566251,-0.283753,2.642639,-7.877841,4.668122,1.066240,0.002000,-0.420410,-2.049168
634.000000,0.002000,-0.879563,0.301942,-0.128694,-0.724661,-1.130996,1.368744,10.641407,-3.424213,1.802738,0.002000,-0.460091,-0.467822
635.000000,0.002000,0.048471,0.590905,-0.000689,1.709730,2.871834,1.663511,-0.654949,-17.080301,-0.549721,0.002000,-0.247135,-0.293614
636.000000,0.002000,0.083318,0.471686,-0.369318,0.186603,-1.233448,0.247555,-1.778809,-14.399278,11.783076,0.002000,-0.543078,-0.490976
637.000000,0.002000,0.553108,0.574860,0.916759,0.931920,0.624441,3.334110,-4.678338,-4.039317,-5.948127,0.002000,0.004557,0.385076
638.000000,0.002000,-0.783955,-0.218955,-0.925699,2.579026,0.652205,2.334866,5.087895,1.951365,6.358163,0.002000,0.040271,0.283810
639.000000,0.002000,0.468566,-0.252713,-0.595280,0.540220,1.263574,3.274891,-8.065431,5.473494,9.945607,0.002000,-0.892579,-1.524917
640.000000,0.002000,0.582959,0.512154,0.625670,-0.792284,-0.030856,-0.494525,-6.875299,-5.516185,-7.707839,0.002000,-0.340448,-0.119290
641.000000,0.002000,0.163500,-0.337383,-0.105885,0.576364,1.816810,4.022357,-6.099579,17.083581,3.479534,0.002000,-0.226851,-0.537094
642.000000,0.002000,0.006687,-0.088937,0.139408,-0.203598,2.979395,0.979884,4.824016,7.588955,-6.832959,0.002000,0.064079,0.301942
643.000000,0.002000,-1.623255,-1.490760,-0.697962,-1.259861,1.152811,0.784617,2.008513,2.154302,1.447986,0.002000,0.074939,0.590905
644.000000,0.002000,-0.501807,0.720207,0.517866,0.265338,-3.812331,-0.013566,5.941760,-7.432096,-5.880381,0.002000,0.139640,0.471686
645.000000,0.002000,0.054559,0.082212,-0.362163,-0.930840,-0.982404,-0.128634,-3.853187,1.896554,18.017214,0.002000,0.253404,0.574860
646.000000,0.002000,-0.955765,-1.606653,-2.805076,-0.282612,0.029265,0.135300,0.455663,0.808736,1.391889,0.002000,-0.478906,-0.218955
647.000000,0.002000,-0.529726,0.705626,1.712034,-0.908793,0.933398,-0.371726,1.224789,-1.455846,-3.672544,0.002000,-0.122959,-0.252713
648.000000,0.002000,0.860740,-0.691563,0.132961,-2.155296,-0.605228,0.552007,-7.081786,5.922390,-1.192811,0.002000,0.226417,0.512154
649.000000,0.002000,0.189693,0.179057,0.029800,0.920775,0.589592,-0.557877,-10.537283,-7.908398,-3.707239,0.002000,-0.985055,-0.337383
650.000000,0.002000,1.421501,-3.263149,-0.629715,0.903434,1.466318,-0.321566,-0.573313,1.300400,0.235141,0.002000,-0.786258,-0.088937
651.000000,0.002000,-1.156693,0.079477,-0.843773,3.771612,-1.317914,-0.048862,5.308306,-0.280032,4.352068,0.002000,-1.812787,-1.490760
652.000000,0.002000,0.112111,0.388514,0.131030,-3.036375,-2.107675,1.889922,-4.082565,-14.973115,-7.558209,0.002000,-0.229020,0.720207
653.000000,0.002000,0.179287,-0.059244,-2.410362,-0.237277,0.754510,-1.270063,-0.607227,0.135334,2.817489,0.002000,0.987338,0.082212
654.000000,0.002000,0.610776,-0.365657,-0.276945,-4.026917,1.195729,-1.538957,-11.556053,7.597289,4.925684,0.002000,-0.879563,-1.606653
655.000000,0.002000,1.880613,-0.549795,0.341302,-0.035432,2.060834,0.944620,-3.652194,1.178936,-0.624614,0.002000,0.048471,0.705626
656.000000,0.002000,-0.656298,0.278043,0.956755,-1.152860,0.137817,0.251415,4.321328,-1.797533,-7.475524,0.002000,0.083318,-0.691563
657.000000,0.002000,0.016466,-0.030482,-0.385310,3.075246,-1.853394,0.186250,-1.543680,4.124323,15.054421,0.002000,0.553108,0.179057
658.000000,0.002000,-0.464209,-0.148526,-0.313116,-0.345049,-0.323557,-0.386674,11.839125,4.217733,12.794413,0.002000,-0.783955,-3.263149
659.000000,0.002000,-0.773591,-0.352500,0.481814,-1.648702,-0.102336,2.887530,8.263551,4.303107,-5.164664,0.002000,0.468566,0.079477
660.000000,0.002000,0.207684,-0.312379,-0.458490,-2.974112,-0.461892,0.524161,-5.571553,10.384388,11.801172,0.002000,0.582959,0.388514
661.000000,0.002000,-0.238557,0.271796,0.142770,0.759797,4.373500,3.185700,14.152356,-10.824615,-10.425380,0.002000,0.163500,-0.059244
662.000000,0.002000,-1.035659,0.090465,0.065365,1.951869,-1.306294,-3.285594,10.874537,-0.583409,-0.606232,0.002000,0.006687,-0.365657
663.000000,0.002000,-0.176571,-0.024872,-0.526340,-3.891109,-1.141812,-1.830521,6.715952,1.478608,19.272989,0.002000,-1.623255,-0.549795
664.000000,0.002000,-0.521201,0.441046,0.234382,-1.357965,-1.515582,0.908563,10.910771,-9.333560,-5.561675,0.002000,-0.501807,0.278043
665.000000,0.002000,-0.345042,0.510400,0.097115,3.187301,0.429048,0.621366,8.756030,-13.646624,-3.068428,0.002000,0.054559,-0.030482
666.000000,0.002000,0.171010,0.353225,-0.832465,0.329128,-1.500353,-0.698018,-1.466126,-2.337524,12.714868,0.002000,-0.955765,-0.148526
667.000000,0.002000,0.155414,-0.486970,0.687419,-1.506588,-0.089198,-2.175234,-2.028472,7.372216,-10.138720,0.002000,-0.529726,-0.352500
668.000000,0.002000,-1.370612,0.491909,-0.024993,1.914618,-1.234811,-0.868292,6.268546,-2.358690,-0.187738,0.002000,0.860740,-0.312379
669.000000,0.002000,0.429702,0.152495,0.268112,0.240920,-1.953571,-3.451722,-14.054837,-4.136426,-7.805981,0.002000,0.189693,0.271796
670.000000,0.002000,-0.042635,-0.493309,-0.416609,-1.055589,-0.000423,0.921889,1.251360,12.321498,9.271988,0.002000,1.421501,0.090465
671.000000,0.002000,-0.676778,0.363686,-1.467320,-0.366517,-1.025923,-0.558031,2.304373,-1.218287,4.651004,0.002000,-1.156693,-0.024872
672.000000,0.002000,0.290370,-0.030317,0.185874,0.678069,0.496223,1.634306,-15.638330,2.702507,-9.856602,0.002000,0.112111,0.441046
673.000000,0.002000,-0.226025,-1.579924,3.788702,-1.136450,1.693712,0.192462,0.044997,0.436985,-1.031921,0.002000,0.179287,0.510400
674.000000,0.002000,0.845658,-0.230452,0.952059,-2.222621,-1.118674,-3.240232,-4.831907,1.401054,-5.620875,0.002000,0.610776,0.353225
675.000000,0.002000,-1.083721,-0.734467,-0.656883,0.611466,-1.681102,0.377041,4.421363,3.416614,3.022960,0.002000,1.880613,-0.486970
676.000000,0.002000,-0.063907,-0.076578,-0.639941,-0.022319,0.004678,-2.292302,1.061689,3.079422,16.811586,0.002000,-0.656298,0.491909
677.000000,0.002000,0.610577,0.171549,0.299565,-1.496115,-0.260245,0.631127,-13.216250,-4.106849,-5.971922,0.002000,0.016466,0.152495
678.000000,0.002000,0.070620,0.260865,-0.414670,0.260590,-3.201106,-0.632011,-1.827329,-7.929138,17.571236,0.002000,-0.464209,-0.493309
679.000000,0.002000,-0.436069,-2.568889,-1.571047,-0.520177,0.262600,0.376027,0.342120,1.658775,0.920804,0.002000,-0.773591,0.363686
680.000000,0.002000,-0.484402,0.874344,-2.476578,-0.457179,-0.467739,-0.060544,0.474309,-0.775721,2.396191,0.002000,0.207684,-0.030317
681.000000,0.002000,1.432553,-0.091156,0.896499,-0.845568,-0.865844,0.176744,-4.171284,0.353189,-2.741689,0.002000,-0.238557,-1.579924
682.000000,0.002000,0.144120,0.641942,-0.156854,0.531521,-0.343263,-0.098115,-2.634860,-13.900753,2.578205,0.002000,-1.035659,-0.230452
683.000000,0.002000,-0.800957,-0.313738,0.929826,1.735162,1.536121,-3.272458,4.675174,2.301042,-5.832563,0.002000,-0.176571,-0.734467
684.000000,0.002000,-1.031812,0.786039,-0.300485,2.205790,-1.837293,0.551823,5.855642,-4.654809,1.826128,0.002000,-0.521201,-0.076578
685.000000,0.002000,-0.329746,0.369014,0.036688,-1.920484,-2.844071,-0.129960,9.862118,-15.235079,-4.091562,0.002000,-0.345042,0.171549
686.000000,0.002000,0.119133,-0.283261,-0.647318,0.219260,1.005739,-2.154068,-2.395420,7.287528,12.975988,0.002000,0.171010,0.260865
687.000000,0.002000,0.100254,1.047116,-0.709621,0.101530,1.203594,-4.100334,-0.784995,-6.966860,4.917343,0.002000,0.155414,-2.568889
688.000000,0.002000,-0.474760,-0.124265,-0.932758,1.543434,2.279036,0.846155,4.367786,1.527474,9.008063,0.002000,-1.370612,0.874344
689.000000,0.002000,1.640380,-1.758707,0.575678,0.793353,-0.016968,0.694374,-1.761367,1.964309,-0.610119,0.002000,0.429702,-0.091156
690.000000,0.002000,-2.039785,1.848455,0.715652,-0.704726,0.240842,-0.431690,1.660243,-1.455594,-0.570506,0.002000,-0.042635,0.641942
691.000000,0.002000,0.252878,2.456054,-1.350295,-0.507116,-0.106366,-0.105384,-0.218360,-2.032094,1.157234,0.002000,-0.676778,-0.313738
692.000000,0.002000,0.043116,-0.444840,-0.469311,-0.204220,-0.874285,-2.289452,-2.345970,11.543523,11.361969,0.002000,0.290370,0.786039
693.000000,0.002000,-0.003715,-0.034024,-0.433997,-2.120927,-3.190878,2.180347,-0.158655,2.385661,10.091954,0.002000,-0.226025,0.369014
694.000000,0.002000,-0.048293,-0.423627,0.200064,-2.199057,2.950777,-2.260706,1.334500,15.952887,-7.576335,0.002000,0.845658,-0.283261
695.000000,0.002000,1.276066,-1.221555,-0.348258,1.033405,1.109672,-0.414592,-2.715278,3.789606,1.292623,0.002000,-1.083721,1.047116
696.000000,0.002000,-1.472287,0.337774,0.086839,-3.375629,0.943617,-0.282095,6.134682,-1.436082,-0.733727,0.002000,-0.063907,-0.124265
697.000000,0.002000,1.856816,0.141088,0.933117,-2.050879,-1.836314,-0.625448,-3.263567,-0.245423,-1.679338,0.002000,0.610577,-1.758707
698.000000,0.002000,0.224780,-0.242480,-0.105997,-1.253176,1.235409,-0.943696,-9.624717,10.300011,4.928109,0.002000,0.070620,1.848455
699.000000,0.002000,-0.473432,-0.744003,0.505283,0.035539,0.513587,-0.166241,5.984984,7.351232,-5.433748,0.002000,-0.436069,2.456054
700.000000,0.002000,-0.889355,-0.029771,0.101708,0.170063,1.792580,3.498929,13.238768,1.866775,-2.053118,0.002000,-0.484402,-0.444840
701.000000,0.002000,-0.277896,0.098076,0.018229,1.060283,2.316211,1.347705,16.795360,-1.294794,-1.934315,0.002000,1.432553,-0.034024
702.000000,0.002000,-0.543163,-0.729659,-2.122951,-1.180097,1.117419,0.646845,0.755131,0.991372,2.876849,0.002000,0.144120,-0.423627
703.000000,0.002000,0.678583,0.142346,-0.377335,-1.401985,-1.713888,3.084908,-12.587047,-1.408951,6.623736,0.002000,-0.800957,-1.221555
704.000000,0.002000,-1.445871,-1.586757,-0.402258,-0.850094,-2.359980,-1.314124,2.221398,2.548609,0.943137,0.002000,-1.031812,0.337774
705.000000,0.002000,2.554171,-1.769686,8.110992,0.254855,-0.325496,0.558963,-0.077161,0.054062,-0.244063,0.002000,-0.329746,0.141088
706.000000,0.002000,1.624787,0.491979,-1.412991,-1.866739,-0.144167,0.065909,-2.598134,-0.644628,2.112773,0.002000,0.119133,-0.242480
707.000000,0.002000,2.076307,-1.083896,-1.817067,0.527600,0.209830,0.927268,-1.470448,0.770865,1.268841,0.002000,0.100254,-0.744003
708.000000,0.002000,0.794528,0.565159,-0.234138,-0.388608,-0.396567,-1.854022,-9.648059,-5.707551,2.276447,0.002000,-0.474760,-0.029771
709.000000,0.002000,0.271308,-0.357233,0.036104,3.103953,-1.513543,1.498974,-10.681945,13.689829,-2.603549,0.002000,1.640380,0.098076
710.000000,0.002000,0.053043,-0.169339,0.792192,0.251755,-1.131243,0.074999,-1.172867,2.471615,-12.612608,0.002000,-2.039785,-0.729659
711.000000,0.002000,0.460784,-0.503762,1.873960,2.363763,-0.030439,-1.892366,-0.861256,1.144752,-3.706292,0.002000,0.252878,0.142346
712.000000,0.002000,-0.033050,0.395989,0.192438,1.149329,-0.506781,0.142211,2.934225,-15.277853,-8.380206,0.002000,0.043116,-1.586757
713.000000,0.002000,0.576351,-1.175510,0.754401,-2.021300,-0.158557,-0.280381,-2.212052,4.697680,-2.826127,0.002000,-0.003715,-1.769686
714.000000,0.002000,-0.047606,-0.178977,-0.120667,2.228558,-1.077346,-4.345870,5.564577,12.484629,4.584661,0.002000,-0.048293,0.491979
715.000000,0.002000,-3.491967,-4.906440,3.264012,-0.226124,-0.140606,-0.392580,0.213228,0.299001,-0.203302,0.002000,1.276066,-1.083896
716.000000,0.002000,-1.332227,-0.576513,0.284578,-2.312938,0.132046,1.171564,5.915474,2.488182,-1.335183,0.002000,-1.472287,0.565159
717.000000,0.002000,-0.166473,-1.187574,-1.419813,0.618715,0.423285,-0.411564,0.204930,2.859835,3.353454,0.002000,1.856816,-0.357233
718.000000,0.002000,-0.197041,1.678247,-0.992660,1.179245,2.289840,-0.014075,0.338152,-3.529832,2.261535,0.002000,0.224780,-0.169339
719.000000,0.002000,-1.142993,-0.241663,0.077180,2.693993,-1.946503,-1.686311,8.581429,2.238050,-0.470658,0.002000,-0.473432,-0.503762
720.000000,0.002000,0.168625,0.926123,2.508913,0.821033,-0.008922,-0.960329,-0.133355,-0.804302,-2.391341,0.002000,-0.889355,0.395989
721.000000,0.002000,0.315394,0.052919,0.203905,2.030220,-3.183027,0.322755,-14.812673,0.812127,-10.011415,0.002000,-0.277896,-1.175510
722.000000,0.002000,-0.119824,0.109754,-0.194971,-1.040932,0.092536,-4.885843,12.322394,-0.331699,12.097775,0.002000,-0.543163,-0.178977
723.000000,0.002000,-0.054339,0.300950,0.006134,-3.275047,1.283827,-0.780744,3.925488,-15.880214,-2.107771,0.002000,0.678583,-4.906440
724.000000,0.002000,3.809469,0.253294,0.629860,-1.316824,0.030608,0.794830,-1.268152,-0.056736,-0.230228,0.002000,-1.445871,-0.576513
725.000000,0.002000,0.027351,0.842056,-0.082603,-0.943534,0.896227,-2.281822,0.553716,-13.530648,1.093338,0.002000,2.554171,-1.187574
726.000000,0.002000,0.371235,0.124679,-1.724759,0.981090,0.666585,-1.760232,-1.008086,-0.183242,4.720917,0.002000,1.624787,1.678247
727.000000,0.002000,-0.416333,0.052810,0.568919,3.332024,-2.808671,-0.821177,8.094616,-0.232113,-12.103349,0.002000,2.076307,-0.241663
728.000000,0.002000,-0.223421,-0.677392,-0.554548,-2.250458,-0.314820,1.004140,2.875427,9.436337,7.469023,0.002000,0.794528,0.926123
729.000000,0.002000,0.034091,0.862185,-0.208522,-1.623132,0.036464,-0.695738,0.109932,-13.424335,1.469901,0.002000,0.271308,0.052919
730.000000,0.002000,-0.482465,0.830188,-0.101404,-1.708398,-2.149984,0.492120,6.715842,-10.142114,1.758440,0.002000,0.053043,0.109754
731.000000,0.002000,0.093324,0.627303,0.431613,-0.797479,2.006505,1.635261,-2.199740,-10.926204,-8.635003,0.002000,0.460784,0.300950
732.000000,0.002000,0.419409,0.318940,-0.356648,-2.798287,1.581266,0.000494,-11.273892,-7.589518,10.161121,0.002000,-0.033050,0.253294
733.000000,0.002000,-0.094976,-0.991679,-0.238351,1.817869,-2.850623,3.099718,0.814782,9.834943,2.066630,0.002000,0.576351,0.842056
734.000000,0.002000,-0.143217,-0.407273,-0.361032,-2.309285,-0.657040,-0.018482,3.527984,12.866588,11.052632,0.002000,-0.047606,0.124679
735.000000,0.002000,-0.640750,0.458365,0.435547,-0.818507,1.262878,3.693482,9.460024,-5.550794,-6.322788,0.002000,-3.491967,0.052810
736.000000,0.002000,0.033092,0.254970,-0.198449,-2.328383,3.587257,0.200114,1.422339,-12.275330,11.493683,0.002000,-1.332227,-0.677392
737.000000,0.002000,0.140496,0.152554,-0.149281,1.286241,3.546268,-0.042611,-10.749985,-0.546409,6.384208,0.002000,-0.166473,0.862185
738.000000,0.002000,2.083452,0.021753,-2.546635,0.313429,0.097458,-0.675560,-1.099276,0.034465,1.368640,0.002000,-0.197041,0.830188
739.000000,0.002000,-2.690883,-2.549698,-1.525048,-0.431271,-0.843497,0.591732,0.799597,0.778094,0.456501,0.002000,-1.142993,0.627303
740.000000,0.002000,-0.067227,0.251785,-0.097903,0.265167,-0.366564,3.179078,-0.505295,-10.979735,2.126441,0.002000,0.168625,0.318940
741.000000,0.002000,-0.537256,0.131980,0.433092,-2.742585,0.641319,-1.617051,10.686399,-2.740716,-9.986259,0.002000,0.315394,-0.991679
742.000000,0.002000,0.150891,0.487234,0.011176,1.237043,1.926690,1.969843,-3.956999,-16.788604,1.518797,0.002000,-0.119824,-0.407273
743.000000,0.002000,0.428879,-0.704308,0.490951,0.576803,1.125869,-2.447964,-5.168672,7.959844,-5.476254,0.002000,-0.054339,0.458365
744.000000,0.002000,0.055697,-0.411681,-0.372202,2.311837,0.708588,3.176744,-3.269257,15.055132,9.840942,0.002000,3.809469,0.254970
745.000000,0.002000,3.125567,0.607707,-3.526234,-1.277390,0.666142,-0.305149,-0.577155,-0.096697,0.650922,0.002000,0.027351,0.152554
746.000000,0.002000,-1.301240,-1.329642,0.351677,0.443185,0.188824,0.085032,2.888250,3.076166,-0.830096,0.002000,0.371235,0.021753
747.000000,0.002000,0.113761,0.490988,0.899710,2.271596,-2.962412,2.611098,-1.425045,-3.840948,-9.480915,0.002000,-0.416333,-2.549698
748.000000,0.002000,-1.997684,2.084894,-0.682892,0.020706,-0.522443,-0.184378,1.432728,-1.498088,0.484473,0.002000,-0.223421,0.251785
749.000000,0.002000,-2.066834,-0.578226,-1.579054,-0.484694,-0.090849,-0.570188,1.931391,0.592502,1.500997,0.002000,0.034091,0.131980
750.000000,0.002000,0.007186,-0.148263,-0.210649,1.716733,0.983119,-1.734339,2.558026,13.363863,12.858911,0.002000,-0.482465,0.487234
751.000000,0.002000,-0.117141,-0.318476,0.111929,-2.367318,1.583214,-3.867747,5.681072,14.830846,-6.479311,0.002000,0.093324,-0.704308
752.000000,0.002000,-0.357998,-2.602928,-1.715070,1.264759,-0.436957,0.864611,0.224280,1.515735,1.043533,0.002000,0.419409,-0.411681
753.000000,0.002000,-0.111376,-0.428179,0.403131,0.865187,3.047133,-2.827507,4.811645,10.823981,-9.965032,0.002000,-0.094976,0.607707
754.000000,0.002000,-0.142232,-1.051167,0.067075,0.105015,-1.905647,-0.170497,1.211654,9.343855,-0.852464,0.002000,-0.143217,-1.329642
755.000000,0.002000,-0.397201,0.088567,-0.809112,1.814564,-3.385474,-2.098910,5.665740,1.302116,10.226443,0.002000,-0.640750,0.490988
756.000000,0.002000,-0.332586,0.589693,0.640810,1.370535,-3.740750,-1.896592,4.035347,-7.655442,-7.857699,0.002000,0.033092,2.084894
757.000000,0.002000,0.177947,0.001059,0.014291,4.929111,-0.586014,2.929457,-12.687485,6.136908,-0.322838,0.002000,0.140496,-0.578226
758.000000,0.002000,-0.079379,0.200550,-0.131693,0.000674,2.401579,0.128446,9.178820,-7.396785,6.609071,0.002000,2.083452,-0.148263
759.000000,0.002000,0.338128,-0.281920,-0.128219,1.405269,3.355604,0.699373,-12.709882,12.286161,4.705732,0.002000,-2.690883,-0.318476
760.000000,0.002000,0.210744,-0.884302,-0.222321,-2.901613,-1.004076,0.895236,-2.565547,10.865087,2.795859,0.002000,-0.067227,-2.602928
761.000000,0.002000,-0.059768,0.019687,0.702280,2.522507,-0.395935,1.516267,0.988129,-0.497783,-15.705342,0.002000,-0.537256,-0.428179
762.000000,0.002000,-0.937097,0.226625,-0.735981,0.465412,1.581735,1.380648,6.750167,-1.437182,4.888258,0.002000,0.150891,-1.051167
763.000000,0.002000,-0.284617,0.167916,-0.030693,-1.906589,4.486546,0.056285,13.649251,-6.948744,-1.560886,0.002000,0.428879,0.088567
764.000000,0.002000,-0.214846,-0.163330,0.338684,-1.687731,0.464711,-0.964183,6.491680,9.061611,-14.579628,0.002000,0.055697,0.589693
765.000000,0.002000,0.613562,-0.090579,2.361173,-2.066801,-0.706114,-1.049453,-0.774526,0.155470,-2.807107,0.002000,3.125567,0.001059
766.000000,0.002000,0.057914,-0.649788,0.501404,-0.347891,-1.064212,-1.843898,-0.638533,10.558178,-7.508115,0.002000,-1.301240,0.200550
767.000000,0.002000,-0.583514,0.397869,0.314994,-2.165874,-2.092543,-1.361013,11.080720,-6.538820,-6.755471,0.002000,0.113761,-0.281920
768.000000,0.002000,0.033921,-0.519553,-0.057128,1.334884,2.238994,2.336289,-1.191439,17.261885,1.884753,0.002000,-1.997684,-0.884302
769.000000,0.002000,0.013018,-0.121366,0.125598,-1.052398,0.612993,0.715065,1.577457,13.979010,-6.986596,0.002000,-2.066834,0.019687
770.000000,0.002000,0.743878,0.647413,-0.443120,-1.237278,1.293890,-0.965334,-7.617551,-6.092151,4.815525,0.002000,0.007186,0.226625
771.000000,0.002000,-1.157318,-2.438150,0.030496,-1.079375,-1.463886,0.151695,0.990698,2.155465,-0.052963,0.002000,-0.117141,0.167916
772.000000,0.002000,-0.272624,-1.473260,-0.194031,-0.166973,-0.983654,-2.205113,0.981777,5.784519,0.641983,0.002000,-0.357998,-0.163330
773.000000,0.002000,0.653866,-0.807836,-1.014758,0.854474,0.204523,-2.449878,-2.792552,3.605502,4.358854,0.002000,-0.111376,-0.090579
774.000000,0.002000,0.203293,-0.230042,0.131682,-0.975992,-2.692761,1.847386,-7.490335,14.365801,-9.439813,0.002000,-0.142232,-0.649788
775.000000,0.002000,-0.012594,-0.207254,0.320480,-3.548801,3.856476,-3.565000,0.398091,9.799089,-15.795223,0.002000,-0.397201,0.397869
776.000000,0.002000,1.337596,0.262872,-1.587084,-1.905688,1.379223,1.881381,-2.289913,-0.335890,2.711495,0.002000,-0.332586,-0.519553
777.000000,0.002000,-0.368009,-0.236515,0.331939,1.155808,-1.552013,3.051543,11.306441,9.385806,-8.971110,0.002000,0.177947,-0.121366
778.000000,0.002000,-0.063182,0.085901,-0.852341,1.444371,1.410503,2.206380,0.562266,-1.062340,13.177677,0.002000,-0.079379,0.647413
779.000000,0.002000,-1.013957,0.260014,0.674155,-1.449793,-1.521043,-0.016176,6.708082,-1.376186,-4.521529,0.002000,0.338128,-2.438150
780.000000,0.002000,-1.224722,1.796940,-0.438539,-0.792322,0.374931,-0.111725,1.991511,-2.576575,0.769222,0.002000,0.210744,-1.473260
781.000000,0.002000,-1.091274,-0.904797,0.561367,0.912344,1.470430,1.277795,4.009089,3.620659,-2.243152,0.002000,-0.059768,-0.807836
782.000000,0.002000,-0.094456,0.522208,-0.419467,1.893478,1.085787,-0.180016,2.398964,-12.791303,10.182581,0.002000,-0.937097,-0.230042
783.000000,0.002000,-0.925675,0.307029,1.702971,-1.818859,0.097831,2.312496,1.972776,-0.474204,-3.515622,0.002000,-0.284617,-0.207254
784.000000,0.002000,-0.319259,0.213964,-0.470749,-1.417933,-1.244732,3.000844,9.673507,-4.237288,13.444934,0.002000,-0.214846,0.262872
785.000000,0.002000,0.630912,-0.623801,-1.264290,-2.121509,2.770429,0.324829,-2.296878,2.494300,4.575165,0.002000,0.613562,-0.236515
786.000000,0.002000,0.730673,-0.202392,-0.034384,2.748453,0.406772,-3.926161,-13.171930,4.072167,0.380585,0.002000,0.057914,0.085901
787.000000,0.002000,0.290343,1.991347,-3.071516,0.041761,-1.428412,0.396020,-0.110269,-0.755731,1.248081,0.002000,-0.583514,0.260014
788.000000,0.002000,0.010007,-0.642123,-0.105929,2.443872,-0.765074,2.282969,-0.478116,14.961096,2.563349,0.002000,0.033921,1.796940
789.000000,0.002000,0.133744,-0.136471,0.181146,3.436130,0.723535,-1.305485,-3.918132,9.215163,-8.787518,0.002000,0.013018,-0.904797
790.000000,0.002000,-0.191148,-0.535655,-0.093413,1.179567,2.597565,3.346667,3.290600,13.740705,1.381895,0.002000,0.743878,0.522208
791.000000,0.002000,0.699363,-2.142129,2.115056,-0.365018,-0.214994,0.789292,-0.445095,1.310642,-1.293291,0.002000,-1.157318,0.307029
792.000000,0.002000,-0.347207,-0.395517,-0.007341,3.117854,-1.193508,2.168871,11.106239,12.511860,-0.431524,0.002000,-0.272624,0.213964
793.000000,0.002000,0.310596,0.411880,0.729083,-0.986919,0.011687,-1.040609,-4.087623,-4.609915,-10.672431,0.002000,0.653866,-0.623801
794.000000,0.002000,-0.638659,-0.846228,-0.348455,0.246864,-1.175580,0.908961,5.323720,7.085651,2.513135,0.002000,0.203293,-0.202392
795.000000,0.002000,1.121759,-2.481724,-1.891761,0.117476,-0.443673,0.606939,-0.582283,1.253205,0.953083,0.002000,-0.012594,1.991347
796.000000,0.002000,-0.881904,-1.632181,-0.057467,-0.423215,0.663375,0.831700,1.884864,3.440089,0.016637,0.002000,1.337596,-0.642123
797.000000,0.002000,0.087775,0.103348,-0.182907,0.017924,-2.996626,-1.031265,-6.978708,-2.649401,8.842134,0.002000,-0.368009,-0.136471
798.000000,0.002000,-0.412287,-0.452694,0.329101,-2.332693,1.411872,-0.340791,8.676678,10.053627,-7.946222,0.002000,-0.063182,-0.535655
799.000000,0.002000,0.564946,-0.915788,0.300474,0.242403,-3.488343,-1.456818,-4.733718,7.414009,-2.772933,0.002000,-1.013957,-2.142129
800.000000,0.002000,-0.046720,1.021815,-0.302916,1.506494,-0.890703,-1.108842,0.678723,-10.670109,2.787819,0.002000,-1.224722,-0.395517
801.000000,0.002000,0.060095,-0.653804,-0.290829,-0.067408,-1.618039,1.356813,-1.213186,14.017225,5.805004,0.002000,-1.091274,0.411880
802.000000,0.002000,0.487144,-0.059319,0.116486,-1.035643,1.695520,-0.744199,-16.146278,2.896245,-5.647709,0.002000,-0.094456,-0.846228
803.000000,0.002000,0.288681,-0.119233,-0.211533,-0.168328,-5.065143,-2.528942,-14.688902,7.845051,10.186520,0.002000,-0.925675,-2.481724
804.000000,0.002000,0.287481,-0.103716,-0.450863,-3.166017,1.533643,0.268606,-9.332060,4.019024,12.912114,0.002000,-0.319259,-1.632181
805.000000,0.002000,-0.107203,0.527255,0.225221,-3.056248,2.105016,-1.042245,2.554265,-13.324477,-7.345745,0.002000,0.630912,0.103348
806.000000,0.002000,-1.512853,-2.159241,-4.183597,0.415874,0.453753,0.617195,0.240283,0.356040,0.675917,0.002000,0.730673,-0.452694
807.000000,0.002000,-0.301037,-0.329504,0.488300,0.901401,-1.835581,1.320812,6.486931,8.756415,-11.389588,0.002000,0.290343,-0.915788
808.000000,0.002000,-0.030655,0.447671,-0.188993,-0.670092,-0.451027,-2.942859,-0.257617,-21.854721,0.379930,0.002000,0.010007,1.021815
809.000000,0.002000,0.702583,0.228923,0.440289,1.339898,-1.402478,-1.330937,-11.016656,-3.526403,-7.105707,0.002000,0.133744,-0.653804
810.000000,0.002000,-0.020822,0.005112,-0.018535,1.973244,-2.830746,-0.004839,2.540785,1.009784,-2.305440,0.002000,-0.191148,-0.059319
811.000000,0.002000,0.027771,-0.722495,0.646647,-0.121728,-3.766673,-0.008583,1.096360,8.287492,-7.454654,0.002000,0.699363,-0.119233
812.000000,0.002000,0.835860,0.288486,0.640161,0.985195,-0.266285,-1.161564,-7.618655,-2.060822,-5.785232,0.002000,-0.347207,-0.103716
813.000000,0.002000,0.745649,0.243785,-0.435081,2.531201,0.318720,-1.258075,-10.577138,-2.426843,5.897743,0.002000,0.310596,0.527255
814.000000,0.002000,0.418733,0.311907,-1.223170,0.070132,0.532199,0.773913,-3.343595,-1.482207,6.968920,0.002000,-0.638659,-2.159241
815.000000,0.002000,-1.123832,0.436896,0.397624,0.167047,-1.030212,0.117442,7.485114,-2.513382,-2.690943,0.002000,1.121759,-0.329504
816.000000,0.002000,-0.328912,-0.416263,0.620144,2.037767,-0.300811,-0.372262,4.372826,6.653691,-8.742665,0.002000,-0.881904,0.447671
817.000000,0.002000,0.744502,-0.489265,-0.258275,2.461625,-1.988160,-2.229885,-8.974429,6.367180,3.423106,0.002000,0.087775,0.228923
818.000000,0.002000,0.351229,-0.787732,0.332678,-3.740659,-1.378544,2.651905,-3.776346,9.942084,-3.888534,0.002000,-0.412287,0.005112
819.000000,0.002000,-0.047912,0.305054,-0.619657,2.414267,-1.080960,1.109698,1.499438,-4.472337,15.175282,0.002000,0.564946,-0.722495
820.000000,0.002000,-1.384781,-0.002640,-1.352155,-0.197986,0.316702,0.685707,3.127017,-0.066764,3.045774,0.002000,-0.046720,0.288486
821.000000,0.002000,-1.931213,-0.462473,0.979109,0.284549,-0.883867,-0.416704,2.899596,0.763783,-1.585397,0.002000,0.060095,0.243785
822.000000,0.002000,1.391774,-0.647122,-0.212032,-3.032264,1.760446,-0.354650,-4.994554,2.449104,0.951862,0.002000,0.487144,0.311907
823.000000,0.002000,0.540377,-2.296521,-0.182743,-0.002673,0.744382,0.887465,-0.636137,2.849479,0.229127,0.002000,0.288681,0.436896
824.000000,0.002000,-0.393761,0.507870,0.794026,-0.351648,1.093570,-0.239072,3.224488,-4.753617,-7.883275,0.002000,0.287481,-0.416263
825.000000,0.002000,1.633959,-1.543942,-3.626414,-1.605765,-0.232739,-0.413306,-0.411358,0.394208,0.893903,0.002000,-0.107203,-0.489265
826.000000,0.002000,0.398411,0.346372,0.469261,-2.190907,0.415570,-0.511246,-7.997330,-7.005534,-10.624448,0.002000,-1.512853,-0.787732
827.000000,0.002000,0.151520,0.768821,0.211065,0.989187,-2.924637,0.516091,-4.663787,-14.654067,-4.580981,0.002000,-0.301037,0.305054
828.000000,0.002000,-0.167806,-0.645332,0.456515,-1.451167,1.149591,0.844686,2.720080,10.534646,-7.292931,0.002000,-0.030655,-0.002640
829.000000,0.002000,2.202651,1.148314,-1.062260,0.397310,0.103207,-1.482575,-2.030854,-0.901487,1.084378,0.002000,0.702583,-0.462473
830.000000,0.002000,-0.056649,0.825972,-0.682556,-0.303066,0.802501,-1.256134,0.483469,-8.091580,6.963896,0.002000,-0.020822,-0.647122
831.000000,0.002000,-0.165946,-0.275235,-1.016189,-1.281599,1.762585,-1.429176,1.014926,2.766844,9.234387,0.002000,0.027771,-2.296521
832.000000,0.002000,-0.075816,-0.696191,0.260305,-0.456120,-0.660441,0.135374,1.094197,14.346919,-4.715059,0.002000,0.835860,0.507870
833.000000,0.002000,-0.324898,-0.368148,-0.275234,-1.613647,-1.118598,-2.958154,8.792317,11.428950,6.800591,0.002000,0.745649,-1.543942
834.000000,0.002000,-0.621802,-0.034000,0.424877,-1.883380,1.581300,0.930546,11.407082,1.199767,-8.690068,0.002000,0.418733,0.346372
835.000000,0.002000,-2.536433,1.425224,0.679925,0.464320,0.838906,0.643443,1.847251,-0.939219,-0.500837,0.002000,-1.123832,0.768821
836.000000,0.002000,-1.204220,-1.870430,0.277526,0.765030,2.126596,-0.949531,1.692297,2.685025,-0.418989,0.002000,-0.328912,-0.645332
837.000000,0.002000,-0.637628,-0.120137,-1.274361,0.906777,0.042264,-1.162594,2.883905,0.780176,5.980413,0.002000,0.744502,1.148314
838.000000,0.002000,0.112117,0.172075,-0.412597,4.030419,-0.266309,-1.358897,-4.643081,-4.420245,21.098278,0.002000,0.351229,0.825972
839.000000,0.002000,0.789849,-0.228714,0.036704,-1.613435,0.075261,-0.406683,-12.948057,4.235125,-1.451544,0.002000,-0.047912,-0.275235
840.000000,0.002000,0.229405,-0.016464,-0.396548,3.142512,-3.835495,0.676331,-12.253474,-1.630878,12.660935,0.002000,-1.384781,-0.696191
841.000000,0.002000,-0.947553,-0.073272,-0.675985,0.359366,-0.926256,-1.954668,7.307291,0.993229,5.106130,0.002000,-1.931213,-0.368148
842.000000,0.002000,0.090396,0.253929,0.080121,-1.351202,-1.014710,-0.234266,-4.606744,-14.500366,-5.105849,0.002000,1.391774,-0.034000
843.000000,0.002000,0.004062,-0.080318,0.016749,1.874503,1.436478,0.925362,-1.378610,8.596075,-1.661584,0.002000,0.540377,1.425224
844.000000,0.002000,0.213410,0.442163,-0.576069,0.258068,-1.196032,2.855709,-4.253626,-7.854290,11.563270,0.002000,-0.393761,-1.870430
845.000000,0.002000,-1.104301,0.221314,-0.821222,1.785950,3.025718,1.697232,5.266739,-1.119030,4.928572,0.002000,1.633959,-0.120137
846.000000,0.002000,0.382008,0.202060,-0.144732,-1.261330,0.826001,-1.661282,-23.918237,-5.860461,7.956473,0.002000,0.398411,0.172075
847.000000,0.002000,2.149870,0.798828,-1.544074,0.067967,0.809902,-0.680788,-1.808097,-0.711599,1.284424,0.002000,0.151520,-0.228714
848.000000,0.002000,-0.082998,0.571367,-0.030335,1.441427,-2.056714,2.929798,2.541514,-16.946841,0.033771,0.002000,-0.167806,-0.016464
849.000000,0.002000,-0.534283,-0.483487,0.374115,-4.637512,0.280674,-1.850225,8.207972,7.733069,-5.955674,0.002000,2.202651,-0.073272
850.000000,0.002000,0.285297,0.186165,-0.087424,2.018054,2.710052,-1.509746,-12.211943,-7.394409,3.880533,0.002000,-0.056649,0.253929
851.000000,0.002000,0.397233,0.284387,-0.849792,-1.925996,-1.055459,0.267433,-4.857145,-2.692450,10.211054,0.002000,-0.165946,-0.080318
852.000000,0.002000,-0.446712,-0.256225,-0.121757,1.521136,-1.031250,-2.325399,12.323065,9.172546,4.362712,0.002000,-0.075816,0.442163
853.000000,0.002000,0.010696,-0.441791,-0.156265,-3.058970,0.431622,1.465842,0.553084,16.421183,5.408844,0.002000,-0.324898,0.221314
854.000000,0.002000,-0.406975,0.108930,0.443346,-2.847607,-1.001298,-0.123257,11.293750,-2.819434,-14.041089,0.002000,-0.621802,0.202060
855.000000,0.002000,-0.614124,-0.451356,-0.312816,-3.338840,1.848273,0.493454,10.127752,7.067954,3.243294,0.002000,-2.536433,0.798828
856.000000,0.002000,-0.284974,0.167076,-0.509646,-0.971223,1.813759,0.332485,9.323946,-3.375204,14.773352,0.002000,-1.204220,0.571367
857.000000,0.002000,-0.064389,-0.026687,-0.278337,-4.346915,1.267044,2.318283,6.429345,5.118197,17.439941,0.002000,-0.637628,-0.483487
858.000000,0.002000,0.378718,0.291443,-0.048853,-2.513215,-2.192358,2.428595,-15.133074,-8.568672,1.228836,0.002000,0.112117,0.186165
859.000000,0.002000,2.298739,0.436460,-1.323699,-1.113781,0.808606,-0.215507,-2.072225,-0.326071,1.136164,0.002000,0.789849,0.284387
860.000000,0.002000,0.088442,0.114767,0.394111,-2.405234,2.501791,-0.604464,-5.440606,-6.441448,-13.457997,0.002000,0.229405,-0.256225
861.000000,0.002000,-0.419394,-2.868713,0.977327,-1.927983,0.524160,-0.797439,0.243472,1.785033,-0.631225,0.002000,-0.947553,-0.441791
862.000000,0.002000,0.493833,-0.268807,0.085316,-0.141343,0.812455,-1.863688,-10.806910,7.211254,-2.627614,0.002000,0.090396,0.108930
863.000000,0.002000,-0.650338,0.451151,-0.033269,-1.125210,4.287865,-1.825187,12.122798,-7.848798,0.763304,0.002000,0.004062,-0.451356
864.000000,0.002000,0.231375,-4.440463,-1.402986,0.408122,1.104499,-0.162861,-0.047344,0.845549,0.263104,0.002000,0.213410,0.167076
865.000000,0.002000,-0.877512,2.246259,-0.609163,0.248157,0.186819,-1.627781,1.095738,-2.582990,0.622544,0.002000,-1.104301,-0.026687
866.000000,0.002000,-0.278183,-1.383281,-0.551154,0.337387,0.261862,-0.555202,1.009533,5.176128,2.701803,0.002000,0.382008,0.291443
867.000000,0.002000,-1.949959,-0.655362,-0.755325,1.557442,0.953010,0.402899,3.018068,1.103758,1.151302,0.002000,2.149870,0.436460
868.000000,0.002000,0.215292,-0.338410,0.535618,1.596005,-2.516950,-3.479881,-4.649487,8.974836,-11.750930,0.002000,-0.082998,0.114767
869.000000,0.002000,0.053525,-0.548762,-0.518879,0.739420,-2.586477,-0.107657,-1.711139,11.223391,9.319153,0.002000,-0.534283,-2.868713
870.000000,0.002000,0.437519,1.218732,-0.454301,-0.513522,1.937585,0.568006,-2.475874,-6.393362,2.505440,0.002000,0.285297,-0.268807
871.000000,0.002000,0.036782,0.481526,-0.151117,0.638112,-1.709267,-1.316354,-2.013742,-18.174358,4.122569,0.002000,0.397233,0.451151
872.000000,0.002000,0.564441,1.870818,1.566966,0.200048,1.037897,1.433540,-0.534314,-2.143215,-1.883692,0.002000,-0.446712,-4.440463
873.000000,0.002000,-0.838405,-1.091098,-1.887715,-0.628727,-0.669870,-1.022008,1.209608,1.344690,2.504214,0.002000,0.010696,2.246259
874.000000,0.002000,-0.996556,-0.968675,-1.212068,1.473145,1.731083,2.495568,2.389222,2.333333,2.729742,0.002000,-0.406975,-1.383281
875.000000,0.002000,-0.224042,-0.555947,-0.235772,-2.801777,-4.200880,-0.604415,5.701635,13.848319,5.730559,0.002000,-0.614124,-0.655362
876.000000,0.002000,-0.963279,0.355274,0.770991,-1.014500,0.377945,1.352267,6.159170,-1.845111,-4.828366,0.002000,-0.284974,-0.338410
877.000000,0.002000,-1.872291,-0.018798,-2.303020,-1.372301,-0.105028,-0.551419,1.318181,0.130546,1.560234,0.002000,-0.064389,-0.548762
878.000000,0.002000,-0.953166,-0.110915,0.784178,-1.281255,-0.356666,3.035850,5.950129,1.103901,-5.100659,0.002000,0.378718,1.218732
879.000000,0.002000,-0.133918,-0.109517,0.708923,0.263113,-0.515243,0.806278,3.380860,3.337795,-13.844779,0.002000,2.298739,0.481526
880.000000,0.002000,1.868320,-0.116014,1.024741,-1.786627,0.283831,-0.022993,-3.010017,0.200999,-1.735876,0.002000,0.088442,1.870818
881.000000,0.002000,0.043744,0.274765,0.026623,0.200069,2.662688,0.032349,-2.044037,-16.406951,-5.473840,0.002000,-0.419394,-1.091098
882.000000,0.002000,-0.668003,1.336517,-1.792684,-0.125314,-1.699950,-0.353317,0.943600,-1.692985,2.415277,0.002000,0.493833,-0.968675
883.000000,0.002000,-0.016137,0.017151,-0.563979,-2.135509,1.026958,-3.120460,0.371546,1.991089,18.088030,0.002000,-0.650338,-0.555947
884.000000,0.002000,0.002758,-0.074671,0.293878,-0.257597,1.396313,-3.732855,-0.964579,4.301533,-16.976335,0.002000,0.231375,0.355274
885.000000,0.002000,0.542039,1.037970,2.323388,-0.727765,-0.202682,-0.015464,-0.604591,-1.001814,-2.335495,0.002000,-0.877512,-0.018798
886.000000,0.002000,0.969372,0.334824,0.256548,2.239449,-1.412932,-0.254598,-8.714728,-2.589661,-3.662185,0.002000,-0.278183,-0.110915
887.000000,0.002000,0.144217,-0.287351,0.275465,3.032527,-1.853941,1.502152,-5.261418,12.287257,-12.410442,0.002000,-1.949959,-0.109517
888.000000,0.002000,2.493714,-0.569692,-1.005834,-0.818633,-0.412384,0.298860,-2.132737,0.603490,0.789922,0.002000,0.215292,-0.116014
889.000000,0.002000,-0.032925,-0.011955,-0.141138,-0.178227,-0.530113,0.864043,2.774264,6.004253,8.835019,0.002000,0.053525,0.274765
890.000000,0.002000,1.517724,1.348576,2.228245,-1.832850,-0.562072,-0.948066,-0.999877,-0.836690,-1.556343,0.002000,0.437519,1.336517
891.000000,0.002000,-0.365739,0.293221,-0.294525,0.533296,3.202098,3.847694,11.558820,-10.720292,10.334154,0.002000,0.036782,0.017151
892.000000,0.002000,-0.058132,0.078678,0.415223,0.268221,1.644255,0.315029,4.124850,-2.522400,-17.229386,0.002000,0.564441,-0.074671
893.000000,0.002000,-0.592505,-0.664521,0.424990,-2.874319,3.427393,1.377484,6.152333,7.466630,-4.974870,0.002000,-0.838405,1.037970
894.000000,0.002000,-0.230467,0.525908,-0.062662,-0.994113,-0.529987,-3.650355,8.759121,-14.020908,1.148704,0.002000,-0.996556,0.334824
895.000000,0.002000,-0.715550,-0.576617,0.134216,-0.085831,-2.774237,3.183890,8.403901,7.146362,-1.798946,0.002000,-0.224042,-0.287351
