# 
#                 columns are tag, mass, x, y, z, vx, vy, vz, ax, ay, az, EK, EU, E
#                 Time=8.000000
# 
1.000000,0.002000,-3.410424,0.213685,-1.131356,0.007223,0.495837,0.886632,1.407934,-0.069757,0.452440,82.180527,-163.863679,-81.683152
2.000000,0.002000,1.942605,-0.274736,2.181254,1.690555,1.736631,-1.251959,-1.341518,0.238046,-1.486395,0.000000,0.000000,0.000000
3.000000,0.002000,-0.105821,1.234757,-1.406736,0.161794,0.385775,-0.577189,0.209322,-2.905185,3.567536,0.000000,0.000000,0.192350
4.000000,0.002000,-0.091178,-0.972557,-0.099132,0.510970,0.344219,2.596098,0.726192,9.988243,0.841162,0.000000,0.000000,-0.643626
5.000000,0.002000,-0.511998,-0.226962,0.141377,0.467816,0.658194,-1.765984,16.418395,8.213119,-8.400981,0.000000,0.000000,2714615160852778623301178234752187794217374964822438136665763952445889133461068408345327297974935017434583535622029312.000000
6.000000,0.002000,-0.030874,-0.241816,0.142151,1.849513,-1.424413,3.054983,-1.700224,15.782781,-9.101975,0.000000,0.000000,0.000000
7.000000,0.002000,-0.271438,1.192276,1.273840,0.200319,-2.713115,-1.085847,0.518912,-3.328971,-3.409541,0.000000,-3.410424,6046299164189238173275683219250017788289315786091614818632130171614507885024255442378354424558134079729257994002024400094349463166944183526315781321951050417868451949291482778697728.000000
8.000000,0.002000,-0.732020,-0.397234,-0.569354,2.098778,1.990688,0.379209,7.798137,3.961106,5.565243,4787142885798284855643719328774778173795084465174780641693637665648403877169013833835529490445327801418802613545316354916722037909682831782952926534213756634845881425509470953275392.000000,1.942605,4759805377971332471213038832835900703220330942894279030494838550703435471526618920502976245114621835912891908232461400229049508218181465451163934667376582068018425259000148359380992.000000
9.000000,0.002000,0.234579,0.004356,-0.252259,-5.050065,2.212290,2.786140,-6.807660,2.663464,14.568505,0.002000,-0.105821,138547768104056157302087565259525373852098124989303931525240512427819552533085698459172864.000000
10.000000,0.002000,0.009012,1.294825,1.372049,-1.173762,1.374674,2.349121,0.240286,-2.881763,-3.195867,0.002000,-0.091178,1120056825230341377864229442706874355097033469107894042139147751186040913872612140973118202115826175357126956909635261652389619478250782644898287384123806810695415045309180462235648.000000
11.000000,0.002000,0.221832,0.398664,-0.075076,-1.659032,-0.474990,-2.911149,-10.305779,-14.180660,2.629877,0.002000,-0.511998,23039128631044099176832742417739795460676790507670777445606087464794856299453260161481801450398358279954354494149295180237927323152638540074556808976648007563638219467797122431298464377521421598851072.000000
12.000000,0.002000,0.069339,0.533154,0.066470,-1.004886,5.479959,1.613421,0.121406,-17.087599,1.991992,0.002000,-0.030874,5220878196552571763878340329472.000000
13.000000,0.002000,-0.645985,-0.508684,0.022450,0.747910,-1.532457,-3.090643,9.680687,8.162618,-1.256013,0.002000,-0.271438,24592075963068783839533689972500207544291682998524528678139194066268023103105688748425932859771623223281195490789113005941229592568430644674946309944861929860124743175201405809407389506636926578002733154405017088218339167007998039732703513711548368315763057342320333553664.000000
14.000000,0.002000,-0.689855,0.536041,1.623443,-1.439702,-0.229222,1.154766,1.287356,-0.743254,-4.304985,0.002000,-0.732020,0.000000
15.000000,0.002000,3.025903,0.469484,1.828773,0.335164,-0.542622,-0.035227,-1.219735,-0.178214,-0.748858,0.002000,0.234579,0.000000
16.000000,0.002000,-0.527303,0.575851,1.739064,-0.271855,2.108261,1.552714,1.109983,-1.138958,-3.943972,0.002000,0.009012,0.000000
17.000000,0.002000,-0.826985,-0.758830,-0.288673,0.235736,0.784957,0.132512,5.320280,5.546751,1.832479,0.002000,0.221832,0.000000
18.000000,0.002000,-0.433032,0.188139,0.630718,-0.214675,1.735932,1.272016,7.445028,-1.852485,-12.033435,0.002000,0.069339,0.000000
19.000000,0.002000,-0.039020,-0.007318,-0.200133,-0.293916,-1.510710,0.308392,-0.329265,3.535302,12.392402,0.002000,-0.645985,0.000000
20.000000,0.002000,-0.352897,0.170955,-0.301593,-0.583466,-2.247583,-2.734296,14.229956,-7.894999,7.135369,0.002000,-0.689855,0.000000
21.000000,0.002000,-0.449448,0.123543,0.042376,1.625379,1.981827,3.624123,18.082755,-2.407149,-2.408172,0.002000,3.025903,0.213685
22.000000,0.002000,0.395955,1.492711,0.637212,0.791302,0.878462,0.682111,-1.424571,-4.748694,-2.429494,0.002000,-0.527303,-0.274736
23.000000,0.002000,0.755320,0.729583,1.212632,1.995244,-2.193326,-0.412582,-2.645579,-2.314400,-4.280204,0.002000,-0.826985,1.234757
24.000000,0.002000,0.402630,0.360410,-0.151912,-3.005053,0.415361,0.551195,-9.669096,-6.534638,6.793818,0.002000,-0.433032,-0.972557
25.000000,0.002000,-0.566093,0.400746,-0.566529,0.717841,-2.385311,-0.232084,7.999851,-4.899800,8.174191,0.002000,-0.039020,-0.226962
26.000000,0.002000,0.021447,-1.102852,-1.129642,-1.497314,-1.252351,-0.112910,-0.098030,4.005300,3.664003,0.002000,-0.352897,-0.241816
27.000000,0.002000,0.096749,-0.294195,0.120458,-3.889686,-1.162479,-0.697705,-3.672434,14.039293,-1.545644,0.002000,-0.449448,1.192276
28.000000,0.002000,-0.128840,-0.392175,0.109434,-0.538657,-3.579660,-1.198605,5.035244,16.079555,-5.922501,0.002000,0.395955,-0.397234
29.000000,0.002000,1.242243,0.730102,-3.669818,0.153453,-0.121668,-1.461315,-0.363003,-0.215287,1.169197,0.002000,0.755320,0.004356
30.000000,0.002000,-0.289420,0.204921,-1.598844,-0.279694,-0.676826,-0.171102,0.901021,-0.421510,5.323630,0.002000,0.402630,1.294825
31.000000,0.002000,-0.224704,-0.858695,-0.183429,-1.572557,0.441315,0.215521,2.052849,10.944293,2.119863,0.002000,-0.566093,0.398664
32.000000,0.002000,0.151532,-0.238114,-0.189043,0.341778,0.001287,0.906660,-7.173067,15.294699,6.477986,0.002000,0.021447,0.533154
33.000000,0.002000,0.262750,-0.920539,0.418607,-0.043334,0.349873,0.617984,-2.211842,7.592220,-3.821152,0.002000,0.096749,-0.508684
34.000000,0.002000,-0.234350,0.938863,-1.175461,1.842052,-0.065322,2.023821,0.860207,-3.794831,4.990292,0.002000,-0.128840,0.536041
35.000000,0.002000,-2.110620,0.622995,-1.172777,-1.050463,0.730034,-1.418761,2.332546,-0.655200,1.303899,0.002000,1.242243,0.469484
36.000000,0.002000,1.526345,-0.310173,-0.460820,2.362012,0.347526,-1.730669,-4.843752,1.209813,1.413503,0.002000,-0.289420,0.575851
37.000000,0.002000,-0.531483,-1.011340,2.279504,1.384256,1.734113,-1.847790,0.498802,1.108774,-2.374360,0.002000,-0.224704,-0.758830
38.000000,0.002000,-0.524343,-0.614373,0.389621,2.327273,1.439672,-0.193626,5.510999,9.314334,-5.343189,0.002000,0.151532,0.188139
39.000000,0.002000,-0.087302,0.138379,-0.384443,-3.367774,2.506160,1.555783,1.521986,-3.450353,16.822772,0.002000,0.262750,-0.007318
40.000000,0.002000,0.814523,-0.509340,0.590066,1.611333,-0.195285,1.859558,-5.901119,4.236499,-4.399950,0.002000,-0.234350,0.170955
41.000000,0.002000,0.210722,-0.419420,-0.892417,0.406490,-0.918449,0.520137,-1.924365,4.782652,9.172674,0.002000,-2.110620,0.123543
42.000000,0.002000,-2.542931,1.422647,0.255187,0.971317,-0.144363,-0.966906,1.901754,-0.969525,-0.181239,0.002000,1.526345,1.492711
43.000000,0.002000,1.311870,-0.059677,-1.110402,0.835732,-2.489096,-1.096284,-3.864908,0.242661,3.105838,0.002000,-0.531483,0.729583
44.000000,0.002000,0.306564,0.039512,-0.490964,-0.530095,2.163785,-0.547750,-10.107074,-0.079154,13.989637,0.002000,-0.524343,0.360410
45.000000,0.002000,-0.254636,-0.056338,-0.880636,-1.933912,0.325910,1.537221,2.755843,1.334326,12.104353,0.002000,-0.087302,0.400746
46.000000,0.002000,-0.037210,-0.025450,0.284253,3.227792,-0.092428,-1.268848,0.868142,4.295579,-16.371851,0.002000,0.814523,-1.102852
47.000000,0.002000,0.282638,0.073323,-0.054679,-3.298607,2.729137,3.405952,-16.381053,1.913515,1.023964,0.002000,0.210722,-0.294195
48.000000,0.002000,0.040454,0.802924,-0.342588,-0.978311,-1.388018,0.568172,-0.425404,-11.687178,5.382443,0.002000,-2.542931,-0.392175
49.000000,0.002000,3.365747,0.317110,1.707064,-0.264960,-0.093848,0.054257,-1.136856,-0.088039,-0.603256,0.002000,1.311870,0.730102
50.000000,0.002000,-0.700513,-0.441686,-0.589521,1.369429,-0.266301,0.787509,6.837079,5.063370,6.068507,0.002000,0.306564,0.204921
51.000000,0.002000,-1.053752,-0.533192,-0.269636,-0.712731,-1.042412,-0.235792,7.320337,3.875148,1.250318,0.002000,-0.254636,-0.858695
52.000000,0.002000,-0.043348,0.144298,0.314841,-3.432267,0.519286,0.930354,-0.079318,-4.253777,-17.016231,0.002000,-0.037210,-0.238114
53.000000,0.002000,-0.766656,-0.094554,-0.038249,-2.998995,-0.270183,0.422893,13.158530,3.861683,-0.659870,0.002000,0.282638,-0.920539
54.000000,0.002000,0.697773,0.494404,-0.786972,2.498650,1.418458,0.788773,-5.279721,-3.164619,5.918608,0.002000,0.040454,0.938863
55.000000,0.002000,0.015203,0.021645,0.604655,-1.234320,-1.049132,0.153993,-1.601546,0.580818,-15.886901,0.002000,3.365747,0.622995
56.000000,0.002000,0.448430,-0.171348,0.505914,1.762965,-1.652575,0.350071,-8.914072,3.872505,-10.548236,0.002000,-0.700513,-0.310173
57.000000,0.002000,-0.897090,2.026806,1.596401,1.722967,-0.533760,0.276085,0.003661,-1.853188,-2.231182,0.002000,-1.053752,-1.011340
58.000000,0.002000,0.289777,1.016789,-1.133382,-0.506326,-1.018493,2.554081,-1.634364,-3.814614,4.162593,0.002000,-0.043348,-0.614373
59.000000,0.002000,-0.467065,0.522867,0.201073,-0.435935,0.181218,2.965893,8.568473,-9.570317,-10.039307,0.002000,-0.766656,0.138379
60.000000,0.002000,0.145305,0.305941,0.003187,1.198669,-0.042052,1.042756,-6.821708,-12.543215,0.876932,0.002000,0.697773,-0.509340
61.000000,0.002000,0.064026,-0.654245,-0.214168,-2.642679,0.556831,0.877523,-1.710677,14.854873,4.069727,0.002000,0.015203,-0.419420
62.000000,0.002000,3.682242,-0.486956,1.105744,0.741947,-0.196783,1.122752,-1.084669,0.174164,-0.333264,0.002000,0.448430,1.422647
63.000000,0.002000,0.268269,-0.222415,-0.455168,-0.136571,-0.859451,-0.489395,-9.665451,7.247287,12.544531,0.002000,-0.897090,-0.059677
64.000000,0.002000,0.070329,-0.385093,-0.057688,4.536954,0.349614,1.102638,-3.541815,17.702507,0.908371,0.002000,0.289777,0.039512
65.000000,0.002000,-0.494165,-0.281467,-0.157978,0.986004,-3.270319,2.412214,13.493116,9.725992,2.011797,0.002000,-0.467065,-0.056338
66.000000,0.002000,-0.067829,0.588506,0.425926,-2.589436,-1.640471,-2.913615,2.563725,-12.854853,-11.359943,0.002000,0.145305,-0.025450
67.000000,0.002000,-0.436206,2.843577,-1.327307,-0.178481,-0.947979,0.403310,0.327895,-1.665783,0.863092,0.002000,0.064026,0.073323
68.000000,0.002000,0.107631,-0.523425,-0.325170,-1.201956,-0.692448,-4.417044,-2.965099,14.442904,7.422565,0.002000,3.682242,0.802924
69.000000,0.002000,1.542188,-0.623433,1.001091,-1.308599,-1.505729,-1.578743,-2.974531,1.305808,-2.036744,0.002000,0.268269,0.317110
70.000000,0.002000,-1.179660,-0.043678,0.832982,0.320106,-1.060613,0.700470,5.261753,0.318315,-3.623812,0.002000,0.070329,-0.441686
71.000000,0.002000,-0.178919,-0.522422,0.576809,-1.819070,-2.452259,-0.163097,2.265194,8.473500,-8.853053,0.002000,-0.494165,-0.533192
72.000000,0.002000,0.022402,-0.130237,0.400775,0.515324,3.302589,-2.799168,-3.963569,5.234549,-16.276126,0.002000,-0.067829,0.144298
73.000000,0.002000,1.071253,-2.090221,-2.297936,-0.677911,0.726271,-0.048767,-0.549390,1.068451,1.157801,0.002000,-0.436206,-0.094554
74.000000,0.002000,-0.009035,-0.536082,-0.405422,0.198192,-0.693748,-0.202517,-0.093758,13.782929,9.748856,0.002000,0.107631,0.494404
75.000000,0.002000,0.327382,0.258281,-0.938199,3.876756,-0.330140,-1.780399,-7.270131,-0.777408,6.395522,0.002000,1.542188,0.021645
76.000000,0.002000,0.245360,0.299793,0.373686,2.701532,0.902831,1.897360,-9.324898,-6.796640,-13.163099,0.002000,-1.179660,-0.171348
77.000000,0.002000,-0.534061,-0.092930,0.128771,-1.987740,0.265983,2.139049,15.930848,5.418215,-4.648287,0.002000,-0.178919,2.026806
78.000000,0.002000,0.739300,0.617330,-0.208156,1.142172,0.933262,-1.176488,-8.946983,-6.907166,3.073215,0.002000,0.022402,1.016789
79.000000,0.002000,-0.632964,0.223671,0.263880,-1.367547,-2.738146,-2.236849,14.904803,-4.504230,-5.459311,0.002000,1.071253,0.522867
80.000000,0.002000,3.239198,0.759883,-1.552207,0.685871,1.306336,-0.717094,-1.256037,-0.304642,0.522361,0.002000,-0.009035,0.305941
81.000000,0.002000,-0.247211,0.089556,0.134625,-0.273558,-1.654361,0.897005,11.072900,-2.071088,-9.930639,0.002000,0.327382,-0.654245
82.000000,0.002000,0.834377,0.543031,0.518987,2.512272,1.552030,-1.788703,-7.551671,-4.473497,-3.882850,0.002000,0.245360,-0.486956
83.000000,0.002000,0.162711,0.685776,-1.251875,1.997134,0.570414,1.001285,-0.764624,-3.341939,6.050621,0.002000,-0.534061,-0.222415
84.000000,0.002000,0.177928,1.148011,-0.770192,-1.019241,-2.883443,1.660864,-1.102524,-5.905287,4.130806,0.002000,0.739300,-0.385093
85.000000,0.002000,0.161529,0.105526,-0.543231,2.270299,-2.745037,3.778171,-7.574355,-4.983285,14.918437,0.002000,-0.632964,-0.281467
86.000000,0.002000,0.122286,-0.213861,0.804282,1.201270,-1.229197,-2.853906,-2.175265,4.345358,-11.424241,0.002000,3.239198,0.588506
87.000000,0.002000,-0.896014,-0.438448,-0.811398,-0.228265,-1.312737,-0.477655,5.351020,2.650641,4.184050,0.002000,-0.247211,2.843577
88.000000,0.002000,-0.090034,-0.377906,-0.147845,-2.899668,0.888152,-1.121605,4.068763,18.239658,5.725444,0.002000,0.834377,-0.523425
89.000000,0.002000,-1.254531,2.056795,0.535639,1.390384,-0.247292,-0.387427,1.484075,-2.283794,-0.614355,0.002000,0.162711,-0.623433
90.000000,0.002000,-0.106719,-0.020415,0.072500,-0.431140,0.714405,-0.568840,11.568171,6.321484,-3.176101,0.002000,0.177928,-0.043678
91.000000,0.002000,-2.457562,-4.987128,-2.765804,0.451212,-0.245526,0.906102,0.197838,0.409048,0.222606,0.002000,0.161529,-0.522422
92.000000,0.002000,0.603727,0.118199,0.148779,-1.506718,0.208247,-0.110993,-14.680970,-1.014952,-3.272034,0.002000,0.122286,-0.130237
93.000000,0.002000,-0.759038,0.808435,-0.741257,-2.424810,2.096779,1.760761,4.572531,-4.563506,4.476475,0.002000,-0.896014,-2.090221
94.000000,0.002000,-2.668693,-0.957160,-2.223311,-0.098265,0.451670,0.737777,1.063234,0.398339,0.879187,0.002000,-0.090034,-0.536082
95.000000,0.002000,0.888571,-0.051868,0.010100,-2.720777,-0.179655,-0.458815,-12.281572,1.753176,-0.824179,0.002000,-1.254531,0.258281
96.000000,0.002000,-0.167003,-0.415140,0.034472,1.871415,2.839934,0.806421,4.532422,14.384297,-1.089806,0.002000,-0.106719,0.299793
97.000000,0.002000,-0.251856,-0.677473,0.339572,1.739108,-0.950499,0.715502,2.936990,10.893396,-5.600655,0.002000,-2.457562,-0.092930
98.000000,0.002000,0.245745,1.483699,-3.891326,0.171548,0.235733,-1.095560,-0.059154,-0.385277,1.077332,0.002000,0.603727,0.617330
99.000000,0.002000,0.082223,0.137519,0.072765,0.826554,-1.994562,1.166681,-8.741051,-4.868516,-5.486143,0.002000,-0.759038,0.223671
100.000000,0.002000,0.175149,-0.261994,0.062305,-0.254881,-1.833171,1.271378,-10.061526,13.900056,-3.214516,0.002000,-2.668693,0.759883
101.000000,0.002000,0.668165,-0.781519,0.171524,-0.525360,-1.414294,1.436928,-5.945287,6.882322,-1.183234,0.002000,0.888571,0.089556
102.000000,0.002000,0.227882,0.240545,-0.526028,-2.490368,2.928129,0.544948,-7.192823,-3.949935,14.443093,0.002000,-0.167003,0.543031
103.000000,0.002000,-2.187019,1.408923,-0.600832,-0.398579,-0.059322,0.218178,2.105915,-1.275322,0.607758,0.002000,-0.251856,0.685776
104.000000,0.002000,0.003261,-0.112589,0.161436,-2.250434,2.551965,1.191716,-2.369893,8.956586,-11.998925,0.002000,0.245745,1.148011
105.000000,0.002000,0.630255,1.086920,-0.915538,-1.453476,0.180009,-2.606756,-2.672503,-3.986967,3.704174,0.002000,0.082223,0.105526
106.000000,0.002000,0.172434,-0.100962,-0.185872,1.483630,-1.063891,0.514951,-10.844810,5.417318,8.205679,0.002000,0.175149,-0.213861
107.000000,0.002000,-0.135455,0.583337,-0.277914,0.376062,1.068262,0.185648,2.075900,-13.571346,8.077964,0.002000,0.668165,-0.438448
108.000000,0.002000,0.423380,0.232363,0.003872,3.811580,1.227211,-0.627725,-16.580508,-7.310491,-0.962657,0.002000,0.227882,-0.377906
109.000000,0.002000,0.325307,-0.290407,0.501287,-2.153743,-1.401258,0.968093,-7.070442,7.319926,-9.664833,0.002000,-2.187019,2.056795
110.000000,0.002000,-1.536748,1.248890,2.538164,-0.119389,-0.148952,-0.891870,0.824108,-0.656117,-1.425100,0.002000,0.003261,-0.020415
111.000000,0.002000,-0.545805,0.441258,-0.041622,-1.590085,-1.075742,2.493721,13.093790,-8.795440,1.388653,0.002000,0.630255,-4.987128
112.000000,0.002000,0.077110,-1.289565,0.573686,-1.380486,-3.153147,0.779122,-0.373485,5.791186,-2.495941,0.002000,0.172434,0.118199
113.000000,0.002000,1.943339,-3.416271,-1.391145,0.409837,1.493726,1.292961,-0.506201,0.906124,0.368273,0.002000,-0.135455,0.808435
114.000000,0.002000,0.054967,0.527495,0.327881,-4.013611,-1.954885,0.888244,-3.190834,-11.845240,-9.419965,0.002000,0.423380,-0.957160
115.000000,0.002000,0.016913,0.247088,0.046497,1.356700,-3.857274,-1.573700,-5.006779,-15.043588,-3.895168,0.002000,0.325307,-0.051868
116.000000,0.002000,-0.076499,0.213159,-0.062966,0.450905,1.756095,1.683020,2.863335,-11.785162,4.714063,0.002000,-1.536748,-0.415140
117.000000,0.002000,0.479193,0.354769,-0.182051,1.744385,-2.087234,0.914678,-15.649766,-8.605593,5.997217,0.002000,-0.545805,-0.677473
118.000000,0.002000,0.226198,-0.136808,-0.141017,-3.816062,-0.055177,-2.206093,-12.248939,6.149742,3.341091,0.002000,0.077110,1.483699
119.000000,0.002000,0.633847,0.566652,0.361066,-2.384730,-0.818891,-2.904183,-8.819637,-6.383961,-5.597889,0.002000,1.943339,0.137519
120.000000,0.002000,0.107198,0.476354,0.026361,0.742638,-2.025481,2.501291,0.247566,-12.938503,-1.896762,0.002000,0.054967,-0.261994
121.000000,0.002000,-0.294654,-0.643568,0.377464,1.592212,1.644811,0.450760,3.984602,10.746566,-6.238491,0.002000,0.016913,-0.781519
122.000000,0.002000,-0.314188,0.002266,-0.203951,1.378493,-1.521011,0.989486,13.354246,0.822343,7.703839,0.002000,-0.076499,0.240545
123.000000,0.002000,0.074335,1.898128,0.348462,-0.715227,-1.429155,-0.867751,-0.179412,-4.205442,-0.856650,0.002000,0.479193,1.408923
124.000000,0.002000,-0.192820,0.710792,0.734914,-1.294307,1.471644,0.437532,1.642116,-7.291071,-8.081030,0.002000,0.226198,-0.112589
125.000000,0.002000,-0.433002,0.108860,1.060844,-1.680592,0.663489,1.049058,3.418621,-1.017007,-7.341779,0.002000,0.633847,1.086920
126.000000,0.002000,-0.260908,-1.541907,0.209117,0.663561,1.960204,-2.360923,0.792126,5.484809,-0.489619,0.002000,0.107198,-0.100962
127.000000,0.002000,-0.998370,-0.423178,1.987684,1.155951,-1.101151,0.749006,1.366601,0.660306,-2.782551,0.002000,-0.294654,0.583337
128.000000,0.002000,-1.314359,-3.475126,0.289393,-0.469169,-0.893049,0.241912,0.458444,1.259395,-0.084400,0.002000,-0.314188,0.232363
129.000000,0.002000,-0.091217,-1.567790,-0.718102,0.660805,-0.783261,-0.423164,-0.267396,4.966672,2.164006,0.002000,0.074335,-0.290407
130.000000,0.002000,0.073040,1.307737,0.326304,-1.305422,1.580490,-0.253691,-0.356628,-7.643052,-1.910406,0.002000,-0.192820,1.248890
131.000000,0.002000,0.251772,-0.290237,-0.438245,-0.897580,3.495591,-0.600954,-6.965679,8.868334,12.791406,0.002000,-0.433002,0.441258
132.000000,0.002000,0.053993,-0.614321,0.328650,2.898472,-0.520577,1.864655,-1.695923,11.616248,-5.582705,0.002000,-0.260908,-1.289565
133.000000,0.002000,1.981011,-1.544475,-0.328227,-0.129871,1.545744,1.400535,-1.939015,1.538033,0.299230,0.002000,-0.998370,-3.416271
134.000000,0.002000,1.250972,-1.001823,-0.111417,1.845316,-1.543174,1.444887,-3.891427,3.341798,0.364665,0.002000,-1.314359,0.527495
135.000000,0.002000,0.479892,0.143139,-1.734566,0.894829,1.228608,-2.489781,-1.348269,-0.224701,4.487479,0.002000,-0.091217,0.247088
136.000000,0.002000,-0.736358,-0.073164,-0.219430,-0.047654,-0.191839,0.910437,12.991549,4.057678,3.066957,0.002000,0.073040,0.213159
137.000000,0.002000,-0.005091,0.419131,0.892561,-0.565587,-0.912415,2.033144,-0.257090,-4.045888,-10.202481,0.002000,0.251772,0.354769
138.000000,0.002000,0.536228,-2.000479,-0.442004,1.108872,0.153382,-0.120255,-0.826596,3.214338,0.478594,0.002000,0.053993,-0.136808
139.000000,0.002000,-0.827255,0.281690,-0.140587,3.339762,0.722995,0.688404,11.562443,-3.030713,1.231157,0.002000,1.981011,0.566652
140.000000,0.002000,0.544401,0.413260,-1.413144,-0.582030,-2.320683,-2.120462,-2.381131,-1.408105,5.365494,0.002000,1.250972,0.476354
141.000000,0.002000,-1.244313,-1.756727,3.357674,0.108791,-1.176720,0.335690,0.310259,0.635912,-1.027885,0.002000,0.479892,-0.643568
142.000000,0.002000,-0.556208,0.154479,0.169479,-2.298995,-0.807333,-0.352356,16.279333,-2.723402,-3.642456,0.002000,-0.736358,0.002266
143.000000,0.002000,1.092332,5.773019,1.521951,-0.002025,-0.932257,-0.240512,-0.098173,-0.518837,-0.139568,0.002000,-0.005091,1.898128
144.000000,0.002000,-0.087102,0.503429,0.050416,0.203497,-0.905415,2.043033,-2.196083,-18.084065,-3.204589,0.002000,0.536228,0.710792
145.000000,0.002000,0.433657,0.394625,-0.387733,2.019146,-0.772586,2.094760,-10.742903,-8.520794,9.162262,0.002000,-0.827255,0.108860
146.000000,0.002000,0.224945,0.080566,-0.120218,-0.783473,2.327510,2.679474,-11.995262,-0.550673,8.515272,0.002000,0.544401,-1.541907
147.000000,0.002000,0.409954,0.093608,-0.174033,-0.003172,3.172834,2.124261,-16.451619,-1.857505,5.307385,0.002000,-1.244313,-0.423178
148.000000,0.002000,0.108399,-0.104770,0.180844,5.925551,-0.204203,-1.134361,-6.679226,8.038107,-13.587360,0.002000,-0.556208,-3.475126
149.000000,0.002000,-0.257899,0.212178,-0.176241,-2.587267,0.552922,-1.860170,12.522783,-8.100685,12.306951,0.002000,1.092332,-1.567790
150.000000,0.002000,-0.596728,0.124049,-0.430306,-3.040731,-1.900811,0.729193,12.331430,-2.188275,7.828036,0.002000,-0.087102,1.307737
151.000000,0.002000,-0.136273,-0.229387,-0.231177,-3.323121,3.760180,2.674600,1.777542,11.645148,6.964252,0.002000,0.433657,-0.290237
152.000000,0.002000,0.055354,0.021972,-0.523434,2.356815,-3.524155,1.307122,-2.858656,2.074785,16.831709,0.002000,0.224945,-0.614321
153.000000,0.002000,0.973470,-0.817176,0.638936,-1.810365,-0.444597,-1.096632,-4.259962,3.474915,-2.706906,0.002000,0.409954,-1.544475
154.000000,0.002000,-0.146811,-0.301174,-0.245212,0.667073,2.395769,0.407964,5.460647,16.267906,10.660396,0.002000,0.108399,-1.001823
155.000000,0.002000,0.141043,0.242366,0.158161,-0.714272,0.076541,-0.605018,-7.787761,-7.427340,-11.688689,0.002000,-0.257899,0.143139
156.000000,0.002000,-2.399187,0.940391,0.848268,-2.216737,0.440266,-0.937799,2.141610,-0.804142,-0.801130,0.002000,-0.596728,-0.073164
157.000000,0.002000,-1.569698,-4.178090,-0.762592,-0.076073,-0.837205,0.092401,0.311374,0.865940,0.149521,0.002000,-0.136273,0.419131
158.000000,0.002000,0.365592,0.128733,0.471909,1.608294,0.066435,0.011956,-8.357053,-2.774238,-11.883851,0.002000,0.055354,-2.000479
159.000000,0.002000,-1.146165,-0.285514,1.059859,1.009105,0.441524,1.767746,3.906784,1.347848,-3.953355,0.002000,0.973470,0.281690
160.000000,0.002000,0.034810,-0.259933,-0.199604,4.785114,-3.487926,1.269711,-2.372941,15.504716,8.992148,0.002000,-0.146811,0.413260
161.000000,0.002000,0.521527,-0.634021,-0.718998,-0.721420,-1.739628,0.737718,-4.379169,5.609096,5.797951,0.002000,0.141043,-1.756727
162.000000,0.002000,-0.440984,0.356714,-1.840462,1.482584,2.075079,2.416356,1.041328,-0.722184,4.053936,0.002000,-2.399187,0.154479
163.000000,0.002000,-0.267490,-0.467177,-0.319900,4.803754,2.363872,-0.103434,6.640120,13.403267,7.098270,0.002000,-1.569698,5.773019
164.000000,0.002000,0.257062,0.339854,-0.381021,1.815688,-1.705010,0.362235,-9.544497,-8.749571,13.332873,0.002000,0.365592,0.503429
165.000000,0.002000,0.136712,-3.709781,2.353312,0.215225,1.660254,-0.195114,-0.033034,0.832556,-0.528913,0.002000,-1.146165,0.394625
166.000000,0.002000,-0.106478,0.986852,-0.431084,0.838535,3.447353,0.256714,1.137207,-9.481510,3.960980,0.002000,0.034810,0.080566
167.000000,0.002000,0.195678,0.311136,1.069114,-1.595919,-0.410486,0.415403,-1.941626,-1.678005,-8.512330,0.002000,0.521527,0.093608
168.000000,0.002000,0.229910,-0.020656,-0.180572,2.809525,-1.947010,0.453888,-11.203302,7.107324,8.144698,0.002000,-0.440984,-0.104770
169.000000,0.002000,0.175096,1.424440,-0.698353,0.362977,1.578551,-0.149170,-0.752206,-5.215849,2.609549,0.002000,-0.267490,0.212178
170.000000,0.002000,2.498577,-2.296280,1.090462,-0.158203,0.541092,-0.490612,-1.004961,0.927899,-0.449468,0.002000,0.257062,0.124049
171.000000,0.002000,2.139095,0.781799,0.002980,1.431677,-0.332800,0.930180,-3.203120,-0.950284,-0.008538,0.002000,0.136712,-0.229387
172.000000,0.002000,3.269061,2.311897,-1.339298,0.344339,-0.387195,0.378057,-0.879562,-0.596351,0.333655,0.002000,-0.106478,0.021972
173.000000,0.002000,0.468667,-0.572057,-0.228729,1.935624,-1.323412,-0.804801,-8.324773,10.397016,2.986655,0.002000,0.195678,-0.817176
174.000000,0.002000,-1.029615,-0.069202,0.706309,2.818028,-1.378008,-2.233396,6.237818,1.210013,-4.445918,0.002000,0.229910,-0.301174
175.000000,0.002000,0.059416,-0.661553,-0.406615,-4.086615,-0.251635,1.980654,-1.328544,12.063509,6.263398,0.002000,0.175096,0.242366
176.000000,0.002000,0.334806,-0.241084,-0.567927,-2.491606,-2.869464,3.127697,-7.868535,6.097064,11.902179,0.002000,2.498577,0.940391
177.000000,0.002000,-0.461678,-5.659184,-4.174762,-0.662402,0.512941,-0.403466,0.023253,0.318659,0.231452,0.002000,2.139095,-4.178090
178.000000,0.002000,-0.135287,0.352797,-0.092246,-2.208281,-1.360368,0.025190,4.956285,-14.785642,4.009618,0.002000,3.269061,0.128733
179.000000,0.002000,-0.054545,0.160119,-0.318617,-3.874258,-1.721846,-1.261384,0.672632,-5.144082,13.230681,0.002000,0.468667,-0.285514
180.000000,0.002000,-0.025657,-0.662468,0.246753,0.995558,-0.048846,0.904685,-0.989101,13.441555,-4.871252,0.002000,-1.029615,-0.259933
181.000000,0.002000,-0.167229,0.443830,-0.096081,2.727613,-1.728692,4.140564,4.972046,-16.824168,2.502737,0.002000,0.059416,-0.634021
182.000000,0.002000,0.133760,2.280790,1.576597,1.317607,-0.606747,-0.639546,-0.121870,-1.880674,-1.337975,0.002000,0.334806,0.356714
183.000000,0.002000,0.831928,-3.790228,-2.067442,0.046961,0.519310,1.604187,-0.191027,0.852256,0.457840,0.002000,-0.461678,-0.467177
184.000000,0.002000,-0.406161,0.284985,0.093295,-2.592247,-0.095657,-3.178182,14.969632,-8.547636,-3.197105,0.002000,-0.135287,0.339854
185.000000,0.002000,0.302595,0.454298,-0.293438,0.041893,-4.112991,2.058911,-9.669461,-12.385930,8.806372,0.002000,-0.054545,-3.709781
186.000000,0.002000,-1.700865,2.159312,-1.000581,-1.027082,0.165877,-1.744066,1.283802,-1.614334,0.800872,0.002000,-0.025657,0.986852
187.000000,0.002000,0.062084,1.946777,-1.182061,0.593752,-2.038609,0.538808,-0.103104,-2.803176,1.733616,0.002000,-0.167229,0.311136
188.000000,0.002000,0.001276,-0.696300,0.096377,-0.617135,-2.349331,-3.092949,-0.364853,14.579586,-2.962254,0.002000,0.133760,-0.020656
189.000000,0.002000,0.369237,0.443097,-0.209082,4.542146,-2.942192,-2.269213,-11.215177,-11.110106,7.616463,0.002000,0.831928,1.424440
190.000000,0.002000,0.082310,0.011504,0.036169,-1.702254,-2.018961,-0.970500,-2.897374,5.803874,-2.468057,0.002000,-0.406161,-2.296280
191.000000,0.002000,0.140022,0.662836,0.562166,0.104174,-0.877794,-1.512900,-2.537802,-8.123712,-9.043801,0.002000,0.302595,0.781799
192.000000,0.002000,0.186690,1.061141,-1.141696,1.113180,-0.167691,0.440217,-0.563424,-4.064514,4.307643,0.002000,-1.700865,2.311897
193.000000,0.002000,0.084440,-0.141185,-0.171783,-0.095211,-0.141546,2.674443,-3.711849,7.255589,5.942149,0.002000,0.062084,-0.572057
194.000000,0.002000,-2.373263,2.967709,1.155300,-0.389041,-0.788879,0.222454,0.738188,-0.938107,-0.368405,0.002000,0.001276,-0.069202
195.000000,0.002000,-1.223448,0.513461,-0.513371,0.174396,-0.439707,1.547829,6.187860,-2.243577,2.677045,0.002000,0.369237,-0.661553
196.000000,0.002000,-0.247882,0.024172,0.142553,-2.072450,2.981676,-1.310538,14.523123,2.502288,-9.134809,0.002000,0.082310,-0.241084
197.000000,0.002000,-0.491937,0.832910,1.086073,-1.933424,-0.040349,3.912457,2.397586,-3.461163,-4.649201,0.002000,0.140022,-5.659184
198.000000,0.002000,-0.225710,-0.173636,-0.032239,2.979027,2.395892,1.005238,9.894535,12.744762,3.153096,0.002000,0.186690,0.352797
199.000000,0.002000,-0.093512,-0.408593,-0.231977,1.518481,-0.613501,-2.812407,4.984671,16.507612,5.331396,0.002000,0.084440,0.160119
200.000000,0.002000,0.249592,0.718712,-0.318697,0.122020,-0.288153,-1.451583,-4.904251,-11.923594,5.950429,0.002000,-2.373263,-0.662468
201.000000,0.002000,1.507951,-0.304570,1.416537,1.096153,-0.187444,0.995902,-2.476158,0.689363,-2.384974,0.002000,-1.223448,0.443830
202.000000,0.002000,2.316769,-0.737960,-0.534835,-1.247531,-0.173624,0.104744,-2.497244,0.758019,0.568393,0.002000,-0.247882,2.280790
203.000000,0.002000,0.239669,-1.010804,-0.729979,0.863194,-0.198049,-2.514260,-1.395788,6.058714,4.034234,0.002000,-0.491937,-3.790228
204.000000,0.002000,-1.179699,0.025640,-0.573370,1.205087,-1.961327,-0.403075,6.872326,0.260618,3.280511,0.002000,-0.225710,0.284985
205.000000,0.002000,0.247796,-0.640710,-0.989724,-1.416912,-1.234625,1.203327,-1.535268,4.914333,6.653979,0.002000,-0.093512,0.454298
206.000000,0.002000,-0.409161,0.454402,-0.168401,0.304231,-1.502031,0.230692,11.379147,-12.116257,4.645654,0.002000,0.249592,2.159312
207.000000,0.002000,4.249062,-1.576545,0.575051,0.832617,-0.168064,0.000933,-0.854881,0.328728,-0.117656,0.002000,1.507951,1.946777
208.000000,0.002000,-0.005282,0.473877,0.777152,1.452742,0.543184,1.828608,-0.436310,-5.641100,-10.701298,0.002000,2.316769,-0.696300
209.000000,0.002000,-0.492163,0.527602,-0.649731,-1.335157,-1.795516,0.442957,6.193322,-5.915444,7.902743,0.002000,0.239669,0.443097
210.000000,0.002000,-0.452130,-0.362340,1.216009,2.153556,0.082085,-0.588680,2.299734,2.148219,-6.194386,0.002000,-1.179699,0.011504
211.000000,0.002000,-0.260898,0.233570,-0.117366,0.516978,3.054548,-2.643197,12.473166,-9.091213,1.647664,0.002000,0.247796,0.662836
212.000000,0.002000,0.074304,-0.023902,-0.255905,0.893809,-1.102532,-0.829143,-4.149522,5.237777,10.861193,0.002000,-0.409161,1.061141
213.000000,0.002000,-0.343851,0.190611,0.313909,-3.156261,1.951157,-1.026826,11.711133,-4.918185,-12.826174,0.002000,4.249062,-0.141185
214.000000,0.002000,-0.295084,1.601539,1.748698,-0.807334,-0.241122,-1.119776,0.355932,-1.978131,-2.194386,0.002000,-0.005282,2.967709
215.000000,0.002000,-0.066941,-0.147385,-1.399226,-1.612752,1.885044,1.165866,0.529728,0.913855,6.676818,0.002000,-0.492163,0.513461
216.000000,0.002000,-0.087323,0.102158,1.111679,0.205143,1.266962,0.096130,0.651701,-0.318382,-9.600670,0.002000,-0.452130,0.024172
217.000000,0.002000,0.303323,0.525049,-1.285169,-1.181505,0.240653,2.578907,-1.460653,-2.512747,6.192111,0.002000,-0.260898,0.832910
218.000000,0.002000,2.400108,-1.355729,-1.458406,-0.116464,-1.601448,-1.260258,-1.391457,0.797889,0.893434,0.002000,0.074304,-0.173636
219.000000,0.002000,0.049677,0.047064,0.168891,-1.821844,1.064837,2.159844,-0.310650,2.079797,-9.331249,0.002000,-0.343851,-0.408593
220.000000,0.002000,1.510628,0.494627,1.540624,-1.045626,-0.057351,-0.161882,-2.297104,-0.626497,-2.325288,0.002000,-0.295084,0.718712
221.000000,0.002000,0.587402,3.106925,0.076264,-0.871029,-0.527667,0.639834,-0.333857,-1.894653,-0.040585,0.002000,-0.066941,-0.304570
222.000000,0.002000,0.035660,-0.029891,0.252396,2.667494,-0.453711,0.104465,-4.999624,6.115750,-13.416427,0.002000,-0.087323,-0.737960
223.000000,0.002000,-0.378743,0.480916,1.280361,1.044582,-1.980688,-2.606555,1.567841,-1.873882,-6.440596,0.002000,0.303323,-1.010804
224.000000,0.002000,-0.561923,2.439108,0.628672,0.484442,-0.760791,-1.856831,0.478445,-2.522562,-0.709552,0.002000,2.400108,0.025640
225.000000,0.002000,-1.112774,-0.434285,-0.330691,-1.567477,0.230608,-1.946512,7.203981,2.991924,1.974398,0.002000,0.049677,-0.640710
226.000000,0.002000,-0.293819,-0.011719,0.313528,3.595648,1.503594,1.438415,10.259133,3.422389,-12.163945,0.002000,1.510628,0.454402
227.000000,0.002000,0.243126,0.384836,0.123260,-3.625793,-2.004162,1.020550,-15.110051,-14.786362,-0.784657,0.002000,0.587402,-1.576545
228.000000,0.002000,1.768367,1.647905,-0.045069,-0.484681,-0.659934,2.036055,-2.172575,-1.969973,0.106004,0.002000,0.035660,0.473877
229.000000,0.002000,0.585269,2.351971,-1.767297,-2.776049,0.124058,0.677287,-0.466871,-1.688148,1.211679,0.002000,-0.378743,0.527602
230.000000,0.002000,0.403658,0.723313,0.346332,3.665523,3.743072,-0.698572,-6.007385,-9.823566,-6.046779,0.002000,-0.561923,-0.362340
231.000000,0.002000,1.218103,1.104405,-0.153359,-0.880232,0.148088,-0.958819,-4.163593,-3.514447,0.624870,0.002000,-1.112774,0.233570
232.000000,0.002000,0.656351,1.673090,0.279608,0.377003,1.532913,0.575142,-1.843617,-4.310246,-0.758759,0.002000,-0.293819,-0.023902
233.000000,0.002000,-0.005189,-0.582379,-0.144089,0.004309,3.258461,-0.775106,-0.681104,15.498944,2.500073,0.002000,0.243126,0.190611
234.000000,0.002000,-0.791723,-0.644552,1.996786,-0.106126,1.711547,-0.779450,1.048787,1.011763,-2.875685,0.002000,1.768367,1.601539
235.000000,0.002000,0.599715,1.264134,-0.712906,1.110563,-0.456926,-0.016667,-2.598036,-4.619405,2.970306,0.002000,0.585269,-0.147385
236.000000,0.002000,-1.638671,1.286825,-1.738639,1.914486,0.455279,0.285908,1.518401,-1.156084,1.504795,0.002000,0.403658,0.102158
237.000000,0.002000,-0.165547,-0.620829,-0.307571,-2.534347,-1.981413,0.443566,2.157635,13.263470,6.303712,0.002000,1.218103,0.525049
238.000000,0.002000,0.755393,0.501747,0.256856,2.117169,0.001433,0.173603,-9.822275,-5.265836,-3.580054,0.002000,0.656351,-1.355729
239.000000,0.002000,0.518158,1.091516,-0.094563,-1.994379,-0.015355,1.435243,-3.862423,-8.564252,1.363622,0.002000,-0.005189,0.047064
240.000000,0.002000,-0.285609,-0.208773,-0.206209,-1.602299,0.674856,-2.724605,12.702089,12.507168,7.103117,0.002000,-0.791723,0.494627
241.000000,0.002000,0.775379,-0.068289,-0.002768,-2.142469,-1.561129,0.145931,-12.407610,3.066974,-0.172598,0.002000,0.599715,3.106925
242.000000,0.002000,-1.140595,-0.232888,-2.528207,-0.608516,-0.721570,-1.115966,0.941630,0.241260,2.053262,0.002000,-1.638671,-0.029891
243.000000,0.002000,-0.039060,-0.125485,0.164809,-1.184499,-1.873194,3.647046,0.305441,9.235762,-11.531188,0.002000,-0.165547,0.480916
244.000000,0.002000,0.012913,0.393673,0.309680,-2.231630,-1.144154,0.249695,-0.869541,-13.040206,-13.025117,0.002000,0.755393,2.439108
245.000000,0.002000,1.753561,4.018766,-9.164558,-0.769011,0.463916,-0.592316,-0.033872,-0.075950,0.175468,0.002000,0.518158,-0.434285
246.000000,0.002000,-1.607149,1.346125,-0.966410,1.655991,-1.124979,0.990004,2.296340,-1.733794,1.385038,0.002000,-0.285609,-0.011719
247.000000,0.002000,2.122463,-0.149485,-1.313793,-1.544320,-1.123730,-0.520618,-2.267837,0.222775,1.440824,0.002000,0.775379,0.384836
248.000000,0.002000,-0.192325,0.300632,-0.185261,-0.508646,2.418693,-4.207541,7.551493,-13.331651,8.558123,0.002000,-1.140595,1.647905
249.000000,0.002000,0.257363,0.317792,0.255598,-0.100853,1.218537,0.844732,-10.815367,-9.293779,-11.745752,0.002000,-0.039060,2.351971
250.000000,0.002000,-0.053443,-0.776316,0.294233,0.556067,-0.096274,-1.922472,-0.390890,11.179508,-4.065415,0.002000,0.012913,0.723313
251.000000,0.002000,-1.803433,1.555294,-1.422284,0.426243,-1.702324,0.236358,1.545754,-1.304790,1.229128,0.002000,1.753561,1.104405
252.000000,0.002000,-0.325557,-0.114613,-0.090023,3.409194,-1.622528,2.125886,15.714894,11.519890,5.191515,0.002000,-1.607149,1.673090
253.000000,0.002000,-0.308316,0.394270,0.031102,0.978784,2.851681,0.339589,12.394779,-12.889195,-0.349381,0.002000,2.122463,-0.582379
254.000000,0.002000,0.721020,-0.099806,0.262676,0.432993,-2.931686,2.943495,-11.802350,2.400493,-4.899018,0.002000,-0.192325,-0.644552
255.000000,0.002000,-0.588454,0.518450,-0.722386,0.308870,-1.972235,-0.551112,6.033746,-4.782522,7.232437,0.002000,0.257363,1.264134
256.000000,0.002000,-0.444060,-0.330408,-0.181418,-3.628719,-1.671623,-0.735325,9.192261,10.145921,2.209925,0.002000,-0.053443,1.286825
257.000000,0.002000,0.558206,0.624504,0.134941,-0.328418,-2.867292,-1.542075,-10.667343,-8.388240,-3.808429,0.002000,-1.803433,-0.620829
258.000000,0.002000,-0.210668,-0.158552,0.242156,2.388977,1.539404,-0.425499,9.853476,12.268293,-12.572267,0.002000,-0.325557,0.501747
259.000000,0.002000,0.646368,-0.586732,-0.838731,0.473883,1.864463,-0.064246,-4.248459,4.262641,5.442635,0.002000,-0.308316,1.091516
260.000000,0.002000,-0.602285,-1.064619,-0.726130,-0.996754,0.544181,-2.403611,2.496501,4.932018,3.367589,0.002000,0.721020,-0.208773
261.000000,0.002000,1.060045,0.055909,0.210431,1.797867,-1.958789,-0.252623,-9.407590,0.248877,-2.032684,0.002000,-0.588454,-0.068289
262.000000,0.002000,-0.830590,0.249775,0.197057,-1.735304,2.566498,-3.259153,13.269490,-3.076951,-2.892113,0.002000,-0.444060,-0.232888
263.000000,0.002000,0.651795,0.206071,0.285169,4.000082,1.505891,-0.448604,-11.756622,-1.856720,-6.334009,0.002000,0.558206,-0.125485
264.000000,0.002000,0.374171,1.455384,0.415225,-0.492051,0.583574,-0.517292,-1.408990,-5.730183,-1.616134,0.002000,-0.210668,0.393673
265.000000,0.002000,0.235618,-0.467199,-0.614401,-1.972810,2.093641,-0.557173,-3.921185,8.602517,9.674387,0.002000,0.646368,4.018766
266.000000,0.002000,-0.159681,0.241517,0.024682,2.851089,0.645766,5.633146,9.035905,-10.054061,-1.861784,0.002000,-0.602285,1.346125
267.000000,0.002000,1.189119,-0.181717,0.940660,1.711019,0.535976,0.133870,-4.414325,0.909162,-3.514168,0.002000,1.060045,-0.149485
268.000000,0.002000,0.621843,0.099753,-0.467221,1.304733,-1.567759,0.382044,-11.297632,-1.481066,10.066951,0.002000,-0.830590,0.300632
269.000000,0.002000,0.197670,0.166268,0.121349,3.089750,0.825654,-1.340031,-13.285667,-4.894347,-9.046512,0.002000,0.651795,0.317792
270.000000,0.002000,-0.129179,2.118035,-0.091388,-1.399938,-0.503021,-1.224249,0.199289,-3.724929,0.172603,0.002000,0.374171,-0.776316
271.000000,0.002000,-0.343057,0.317225,0.458581,-1.858552,-1.499314,0.935570,8.454557,-6.216226,-12.457866,0.002000,0.235618,1.555294
272.000000,0.002000,0.717944,-3.173599,-0.683480,-0.260838,-0.551053,1.220832,-0.327677,1.497729,0.328886,0.002000,-0.159681,-0.114613
273.000000,0.002000,0.151555,0.910505,-0.847955,2.135344,0.397985,-0.892924,-1.344123,-5.951926,5.901992,0.002000,1.189119,0.394270
274.000000,0.002000,0.131577,0.294547,-0.338041,-0.225128,1.001486,-1.275325,-4.409452,-9.265997,12.312544,0.002000,0.621843,-0.099806
275.000000,0.002000,-0.096082,0.404648,0.598479,-0.894112,1.250886,2.018875,1.073727,-8.615033,-14.771337,0.002000,0.197670,0.518450
276.000000,0.002000,0.455979,4.476006,1.600664,0.033765,0.326862,-0.159600,-0.086788,-0.824316,-0.305973,0.002000,-0.129179,-0.330408
277.000000,0.002000,0.301631,0.067988,-0.110878,-1.558189,-3.523245,0.878869,-21.121665,2.077794,8.103027,0.002000,-0.343057,0.624504
278.000000,0.002000,0.143956,0.251763,0.086632,-1.304627,1.608211,0.344095,-7.921446,-5.284930,-4.012803,0.002000,0.717944,-0.158552
279.000000,0.002000,0.043241,0.651411,-0.894084,0.331063,0.469917,0.866738,-0.572268,-5.384668,8.345893,0.002000,0.151555,-0.586732
280.000000,0.002000,-0.204657,0.211139,-0.154170,0.228675,-0.029781,0.424791,8.415229,-7.725110,7.641438,0.002000,0.131577,-1.064619
281.000000,0.002000,0.528144,0.012751,0.417492,-1.118432,2.396586,-3.370100,-11.373293,0.622602,-8.975246,0.002000,-0.096082,0.055909
282.000000,0.002000,1.196449,0.649686,0.728047,-1.877766,0.753770,2.562725,-4.674798,-2.194928,-2.771744,0.002000,0.455979,0.249775
283.000000,0.002000,-0.327893,-0.838360,-0.329177,-1.768435,0.307806,0.767822,3.128232,9.727799,3.661880,0.002000,0.301631,0.206071
284.000000,0.002000,-2.256125,-1.734815,0.632965,2.205562,0.514224,-1.216407,1.573934,1.237936,-0.474969,0.002000,0.143956,1.455384
285.000000,0.002000,-0.191500,-0.635633,-0.656388,-1.257422,-0.522523,-0.544578,1.989404,8.139603,8.107019,0.002000,0.043241,-0.467199
286.000000,0.002000,0.524230,1.125502,0.194044,-2.777549,1.437967,0.260639,-3.977827,-7.438782,-0.668153,0.002000,-0.204657,0.241517
287.000000,0.002000,-0.076546,0.605385,-0.214072,-0.194515,1.902637,-0.824714,1.772850,-15.553368,6.605186,0.002000,0.528144,-0.181717
288.000000,0.002000,-0.091937,-0.186214,-0.197427,-0.749600,-2.348036,-1.039537,1.201851,12.477769,9.314593,0.002000,1.196449,0.099753
289.000000,0.002000,0.209599,0.348669,-0.185343,0.622313,-3.038440,-0.541812,-8.521866,-12.381995,6.600114,0.002000,-0.327893,0.166268
290.000000,0.002000,0.373021,0.447366,0.051603,1.323299,1.100968,0.797151,-11.987750,-12.201954,-4.607818,0.002000,-2.256125,2.118035
291.000000,0.002000,0.264575,-1.349974,2.168903,-1.044621,0.424694,0.243323,-0.295514,1.325274,-2.132315,0.002000,-0.191500,0.317225
292.000000,0.002000,0.455021,0.138585,0.200708,0.350771,-2.662334,0.897569,-15.123705,-1.742219,-9.955953,0.002000,0.524230,-3.173599
293.000000,0.002000,-0.327843,-0.099496,-0.081258,2.727925,-2.188883,-0.732183,16.897490,3.823060,0.769350,0.002000,-0.076546,0.910505
294.000000,0.002000,-1.136792,0.431298,-0.610854,0.788047,1.015483,2.173996,6.428643,-1.881579,3.496491,0.002000,-0.091937,0.294547
295.000000,0.002000,0.027979,0.234177,-0.441520,-1.277451,-0.059478,-0.709115,-2.018159,-4.309354,15.161843,0.002000,0.209599,0.404648
296.000000,0.002000,0.563047,-0.311077,-0.284000,-0.466707,1.964008,-2.660397,-12.498961,8.402411,4.560110,0.002000,0.373021,4.476006
297.000000,0.002000,0.244280,0.409257,-0.289766,0.869294,-0.206083,-1.362431,-8.427876,-13.475914,8.517009,0.002000,0.264575,0.067988
298.000000,0.002000,-0.483916,-0.970150,0.270864,0.033807,2.616668,-0.779682,2.859800,7.075996,-2.580472,0.002000,0.455021,0.251763
299.000000,0.002000,1.223926,-2.455781,1.013297,0.433440,1.036638,0.268533,-0.807261,1.655302,-0.668439,0.002000,-0.327843,0.651411
300.000000,0.002000,-1.559774,2.231801,-0.734986,0.002867,-2.000050,-1.158830,1.253161,-1.901531,0.629978,0.002000,-1.136792,0.211139
301.000000,0.002000,0.674636,0.696261,-0.128202,2.678968,1.718455,-1.211356,-8.691974,-8.219113,2.805028,0.002000,0.027979,0.012751
302.000000,0.002000,-1.079280,0.231396,0.972647,1.536080,-0.995024,-0.105073,4.607440,-0.770035,-4.408621,0.002000,0.563047,0.649686
303.000000,0.002000,-2.104926,0.157842,-1.243899,0.554837,-1.203338,1.657046,2.411460,-0.095453,1.432745,0.002000,0.244280,-0.838360
304.000000,0.002000,0.111478,0.723405,0.462122,-0.860432,1.342944,2.064183,-2.343342,-9.670098,-7.762837,0.002000,-0.483916,-1.734815
305.000000,0.002000,-0.328378,0.726396,0.187908,1.047170,4.772825,-0.166700,6.487343,-11.649813,-4.557699,0.002000,1.223926,-0.635633
306.000000,0.002000,0.009799,-0.215505,-0.122313,-0.562067,2.464539,0.918072,-2.741160,16.629553,4.868158,0.002000,-1.559774,1.125502
307.000000,0.002000,-0.044726,0.312492,0.467691,0.560019,3.490588,-0.704147,-1.061942,-8.968171,-14.269484,0.002000,0.674636,0.605385
308.000000,0.002000,-2.958438,-2.662871,0.050006,0.524253,-0.477905,-0.267714,0.899218,0.808637,0.004827,0.002000,-1.079280,-0.186214
309.000000,0.002000,0.280143,2.605230,-0.329890,-0.606100,0.926402,-0.363090,-0.289543,-2.515222,0.378455,0.002000,-2.104926,0.348669
310.000000,0.002000,0.459015,-0.459399,0.262273,-0.164058,0.107920,2.128939,-9.039270,9.625461,-4.697252,0.002000,0.111478,0.447366
311.000000,0.002000,-1.301869,-0.063305,0.209089,3.388898,-1.362946,0.909624,7.150152,0.557303,-1.092131,0.002000,-0.328378,-1.349974
312.000000,0.002000,0.637708,0.539103,1.170568,-0.172361,0.558288,2.413010,-3.176181,-2.370456,-5.351077,0.002000,0.009799,0.138585
313.000000,0.002000,-0.574036,0.016690,-0.591762,0.769985,4.717144,1.296423,9.762170,1.511014,10.220793,0.002000,-0.044726,-0.099496
314.000000,0.002000,0.576415,-0.673713,0.060990,-1.333208,0.184005,1.552440,-6.896288,8.570049,-1.065932,0.002000,-2.958438,0.431298
315.000000,0.002000,2.801354,-0.912872,0.359225,1.406636,-1.164300,0.146008,-1.888417,0.646098,-0.322184,0.002000,0.280143,0.234177
316.000000,0.002000,0.147331,0.139676,0.614792,-2.196480,-0.751861,3.502376,-4.181404,-2.399331,-13.049574,0.002000,0.459015,-0.311077
317.000000,0.002000,0.146070,-0.256513,0.206506,-3.101837,0.989914,4.081365,-8.790830,12.127344,-10.786656,0.002000,-1.301869,0.409257
318.000000,0.002000,0.305416,0.876199,0.215884,1.764549,1.313242,2.689667,-3.849487,-10.797477,-2.715678,0.002000,0.637708,-0.970150
319.000000,0.002000,0.272262,0.101256,0.394323,-0.908489,-0.654777,3.215758,-11.777788,-0.712953,-12.238807,0.002000,-0.574036,-2.455781
320.000000,0.002000,1.040376,-1.897960,2.243977,0.320381,-1.741719,0.454090,-0.599924,1.095540,-1.260248,0.002000,0.576415,2.231801
321.000000,0.002000,-0.061935,0.887551,-0.246218,0.957437,-1.312575,-0.145303,0.819499,-12.399272,3.576377,0.002000,2.801354,0.696261
322.000000,0.002000,-0.920774,-0.113742,-0.082772,-0.804910,1.918832,-0.146820,11.764493,2.799281,0.346647,0.002000,0.147331,0.231396
323.000000,0.002000,-0.187024,0.061736,0.396869,-0.869532,-2.671073,2.652898,6.276176,-0.244567,-16.175893,0.002000,0.146070,0.157842
324.000000,0.002000,-0.379156,0.034972,-0.307407,1.565655,0.113846,-1.993798,16.252447,0.058842,12.377139,0.002000,0.305416,0.723405
325.000000,0.002000,-0.539179,-0.952038,2.143545,-0.723829,-2.455305,-1.260013,0.581763,1.135009,-2.443846,0.002000,0.272262,0.726396
326.000000,0.002000,-0.524908,1.328879,-0.847077,0.084963,-1.228453,-0.553439,1.798637,-4.467842,2.883872,0.002000,1.040376,-0.215505
327.000000,0.002000,-0.156898,-0.094145,-0.266056,-0.722417,0.421633,-0.442908,5.025805,8.355244,9.216078,0.002000,-0.061935,0.312492
328.000000,0.002000,-0.101191,0.264370,-0.963370,1.468100,-0.026851,-0.394486,0.794608,-2.302636,11.044625,0.002000,-0.920774,-2.662871
329.000000,0.002000,0.254055,-0.153922,-0.141658,0.616400,-0.697683,-1.138825,-16.120028,9.780142,4.143452,0.002000,-0.187024,2.605230
330.000000,0.002000,-0.253706,0.754602,0.017711,0.985047,2.526430,-1.244283,4.233126,-14.985944,-1.077684,0.002000,-0.379156,-0.459399
331.000000,0.002000,-0.026845,-0.195990,0.126720,-0.312802,-2.766333,1.308089,-2.958908,13.517114,-5.020308,0.002000,-0.539179,-0.063305
332.000000,0.002000,0.286323,0.617941,-0.272658,0.138772,-0.020342,-1.464537,-6.483446,-13.930594,5.570979,0.002000,-0.524908,0.539103
333.000000,0.002000,1.374069,0.201277,-0.035600,0.870157,0.473552,-1.915388,-6.799190,-0.641428,0.115009,0.002000,-0.156898,0.016690
334.000000,0.002000,0.253162,0.016725,1.039564,-1.356998,1.377404,-0.607118,-2.520576,0.482849,-9.385758,0.002000,-0.101191,-0.673713
335.000000,0.002000,0.168865,0.084496,0.088947,-0.896837,1.914154,3.109834,-14.229816,0.746664,-8.919224,0.002000,0.254055,-0.912872
336.000000,0.002000,0.467660,0.649806,0.170721,-0.223260,0.509401,-2.267421,-8.038262,-10.428272,-5.058935,0.002000,-0.253706,0.139676
337.000000,0.002000,0.281983,0.179671,0.588318,-0.312302,-2.329102,-0.265345,-6.489573,-2.924109,-12.277246,0.002000,-0.026845,-0.256513
338.000000,0.002000,-0.877724,0.806721,-2.839580,1.145022,1.192159,-1.012775,0.549765,-0.438378,1.788744,0.002000,0.286323,0.876199
339.000000,0.002000,0.305736,-0.303526,0.053284,2.581820,0.861697,-1.699646,-13.434962,13.949372,-3.582004,0.002000,1.374069,0.101256
340.000000,0.002000,-0.744489,1.580668,0.759383,-1.490018,-2.103822,-1.084284,1.650370,-3.683751,-1.782346,0.002000,0.253162,-1.897960
341.000000,0.002000,-0.398521,0.386826,-0.364487,0.043645,0.489546,-0.536522,10.365141,-9.055674,9.773461,0.002000,0.168865,0.887551
342.000000,0.002000,2.457247,-3.167025,0.629900,0.436858,-0.645274,-0.783985,-0.706591,0.912965,-0.179013,0.002000,0.467660,-0.113742
343.000000,0.002000,0.181581,-0.854430,0.129344,-2.554151,0.448120,1.654022,-2.248979,10.785041,-2.112612,0.002000,0.281983,0.061736
344.000000,0.002000,0.389767,0.438522,0.489779,0.273810,-0.924498,-0.012721,-7.785985,-6.135343,-9.519414,0.002000,-0.877724,0.034972
345.000000,0.002000,0.216366,0.189172,-0.109544,-4.384848,0.849345,-2.552206,-10.256081,-9.204546,6.683306,0.002000,0.305736,-0.952038
346.000000,0.002000,0.407853,-0.748314,0.867376,0.544688,3.685781,-0.647376,-3.078887,5.111535,-5.555440,0.002000,-0.744489,1.328879
347.000000,0.002000,0.307015,-0.931883,0.738947,0.137041,-2.841497,-1.634795,-1.381692,6.225410,-4.443679,0.002000,-0.398521,-0.094145
348.000000,0.002000,-0.055687,0.148499,-0.007879,-3.004758,-2.500888,1.304759,1.728366,-2.402603,-1.980035,0.002000,2.457247,0.264370
349.000000,0.002000,-0.783883,0.090625,-0.824174,0.277556,2.051400,-2.061009,6.926140,-0.331855,7.186128,0.002000,0.181581,-0.153922
350.000000,0.002000,-0.167251,-0.216708,0.443720,-3.394071,-2.576688,-1.183219,4.648299,9.398204,-15.014601,0.002000,0.389767,0.754602
351.000000,0.002000,0.170462,0.795012,-1.171185,1.267466,1.808204,-0.982597,-0.960170,-3.752315,5.621630,0.002000,0.216366,-0.195990
352.000000,0.002000,0.407364,2.409667,0.984312,-1.459385,-1.540637,1.465358,-0.435060,-2.329267,-1.042079,0.002000,0.407853,0.617941
353.000000,0.002000,-0.793251,1.405859,0.043944,-0.193863,3.301773,1.032418,2.533250,-5.233230,-0.553797,0.002000,0.307015,0.201277
354.000000,0.002000,-0.306649,-0.083106,0.217943,2.999175,1.392001,1.405855,14.630212,5.195331,-10.214002,0.002000,-0.055687,0.016725
355.000000,0.002000,-0.019149,0.168957,0.227896,-0.716951,0.006281,-0.382343,3.857096,-5.388505,-19.341656,0.002000,-0.783883,0.084496
356.000000,0.002000,-0.406047,-0.304971,-0.555100,-0.735196,-0.921114,0.225637,8.057177,7.787558,10.799266,0.002000,-0.167251,0.649806
357.000000,0.002000,-0.172015,-0.199834,0.242309,1.351317,4.016533,4.092233,7.125870,13.187490,-11.229360,0.002000,0.170462,0.179671
358.000000,0.002000,-0.440079,0.881313,0.815867,2.695882,-0.473531,1.679005,2.793711,-5.093462,-5.537977,0.002000,0.407364,0.806721
359.000000,0.002000,-0.457782,0.848769,0.171259,1.740760,1.206749,1.679672,6.305420,-10.052437,-2.763784,0.002000,-0.793251,-0.303526
360.000000,0.002000,2.113278,-0.621095,0.317077,1.513094,0.934016,-0.325460,-3.025140,0.972661,-0.510267,0.002000,-0.306649,1.580668
361.000000,0.002000,0.010860,-0.007953,0.270612,1.505712,-0.596412,-0.920956,-1.434814,2.256704,-16.455692,0.002000,-0.019149,0.386826
362.000000,0.002000,0.326255,0.119686,0.320569,-0.407308,-3.352401,0.009028,-12.265854,-2.730835,-13.364147,0.002000,-0.406047,-3.167025
363.000000,0.002000,-0.741608,0.905265,0.219082,-0.516352,0.434159,0.551385,5.561743,-6.785283,-1.807844,0.002000,-0.172015,-0.854430
364.000000,0.002000,-0.801154,0.919583,0.008100,1.136698,0.752296,0.833251,5.645012,-6.574442,-0.212064,0.002000,-0.440079,0.438522
365.000000,0.002000,1.596783,-0.132773,4.340025,0.489783,0.061311,0.619847,-0.314773,0.038640,-0.857513,0.002000,-0.457782,0.189172
366.000000,0.002000,0.151492,0.005624,0.204159,-0.019573,1.407564,-0.606810,-10.402636,5.096557,-13.626674,0.002000,2.113278,-0.748314
367.000000,0.002000,0.094834,0.142708,0.809569,-1.652908,-0.472927,-1.544946,-1.951160,-1.861942,-12.770399,0.002000,0.010860,-0.931883
368.000000,0.002000,0.415808,-1.322457,0.331607,-1.783643,-0.985319,2.240904,-2.041393,6.151327,-2.023484,0.002000,0.326255,0.148499
369.000000,0.002000,-0.158607,0.057304,0.303737,-2.349219,-2.175443,-1.372448,6.137788,-0.068645,-14.671389,0.002000,-0.741608,0.090625
370.000000,0.002000,-0.046847,-0.415651,0.197914,-0.583756,0.042303,-4.321056,0.852172,16.856539,-7.785892,0.002000,-0.801154,-0.216708
371.000000,0.002000,-0.697490,-0.814839,-0.758665,0.777510,-0.255915,0.377309,3.426731,4.736202,4.347870,0.002000,1.596783,0.795012
372.000000,0.002000,-1.587802,-1.029437,3.241513,-0.507646,-0.725435,1.129716,0.560837,0.401557,-1.157873,0.002000,0.151492,2.409667
373.000000,0.002000,0.106874,0.366957,0.784065,-3.673189,1.682644,1.698374,-2.119873,-4.399919,-11.833777,0.002000,0.094834,1.405859
374.000000,0.002000,0.171951,0.561184,1.453349,1.285607,-1.340981,-1.122237,-0.686432,-1.742077,-5.412549,0.002000,0.415808,-0.083106
375.000000,0.002000,-1.455913,1.523761,-0.473343,0.005594,1.647270,-1.270624,2.534948,-2.547124,0.857592,0.002000,-0.158607,0.168957
376.000000,0.002000,0.075726,0.061087,-0.021217,-1.458574,1.095089,-0.719949,-4.334701,-0.555309,0.904406,0.002000,-0.046847,-0.304971
377.000000,0.002000,-0.395066,0.835427,1.970482,-0.290697,-1.968855,-1.222787,0.593650,-1.261592,-3.184392,0.002000,-0.697490,-0.199834
378.000000,0.002000,-0.234660,0.115917,-2.097651,0.124746,-0.391670,-0.016757,0.428201,-0.105207,3.814977,0.002000,-1.587802,0.881313
379.000000,0.002000,-0.392185,0.003267,-0.053290,-0.599065,0.716580,1.083060,17.569132,3.259644,0.155852,0.002000,0.106874,0.848769
380.000000,0.002000,-0.473846,-0.388213,-0.316993,-0.035967,2.290477,-1.280150,9.590448,9.884607,6.710372,0.002000,0.171951,-0.621095
381.000000,0.002000,-3.340813,2.049633,0.629835,-0.391354,0.576789,-0.054051,1.054990,-0.638718,-0.200274,0.002000,-1.455913,-0.007953
382.000000,0.002000,-0.508748,-0.359631,0.255112,2.016458,-1.123002,0.943743,11.753551,8.856571,-4.083666,0.002000,0.075726,0.119686
383.000000,0.002000,-0.244374,-0.118594,0.248728,-0.728834,-0.679908,-2.086635,10.244864,6.301899,-11.423441,0.002000,-0.395066,0.905265
384.000000,0.002000,-0.116135,-0.390076,-0.820323,0.171627,0.230843,1.718026,1.325506,5.974810,10.481255,0.002000,-0.234660,0.919583
385.000000,0.002000,0.771441,-0.284502,-0.048739,1.339262,-0.771797,0.300454,-11.552184,5.358860,-0.051771,0.002000,-0.392185,-0.132773
386.000000,0.002000,0.228228,-0.950623,-0.237040,-0.266378,0.304007,0.728414,-1.205176,7.431554,1.145238,0.002000,-0.473846,0.005624
387.000000,0.002000,0.569397,4.270094,-1.482398,-0.281233,1.019570,-0.066458,-0.132268,-0.910140,0.321163,0.002000,-3.340813,0.142708
388.000000,0.002000,-0.087093,0.916733,-0.079379,-0.292887,1.458331,0.598317,0.733496,-10.961166,1.090195,0.002000,-0.508748,-1.322457
389.000000,0.002000,1.310838,-0.902971,0.405780,0.007640,-1.039336,-1.816732,-3.975785,2.861159,-1.322182,0.002000,-0.244374,0.057304
390.000000,0.002000,0.027185,0.316902,-0.059193,0.591759,1.971206,4.148242,-4.220604,-12.973230,1.826384,0.002000,-0.116135,-0.415651
391.000000,0.002000,-0.041468,0.562862,0.426192,0.478519,-2.164772,-2.109177,0.082021,-10.435784,-12.162573,0.002000,0.771441,-0.814839
392.000000,0.002000,0.295317,-0.424144,0.016971,-2.373726,-1.586610,0.038506,-8.946053,13.442840,-1.296866,0.002000,0.228228,-1.029437
393.000000,0.002000,-0.417085,0.148738,-0.828955,-1.063110,-0.877514,1.342006,4.907549,-0.985141,10.999981,0.002000,0.569397,0.366957
394.000000,0.002000,-0.222210,-0.599450,0.058528,-2.720817,-0.813387,0.809756,4.706871,15.443086,-1.463502,0.002000,-0.087093,0.561184
395.000000,0.002000,-0.003266,0.614482,0.319051,0.161197,3.007499,2.680140,3.373857,-13.308721,-6.105195,0.002000,1.310838,1.523761
396.000000,0.002000,0.088983,-0.030164,-0.274613,0.470234,-2.164059,-0.860134,-7.155496,6.367065,14.519232,0.002000,0.027185,0.061087
397.000000,0.002000,0.559979,0.494502,0.125562,-0.669563,-1.811912,-1.213263,-12.115620,-7.940252,-3.643745,0.002000,-0.041468,0.835427
398.000000,0.002000,1.808290,0.548040,-0.090239,-1.029150,0.029960,-0.175284,-4.259077,-1.010426,0.185330,0.002000,0.295317,0.115917
399.000000,0.002000,2.050395,1.476838,0.043593,-0.431025,-1.046409,-0.422337,-2.194907,-1.549480,-0.078488,0.002000,-0.417085,0.003267
400.000000,0.002000,-1.286295,1.402976,-1.520800,0.479288,1.713826,-0.461978,1.534342,-1.647870,1.900152,0.002000,-0.222210,-0.388213
401.000000,0.002000,-2.437952,2.774224,-0.108343,0.511334,-0.092994,-0.319079,0.954064,-1.062678,0.034551,0.002000,-0.003266,2.049633
402.000000,0.002000,0.515598,-0.932607,0.298637,-0.380532,-0.414189,1.589795,-4.239961,7.014264,-2.307442,0.002000,0.088983,-0.359631
403.000000,0.002000,2.250895,-0.303919,0.092769,0.837562,0.505937,-0.936249,-3.148557,0.440656,-0.192187,0.002000,0.559979,-0.118594
404.000000,0.002000,0.474519,0.333810,-0.686958,-2.623874,-1.544171,1.362270,-7.103862,-3.748026,9.576156,0.002000,1.808290,-0.390076
405.000000,0.002000,0.048367,0.074112,-0.373779,-1.965751,-0.531534,-2.151666,-4.038848,1.072636,15.468014,0.002000,2.050395,-0.284502
406.000000,0.002000,0.108058,-0.139114,0.247289,-0.344514,0.917381,0.632702,-8.199963,8.279053,-14.302736,0.002000,-1.286295,-0.950623
407.000000,0.002000,0.017733,-0.100523,-0.257383,1.186458,1.725491,2.613718,0.040188,7.440221,12.713256,0.002000,-2.437952,4.270094
408.000000,0.002000,0.784349,0.012844,0.481700,1.600684,-1.394099,1.243348,-9.539069,0.826398,-5.988298,0.002000,0.515598,0.916733
409.000000,0.002000,0.347118,0.152162,-0.150836,-0.427735,-1.143712,-0.051143,-16.998058,-3.653499,6.596932,0.002000,2.250895,-0.902971
410.000000,0.002000,-0.760816,-1.592553,-0.054452,-0.118817,-0.803952,1.316168,1.934616,4.552339,0.108234,0.002000,0.474519,0.316902
411.000000,0.002000,-0.095387,0.145079,0.504423,-4.333491,-2.612395,1.099862,2.790892,-2.924808,-16.294388,0.002000,0.048367,0.562862
412.000000,0.002000,-1.205088,3.603902,1.330731,-0.905766,0.803956,0.824223,0.365419,-1.090458,-0.418755,0.002000,0.108058,-0.424144
413.000000,0.002000,-0.502450,0.121398,-0.284488,0.122342,-1.161161,-2.513858,15.718148,-4.176783,10.321714,0.002000,0.017733,0.148738
414.000000,0.002000,2.129049,-2.067374,0.821515,1.243421,0.346667,0.906775,-1.359362,1.290100,-0.451582,0.002000,0.784349,-0.599450
415.000000,0.002000,-0.634109,-0.615155,-0.314808,0.369292,2.451987,-0.611266,6.900235,9.446645,3.614445,0.002000,0.347118,0.614482
416.000000,0.002000,0.302054,-0.162215,0.643594,-0.380830,-2.077671,1.840787,-5.787127,3.958214,-11.298629,0.002000,-0.760816,-0.030164
417.000000,0.002000,0.160766,-0.397617,0.912822,0.515618,-3.110774,3.051938,-1.953698,4.275958,-8.640273,0.002000,-0.095387,0.494502
418.000000,0.002000,0.518954,0.861726,-0.695487,-0.556078,-0.992423,0.032976,-4.009617,-5.550902,5.175598,0.002000,-1.205088,0.548040
419.000000,0.002000,1.556136,1.245999,-3.874703,-0.999390,-1.384495,0.405655,-0.370313,-0.290019,0.942353,0.002000,-0.502450,1.476838
420.000000,0.002000,0.118297,0.081070,0.117730,-1.639889,4.551666,4.249628,-8.746121,-2.144860,-7.536171,0.002000,2.129049,1.402976
421.000000,0.002000,-0.041635,-0.206702,0.197738,1.300154,-1.087384,2.472538,-2.383783,12.531330,-13.094655,0.002000,-0.634109,2.774224
422.000000,0.002000,-0.678578,-1.934060,1.352639,-0.075779,-1.165805,0.725426,0.652340,2.192750,-1.458355,0.002000,0.302054,-0.932607
423.000000,0.002000,-1.836804,-5.223289,4.403015,-0.107517,0.483265,-0.349189,0.100544,0.291441,-0.243889,0.002000,0.160766,-0.303919
424.000000,0.002000,-2.316979,2.100325,-2.020064,-0.026669,0.816825,0.327762,0.877987,-0.777551,0.757911,0.002000,0.518954,0.333810
425.000000,0.002000,0.749397,-0.435593,-0.752261,-0.406470,0.020925,-2.069478,-5.695879,3.529822,5.431439,0.002000,1.556136,0.074112
426.000000,0.002000,0.568183,-0.812302,-0.710160,-0.422954,-0.064754,-1.984630,-3.988070,5.674127,4.329902,0.002000,0.118297,-0.139114
427.000000,0.002000,-0.108802,1.171029,0.340892,2.593192,-1.938782,0.042355,1.303614,-8.756838,-3.000578,0.002000,-0.041635,-0.100523
428.000000,0.002000,0.335638,-0.437728,0.370338,-1.377445,1.442429,2.108768,-10.130740,6.966358,-10.244182,0.002000,-0.678578,0.012844
429.000000,0.002000,0.676813,-0.561651,-0.051646,-0.985673,-1.414818,0.810384,-8.850176,7.378954,0.229377,0.002000,-1.836804,0.152162
430.000000,0.002000,0.208503,0.013311,-0.467238,1.567610,-1.801771,5.270223,-7.838105,0.930029,14.850394,0.002000,-2.316979,-1.592553
431.000000,0.002000,-0.134916,0.972400,0.106133,-1.717292,1.001700,1.433780,1.552839,-11.358354,-0.995806,0.002000,0.749397,0.145079
432.000000,0.002000,-1.138519,0.874551,-0.217503,1.522682,-0.145596,-0.074504,5.715679,-3.783128,0.863495,0.002000,0.568183,3.603902
433.000000,0.002000,-0.428714,-0.071171,-0.302660,-0.138022,-1.342752,0.986436,16.527341,4.770011,10.262343,0.002000,-0.108802,0.121398
434.000000,0.002000,-2.823377,0.011867,1.087364,0.381107,1.799968,1.270802,1.805785,-0.199711,-0.726863,0.002000,0.335638,-2.067374
435.000000,0.002000,0.022827,-0.393478,-0.489347,-1.301796,-2.520535,2.479079,-1.257628,12.858465,10.887819,0.002000,0.676813,-0.615155
436.000000,0.002000,0.177642,-0.571960,0.848411,2.558544,0.393469,1.006402,-1.839233,5.543910,-7.419282,0.002000,0.208503,-0.162215
437.000000,0.002000,-0.094749,0.162233,-0.112327,-4.115403,-2.433044,1.167286,6.348595,-0.399677,7.993973,0.002000,-0.134916,-0.397617
438.000000,0.002000,-0.012485,0.254138,-0.359622,-0.609136,1.831289,-2.505747,-0.985936,-10.485357,13.056549,0.002000,-1.138519,0.861726
439.000000,0.002000,-0.263291,-0.175356,-0.564022,-0.933748,2.566999,0.566130,6.605395,7.824015,15.590035,0.002000,-0.428714,1.245999
440.000000,0.002000,0.245736,0.148021,0.050720,-0.433379,0.044110,4.262855,-16.205808,-5.804623,-11.354784,0.002000,-2.823377,0.081070
441.000000,0.002000,-0.404702,0.270808,-0.650715,-0.942414,-2.831223,0.541680,7.108021,-4.042650,10.609953,0.002000,0.022827,-0.206702
442.000000,0.002000,-0.421162,-0.141568,0.354611,1.624049,-0.335157,-2.655222,14.644639,5.849615,-9.011665,0.002000,0.177642,-1.934060
443.000000,0.002000,-0.409873,-0.575494,-0.933457,-0.511809,-2.487814,-1.367401,1.894481,4.768958,6.139519,0.002000,-0.094749,-5.223289
444.000000,0.002000,-0.016820,-0.462124,0.376988,0.793429,-0.398660,-0.583217,0.797082,12.394227,-10.808987,0.002000,-0.012485,2.100325
445.000000,0.002000,-0.145575,-0.041742,0.050490,-1.518472,-0.914476,-3.972798,7.187569,5.747776,-2.871778,0.002000,-0.263291,-0.435593
446.000000,0.002000,-0.710776,-0.928897,-0.119309,-1.870555,-2.847395,0.520512,4.503707,6.733630,1.091899,0.002000,0.245736,-0.812302
447.000000,0.002000,-0.595280,0.721522,0.679259,-0.440087,-0.016517,0.336521,4.138952,-4.362750,-5.593393,0.002000,-0.404702,1.171029
448.000000,0.002000,0.164882,-0.239903,1.125495,1.856855,-0.808015,-2.157827,-1.544838,2.064127,-8.387968,0.002000,-0.421162,-0.437728
449.000000,0.002000,0.378298,-0.022591,0.027958,1.059742,-0.966476,0.397096,-18.011544,6.890663,-1.250837,0.002000,-0.409873,-0.561651
450.000000,0.002000,0.436212,-0.228757,-1.094143,-1.186011,0.882111,1.154448,-6.928094,4.491549,6.672709,0.002000,-0.016820,0.013311
451.000000,0.002000,-1.484169,-4.961176,3.547834,-0.689220,0.902840,0.722026,0.113029,0.391265,-0.276804,0.002000,-0.145575,0.972400
452.000000,0.002000,0.681483,-0.044902,-0.262346,-1.549876,-5.216212,-0.736848,-12.430566,2.576221,3.412784,0.002000,-0.710776,0.874551
453.000000,0.002000,-0.093720,-0.006777,-2.664778,-0.744940,0.245273,-0.657140,0.016014,0.071178,2.502443,0.002000,-0.595280,-0.071171
454.000000,0.002000,-0.693642,-0.164972,0.490944,-1.124108,0.912793,1.157629,9.917820,3.204738,-6.753374,0.002000,0.164882,0.011867
455.000000,0.002000,-0.351003,0.127431,-0.248366,-0.599035,5.270067,-1.817945,14.125933,-4.824467,10.859759,0.002000,0.378298,-0.393478
456.000000,0.002000,-0.176134,0.098775,0.077944,0.059079,-2.162468,2.141422,8.933641,-7.712459,-3.963707,0.002000,0.436212,-0.571960
457.000000,0.002000,0.167204,1.608311,-2.018246,-0.220157,-0.439394,0.089197,-0.212671,-1.575889,2.093269,0.002000,-1.484169,0.162233
458.000000,0.002000,0.103744,0.586229,0.304998,-0.344919,2.868481,-2.225880,-4.477063,-12.524130,-8.270216,0.002000,0.681483,0.254138
459.000000,0.002000,-0.288717,0.568661,-0.814415,2.538337,-1.237694,-1.821737,2.082527,-4.827008,8.607709,0.002000,-0.093720,-0.175356
460.000000,0.002000,0.192485,0.031967,-0.001558,0.127096,3.195929,-0.335222,-14.648886,3.596720,-1.433415,0.002000,-0.693642,0.148021
461.000000,0.002000,-0.948401,0.045177,-0.374795,-1.837761,0.699452,2.160846,10.793858,1.302675,3.915355,0.002000,-0.351003,0.270808
462.000000,0.002000,-0.637463,0.729207,0.850194,0.159070,0.868377,2.137039,3.595097,-3.998671,-5.569128,0.002000,-0.176134,-0.141568
463.000000,0.002000,0.431468,-0.419735,0.368119,0.735350,-2.276080,-0.275488,-8.805725,7.093695,-7.755506,0.002000,0.167204,-0.575494
464.000000,0.002000,-0.574421,0.240972,-0.189177,2.654812,2.405130,-1.475338,15.519672,-5.014839,2.949863,0.002000,0.103744,-0.462124
465.000000,0.002000,-0.027992,0.288773,-0.438782,0.141523,3.702940,4.147519,-0.567567,-7.610823,13.038376,0.002000,-0.288717,-0.041742
466.000000,0.002000,1.664935,-1.527647,-0.413482,-1.480275,0.751360,-1.519640,-2.089764,1.981939,0.529101,0.002000,0.192485,-0.928897
467.000000,0.002000,-0.318116,0.579362,-0.025468,-0.770753,1.507004,-0.048735,7.785968,-14.062403,0.513747,0.002000,-0.948401,0.721522
468.000000,0.002000,0.398861,1.947593,-3.213570,-0.719652,0.333412,-0.357642,-0.207249,-0.623548,1.103037,0.002000,-0.637463,-0.239903
469.000000,0.002000,0.193124,-0.154083,-0.190282,-0.820497,1.522286,-1.580711,-16.734823,6.731812,1.968907,0.002000,0.431468,-0.022591
470.000000,0.002000,-0.304565,-3.493982,0.322186,-1.088920,-1.228766,0.163582,0.098019,1.440646,-0.130985,0.002000,-0.574421,-0.228757
471.000000,0.002000,-0.935127,0.127102,1.441557,-0.076340,1.132123,0.230363,2.690973,-0.152877,-4.165639,0.002000,-0.027992,-4.961176
472.000000,0.002000,-1.233212,1.588033,-0.563863,0.416822,-2.071666,-1.512990,1.228758,-4.063004,2.169517,0.002000,1.664935,-0.044902
473.000000,0.002000,-11.482064,1.424009,9.180425,-1.497955,-0.292940,0.643195,0.071215,-0.008754,-0.057209,0.002000,-0.318116,-0.006777
474.000000,0.002000,-0.667921,-0.534281,-0.523572,0.484875,1.250684,-2.517073,6.636678,5.790432,4.738736,0.002000,0.398861,-0.164972
475.000000,0.002000,0.170250,0.273706,0.223336,3.890763,-2.285422,-0.963328,-11.479736,-8.387542,-12.537691,0.002000,0.193124,0.127431
476.000000,0.002000,0.233027,-1.218368,0.270901,1.117112,-1.920012,2.082246,-1.290252,6.993092,-1.524440,0.002000,-0.304565,0.098775
477.000000,0.002000,-0.402821,-0.225643,-0.210785,1.012740,-0.408114,-4.060633,13.697696,11.434117,6.445199,0.002000,-0.935127,1.608311
478.000000,0.002000,-0.047181,4.450354,-1.939900,-0.395862,-1.291512,0.590287,0.009164,-0.785944,0.349772,0.002000,-1.233212,0.586229
479.000000,0.002000,0.341088,0.186873,0.789811,-1.321487,2.002611,-0.042901,-5.827187,-1.949677,-10.720131,0.002000,-11.482064,0.568661
480.000000,0.002000,-0.217546,2.136004,1.666477,0.675700,0.580386,-0.406495,0.161769,-1.820877,-1.468796,0.002000,-0.667921,0.031967
481.000000,0.002000,0.365232,-1.142322,1.370763,1.440553,0.483806,-0.047235,-0.930869,2.810069,-3.155005,0.002000,0.170250,0.045177
482.000000,0.002000,-0.047011,1.292281,-0.650684,0.938562,2.830392,0.293877,0.129201,-6.136339,2.974647,0.002000,0.233027,0.729207
483.000000,0.002000,12.682573,-4.671559,-2.347509,1.038498,-0.394781,-0.114452,-0.097540,0.036433,0.018150,0.002000,-0.402821,-0.419735
484.000000,0.002000,-0.068104,0.371709,-0.035208,-1.885077,1.737625,-3.128554,-0.703679,-16.949475,2.460057,0.002000,-0.047181,0.240972
485.000000,0.002000,0.075385,-0.613384,-0.034030,0.957772,-0.026756,0.013131,-2.217821,15.397965,-0.605340,0.002000,0.341088,0.288773
486.000000,0.002000,-0.187412,-0.275860,-0.929673,2.540684,2.184189,-2.284076,1.876015,3.759086,10.540190,0.002000,-0.217546,-1.527647
487.000000,0.002000,1.908509,3.206736,-1.318853,-0.039641,0.763680,0.744835,-0.607725,-1.005052,0.422106,0.002000,0.365232,0.579362
488.000000,0.002000,-0.079248,-0.263320,-1.912962,-1.418455,0.435012,-2.113299,0.095640,0.855510,4.265400,0.002000,-0.047011,1.947593
489.000000,0.002000,0.142038,0.211667,0.717772,-0.267451,2.808655,1.918531,-2.309623,-3.116119,-13.877983,0.002000,12.682573,-0.154083
490.000000,0.002000,1.170528,0.362475,0.078600,-2.215989,0.296012,-1.561069,-7.662287,-1.843494,-1.119967,0.002000,-0.068104,-3.493982
491.000000,0.002000,-0.171074,0.025031,-0.453803,1.303033,-1.040032,-0.390585,5.409651,0.676542,16.475022,0.002000,0.075385,0.127102
492.000000,0.002000,0.314337,0.115478,-0.145831,2.238907,0.904950,1.422993,-16.485386,-2.720374,7.334977,0.002000,-0.187412,1.588033
493.000000,0.002000,0.431109,0.382844,0.936565,1.220191,-0.370667,-2.038795,-3.926556,-2.662483,-8.098520,0.002000,1.908509,1.424009
494.000000,0.002000,-0.255363,0.189979,0.122890,1.088610,-1.294295,0.921026,10.947167,-4.117229,-12.433480,0.002000,-0.079248,-0.534281
495.000000,0.002000,0.244962,0.087203,-0.267163,-2.942670,0.421642,0.142523,-10.399069,-2.336528,12.945405,0.002000,0.142038,0.273706
496.000000,0.002000,-1.378420,1.309754,1.828073,-0.143453,-1.105159,-0.854225,1.377943,-1.092124,-2.022473,0.002000,1.170528,-1.218368
497.000000,0.002000,-1.304152,-13.734935,-5.360919,-0.673732,-1.033381,-0.208948,0.007911,0.084194,0.032649,0.002000,-0.171074,-0.225643
498.000000,0.002000,0.688595,0.079776,-0.376418,-0.936916,1.428604,-0.311811,-13.679239,-0.433143,5.780118,0.002000,0.314337,4.450354
499.000000,0.002000,0.501129,1.132742,-1.067221,0.922036,-2.152627,1.482566,-1.908040,-3.784102,3.832643,0.002000,0.431109,0.186873
500.000000,0.002000,-0.247273,-0.461518,-0.174183,-0.635988,3.064058,-1.567828,8.414611,15.964831,7.361693,0.002000,-0.255363,2.136004
501.000000,0.002000,-0.016556,0.200451,0.270919,-1.565197,-0.576027,-1.469586,-0.703028,-7.608913,-16.924550,0.002000,0.244962,-1.142322
502.000000,0.002000,0.163176,0.498830,-0.264427,-4.173726,-0.741294,-0.868716,-4.235299,-13.002604,8.946150,0.002000,-1.378420,1.292281
503.000000,0.002000,-0.087308,0.348051,-0.723549,-0.176759,2.727071,0.487256,1.617939,-5.200933,13.715468,0.002000,-1.304152,-4.671559
504.000000,0.002000,-0.295879,0.622207,-0.826238,-2.077425,-1.360832,1.730678,2.029257,-6.571872,9.132283,0.002000,0.688595,0.371709
505.000000,0.002000,0.391067,-0.032314,-1.439081,-0.097197,0.401307,1.181384,-1.742524,0.388251,5.869476,0.002000,0.501129,-0.613384
506.000000,0.002000,-0.490995,-0.493661,0.041025,-1.029721,-1.056134,1.497127,9.851098,9.959234,-1.744637,0.002000,-0.247273,-0.275860
507.000000,0.002000,-1.357396,0.443095,-0.040093,0.149055,-0.051993,-1.937904,6.630658,-1.807722,0.082907,0.002000,-0.016556,3.206736
508.000000,0.002000,-0.887149,0.439766,1.714303,0.130249,0.361003,-2.173659,1.770964,-0.723348,-3.515113,0.002000,0.163176,-0.263320
509.000000,0.002000,0.908782,-1.845032,1.087557,-0.765673,0.709250,-1.037186,-1.098614,2.288148,-1.336482,0.002000,-0.087308,0.211667
510.000000,0.002000,0.015089,3.236639,-3.179956,-0.304235,0.689178,-0.059071,0.008837,-0.689951,0.695701,0.002000,-0.295879,0.362475
511.000000,0.002000,5.481370,-2.640116,4.786907,-0.354840,0.673995,0.716312,-0.231300,0.113371,-0.204661,0.002000,0.391067,0.025031
512.000000,0.002000,-0.166750,0.226441,0.695223,2.630636,-0.275377,0.525321,4.978593,-1.797752,-14.363610,0.002000,-0.490995,0.115478
513.000000,0.002000,1.841054,0.953336,-3.634956,-0.533292,-0.089133,-0.932489,-0.507072,-0.237493,0.982501,0.002000,-1.357396,0.382844
514.000000,0.002000,-0.334975,1.230934,-0.623972,1.107806,1.314043,-1.444824,1.466478,-6.268239,3.010325,0.002000,-0.887149,0.189979
515.000000,0.002000,-0.059485,-0.333423,-1.128701,-0.319289,2.041885,3.426758,0.423087,2.775250,8.164941,0.002000,0.908782,0.087203
516.000000,0.002000,0.068833,0.298461,-0.309535,1.481524,1.526042,0.250241,-3.055243,-9.467861,11.359028,0.002000,0.015089,1.309754
517.000000,0.002000,0.177530,-0.496448,0.024517,-0.895434,1.570565,2.000446,-5.688700,15.169682,-1.947894,0.002000,5.481370,-13.734935
518.000000,0.002000,-0.110289,0.351631,-0.189917,-0.140562,1.272693,1.500044,2.324180,-17.250749,8.554666,0.002000,-0.166750,0.079776
519.000000,0.002000,-0.057065,-0.734499,-0.349669,-0.189112,-0.050471,-0.316812,0.156750,11.969762,4.753527,0.002000,1.841054,1.132742
520.000000,0.002000,-0.218516,0.267400,-0.060423,-3.473924,-2.522892,1.529106,9.618739,-12.571975,0.123640,0.002000,-0.334975,-0.461518
521.000000,0.002000,-0.186702,-0.892539,-0.414437,1.893653,-0.528348,-1.249819,1.545778,9.534018,3.968732,0.002000,-0.059485,0.200451
522.000000,0.002000,0.180532,-0.197886,-0.061067,2.896746,0.062846,1.794795,-11.774000,12.201087,-0.274269,0.002000,0.068833,0.498830
523.000000,0.002000,0.636535,-0.170405,0.042313,-2.063743,1.374957,2.248534,-13.938280,4.962027,-1.280500,0.002000,0.177530,0.348051
524.000000,0.002000,1.000653,1.186627,-0.211470,-1.723409,-1.908092,0.354478,-4.051925,-4.510257,0.728753,0.002000,-0.110289,0.622207
525.000000,0.002000,0.211454,0.370209,-1.994127,0.633775,0.652988,-0.762224,-0.446934,-0.653482,3.800509,0.002000,-0.057065,-0.032314
526.000000,0.002000,-0.052437,-0.277588,0.106108,2.349158,2.611399,-0.668713,0.072735,17.067497,-5.598737,0.002000,-0.218516,-0.493661
527.000000,0.002000,-0.320688,-0.159132,0.189048,1.790609,1.469547,1.714606,13.745941,8.845406,-7.181446,0.002000,-0.186702,0.443095
528.000000,0.002000,1.371884,-0.429414,0.026040,-0.810660,1.187065,-3.322326,-5.808116,2.047137,-0.085884,0.002000,0.180532,0.439766
529.000000,0.002000,-0.436923,0.390843,0.067323,-2.017689,-1.114310,2.291464,12.893133,-10.545596,-1.952979,0.002000,0.636535,-1.845032
530.000000,0.002000,-2.420771,-0.174710,-0.240305,-2.059214,-1.779342,-0.794517,2.850277,0.190972,0.289702,0.002000,1.000653,3.236639
531.000000,0.002000,1.439596,0.272316,1.129273,-1.370234,-0.076904,-0.051084,-3.365335,-0.331516,-2.609564,0.002000,0.211454,-2.640116
532.000000,0.002000,-1.035650,0.643488,0.784762,2.584386,1.061350,1.178731,4.604257,-2.782014,-4.025611,0.002000,-0.052437,0.226441
533.000000,0.002000,-0.268908,0.825096,-0.749817,-3.406379,1.322243,0.180912,1.784610,-6.691075,6.691799,0.002000,-0.320688,0.953336
534.000000,0.002000,-0.048700,0.247492,-0.126075,2.402000,1.357161,1.137605,0.757066,-11.710845,10.791107,0.002000,1.371884,1.230934
535.000000,0.002000,1.209531,2.048077,0.147089,0.983874,1.782020,-0.067105,-1.573622,-2.615092,-0.240707,0.002000,-0.436923,-0.333423
536.000000,0.002000,-1.522600,-0.986709,-0.997086,1.447646,1.182713,0.914036,2.714415,1.812553,1.686405,0.002000,-2.420771,0.298461
537.000000,0.002000,-0.253626,-0.797911,0.332215,-1.616579,-2.251027,-1.436724,2.709346,10.503303,-4.321464,0.002000,1.439596,-0.496448
538.000000,0.002000,-0.252205,-1.402966,0.675588,-0.136663,2.798531,-0.837202,0.679616,4.799573,-2.240874,0.002000,-1.035650,0.351631
539.000000,0.002000,1.083048,0.592423,-1.493131,0.086835,0.506784,1.947709,-2.337837,-1.108072,3.190796,0.002000,-0.268908,-0.734499
540.000000,0.002000,0.078832,0.426534,0.060636,-3.965343,1.032166,-0.696770,-1.298854,-16.928734,-3.712804,0.002000,-0.048700,0.267400
541.000000,0.002000,0.871083,-0.807816,-0.914935,1.687521,-1.216128,-1.143031,-3.346491,3.342992,3.400458,0.002000,1.209531,-0.892539
542.000000,0.002000,-0.607792,0.028686,0.321714,-2.506633,-0.017377,-3.683162,13.986250,2.567230,-7.430994,0.002000,-1.522600,-0.197886
543.000000,0.002000,0.009468,-0.151508,0.390470,1.440614,-1.261135,3.578895,-1.126144,9.988806,-15.247944,0.002000,-0.253626,-0.170405
544.000000,0.002000,-0.422499,-0.222336,0.195119,0.265878,-2.669162,0.846020,13.562974,10.016753,-5.798406,0.002000,-0.252205,1.186627
545.000000,0.002000,-0.667196,-1.144669,0.160940,-0.379428,-2.860049,-0.367028,3.522305,6.087525,-2.287442,0.002000,1.083048,0.370209
546.000000,0.002000,-0.102563,0.136467,-0.359861,3.006674,1.121834,0.427855,4.824957,-4.859878,13.300589,0.002000,0.078832,-0.277588
547.000000,0.002000,-0.307361,-0.501739,0.001442,1.169909,-0.400566,0.651138,7.330109,14.386441,-1.413041,0.002000,0.871083,-0.159132
548.000000,0.002000,1.017755,0.252228,-0.269962,-3.460152,-1.851894,0.406499,-9.424670,-1.226786,2.494598,0.002000,-0.607792,-0.429414
549.000000,0.002000,-0.436200,1.152941,-0.690298,3.707244,-0.110522,-0.149528,2.233163,-5.922275,3.601540,0.002000,0.009468,0.390843
550.000000,0.002000,-0.671195,0.025528,-0.800530,0.664089,1.430044,1.408849,6.886052,0.520803,8.829256,0.002000,-0.422499,-0.174710
551.000000,0.002000,1.086678,1.343484,2.280601,0.796908,-0.042034,-1.348805,-0.828948,-1.051326,-1.749657,0.002000,-0.667196,0.272316
552.000000,0.002000,-0.633681,0.443736,-0.680445,1.252516,-0.800960,-0.978838,7.183775,-4.273207,7.227353,0.002000,-0.102563,0.643488
553.000000,0.002000,0.530218,-0.281987,-0.783869,0.522292,-0.693579,4.317788,-6.201809,3.900825,8.197664,0.002000,-0.307361,0.825096
554.000000,0.002000,0.102275,-0.029111,-0.125054,-1.185751,0.893723,0.183674,-5.673679,7.671621,2.576615,0.002000,1.017755,0.247492
555.000000,0.002000,-0.620508,0.771991,0.340499,-1.722233,-0.186425,0.082461,6.728637,-7.825067,-4.027864,0.002000,-0.436200,2.048077
556.000000,0.002000,-0.012587,0.176966,-0.701141,-0.322530,1.021644,-0.041019,0.111749,-2.241092,15.893079,0.002000,-0.671195,-0.986709
557.000000,0.002000,0.690004,0.048390,0.065566,-0.423820,0.367765,1.929311,-14.318611,0.480718,-1.997450,0.002000,1.086678,-0.797911
558.000000,0.002000,-0.390186,-0.686449,-0.831588,-2.497724,0.754229,-2.889559,2.790748,5.796505,6.086472,0.002000,-0.633681,-1.402966
559.000000,0.002000,-1.220095,-0.743324,-0.109238,-1.251907,0.871649,-2.709629,5.476126,3.391363,0.450452,0.002000,0.530218,0.592423
560.000000,0.002000,0.105614,1.639343,-1.431559,-0.054969,0.733832,2.423907,-0.191923,-2.626219,2.358363,0.002000,0.102275,0.426534
561.000000,0.002000,-0.004355,-0.355282,-0.100925,1.096508,2.757704,-1.920062,-0.856504,18.430303,1.887789,0.002000,-0.620508,-0.807816
562.000000,0.002000,-2.058072,-0.363564,0.071516,-1.487879,2.431335,-0.017938,3.449068,0.756901,-0.046631,0.002000,-0.012587,0.028686
563.000000,0.002000,-1.688503,0.579252,2.011942,-0.232137,0.484337,-0.979725,1.529134,-0.444679,-1.848697,0.002000,0.690004,-0.151508
564.000000,0.002000,-1.421448,1.741075,-1.197692,1.129376,0.639076,-0.992552,1.678781,-1.946991,1.352012,0.002000,-0.390186,-0.222336
565.000000,0.002000,-2.004461,-0.866166,-0.345789,-2.713141,0.131023,0.426314,2.993285,1.514775,0.553197,0.002000,-1.220095,-1.144669
566.000000,0.002000,-0.901379,-0.250374,1.284791,0.027653,1.135989,-1.354677,2.959056,1.136522,-4.517336,0.002000,0.105614,0.136467
567.000000,0.002000,0.884070,0.795362,-0.965237,0.865015,2.049479,-2.519782,-3.477193,-3.019758,4.169967,0.002000,-0.004355,-0.501739
568.000000,0.002000,-0.085993,-0.154899,-0.443787,0.469696,0.157308,-0.035457,-0.153515,4.487701,14.128570,0.002000,-2.058072,0.252228
569.000000,0.002000,-0.342753,1.205929,1.322420,0.892425,-1.639581,0.995621,1.061606,-3.211413,-3.526156,0.002000,-1.688503,1.152941
570.000000,0.002000,-4.163044,-0.011331,-2.355965,-0.582540,-0.457670,-0.030572,0.751124,0.011890,0.427264,0.002000,-1.421448,0.025528
571.000000,0.002000,0.055706,-0.383125,-0.562572,1.882274,2.133657,-1.253806,-1.742271,10.470568,13.543339,0.002000,-2.004461,1.343484
572.000000,0.002000,-2.530566,0.299781,-0.136753,0.322254,0.810689,0.849448,2.668622,-0.255475,0.129881,0.002000,-0.901379,0.443736
573.000000,0.002000,-0.002874,0.365211,-0.090500,-0.160148,-2.410233,0.672710,-0.842220,-19.016438,5.621245,0.002000,0.884070,-0.281987
574.000000,0.002000,-0.703272,0.310389,0.390090,3.285918,0.385903,2.616125,11.529480,-4.383113,-6.345114,0.002000,-0.085993,-0.029111
575.000000,0.002000,-2.019115,0.276139,0.427148,2.428739,0.882219,-0.450757,3.687032,-0.448531,-0.865512,0.002000,-0.342753,0.771991
576.000000,0.002000,0.421129,-0.235600,0.544393,-0.984616,-1.751877,0.812223,-8.908533,4.518999,-10.381284,0.002000,-4.163044,0.176966
577.000000,0.002000,0.182781,0.276788,0.623860,-2.562834,-0.153221,-0.522169,-4.639389,-4.630172,-12.327690,0.002000,0.055706,0.048390
578.000000,0.002000,0.646818,1.678428,3.440881,0.441500,0.443251,-1.273923,-0.205127,-0.535380,-1.129477,0.002000,-2.530566,-0.686449
579.000000,0.002000,0.079177,0.752736,-0.189467,-0.719896,-4.446847,-1.969744,-2.048004,-13.417863,3.353062,0.002000,-0.002874,-0.743324
580.000000,0.002000,-0.501544,0.315150,-1.297491,0.778799,-1.068999,-0.634550,2.429062,-1.246435,6.456934,0.002000,-0.703272,1.639343
581.000000,0.002000,-0.188107,-0.475996,0.211634,-2.187077,2.306808,0.554066,4.539847,14.063001,-6.854214,0.002000,-2.019115,-0.355282
582.000000,0.002000,2.667106,-2.860423,-0.797755,0.177119,0.227647,0.560425,-0.790371,0.891522,0.220712,0.002000,0.421129,-0.363564
583.000000,0.002000,-0.217083,-1.189938,-2.606542,-1.839088,-1.851501,1.051584,0.130840,0.928482,1.941709,0.002000,0.182781,0.579252
584.000000,0.002000,-0.158460,0.090487,-0.194087,-2.425159,3.504388,1.071250,4.914520,-1.646326,10.292509,0.002000,0.646818,1.741075
585.000000,0.002000,1.504127,0.607434,-0.883576,-2.356538,0.606433,0.316071,-3.626659,-1.235957,2.135741,0.002000,0.079177,-0.866166
586.000000,0.002000,-0.279484,0.167570,-0.012460,3.294036,1.076502,-0.690046,12.421829,-1.863076,4.453407,0.002000,-0.501544,-0.250374
587.000000,0.002000,1.846949,-1.127336,0.853377,0.905348,-1.518412,1.160718,-2.282109,1.577874,-1.044710,0.002000,-0.188107,0.795362
588.000000,0.002000,0.026964,0.173519,0.257038,0.329244,5.611492,0.610162,-3.964729,-5.388038,-17.179880,0.002000,2.667106,-0.154899
589.000000,0.002000,0.395763,-1.012491,0.353841,0.985626,-0.231161,2.282416,-2.916750,7.696783,-2.833652,0.002000,-0.217083,1.205929
590.000000,0.002000,0.570108,1.957863,-1.018296,0.642750,-1.304866,1.954127,-0.817660,-2.706818,1.476083,0.002000,-0.158460,-0.011331
591.000000,0.002000,0.215706,-0.270800,-0.063961,-2.111526,-0.787873,1.294607,-11.205741,12.055537,1.435730,0.002000,1.504127,-0.383125
592.000000,0.002000,-0.043016,0.247384,-0.074338,-1.603747,0.321130,-3.391967,1.656379,-4.980883,4.420514,0.002000,-0.279484,0.299781
593.000000,0.002000,-0.221674,2.255115,-0.678982,0.324744,-0.934391,-0.067569,0.284691,-2.755180,1.004472,0.002000,1.846949,0.365211
594.000000,0.002000,-0.501341,-1.067898,0.564270,1.623298,2.864319,1.660279,2.437928,5.804961,-3.199929,0.002000,0.026964,0.310389
595.000000,0.002000,-0.632115,0.668509,-0.270291,0.006380,-1.918035,-0.073506,8.532997,-8.525672,4.341128,0.002000,0.395763,0.276139
596.000000,0.002000,-0.467801,-1.324060,0.924116,0.581551,-2.754194,1.074913,1.217527,3.891230,-2.584137,0.002000,0.570108,-0.235600
597.000000,0.002000,-0.215774,-1.208429,-0.418405,1.741383,-2.813223,0.383679,1.040992,6.779207,2.289474,0.002000,0.215706,0.276788
598.000000,0.002000,-0.027460,0.499223,0.193188,-1.348814,0.287321,-3.397482,-0.776997,-14.321963,-9.881702,0.002000,-0.043016,1.678428
599.000000,0.002000,-0.223709,-0.273868,-0.384909,-2.049097,0.751388,4.273820,5.253277,9.814358,11.109233,0.002000,-0.221674,0.752736
600.000000,0.002000,0.349698,0.956972,-0.456500,-0.898372,-0.765737,-0.661063,-3.343987,-8.302516,3.840597,0.002000,-0.501341,0.315150
601.000000,0.002000,0.302540,-0.455355,-0.340509,2.010072,-0.626703,3.242004,-7.630096,12.066376,7.355944,0.002000,-0.632115,-0.475996
602.000000,0.002000,0.848599,-0.412090,-0.573720,0.338441,-0.630512,0.453034,-7.391928,3.601186,4.414819,0.002000,-0.467801,-2.860423
603.000000,0.002000,0.033990,1.079305,0.745062,3.207667,1.269624,1.413962,-0.073292,-6.364711,-4.656733,0.002000,-0.215774,-1.189938
604.000000,0.002000,0.346490,0.214791,0.066543,2.737853,-2.176993,-0.714744,-15.809164,-6.464112,-4.771675,0.002000,-0.027460,0.090487
605.000000,0.002000,-0.213104,-0.123832,-0.146016,-3.314931,1.047950,2.242451,9.719115,11.841795,6.612896,0.002000,-0.223709,0.607434
606.000000,0.002000,-0.569501,1.815884,-0.548649,-1.448447,-2.631268,1.749275,1.203409,-3.833755,1.254305,0.002000,0.349698,0.167570
607.000000,0.002000,0.384326,0.038058,0.775562,-1.185164,-1.958246,2.518432,-6.070716,0.623102,-10.839735,0.002000,0.302540,-1.127336
608.000000,0.002000,-0.080132,-0.368138,-0.118322,-0.221736,-0.421265,-1.800869,2.371976,18.751906,2.665697,0.002000,0.848599,0.173519
609.000000,0.002000,0.573646,-1.810839,1.342296,-0.046988,-1.657954,0.732180,-0.694839,2.277369,-1.605911,0.002000,0.033990,-1.012491
610.000000,0.002000,0.287396,0.340244,0.063487,1.896098,-0.060260,2.568881,-13.446280,-13.017709,-4.490489,0.002000,0.346490,1.957863
611.000000,0.002000,-0.121112,0.167456,-0.649708,1.725166,1.823118,1.096471,2.729614,-2.136714,16.269925,0.002000,-0.213104,-0.270800
612.000000,0.002000,-0.170266,0.154042,-0.177248,-1.545843,1.327085,-0.087660,6.183397,-3.760514,7.318078,0.002000,-0.569501,0.247384
613.000000,0.002000,-0.443043,0.079649,-0.210811,-0.193372,0.298156,-0.969415,15.067914,1.431696,5.631935,0.002000,0.384326,2.255115
614.000000,0.002000,0.470998,-0.003502,-0.558578,-1.450557,0.040661,-1.324235,-9.638662,0.356733,10.005436,0.002000,-0.080132,-1.067898
615.000000,0.002000,-0.539753,-1.264013,-0.977776,-0.555901,0.348785,-1.119524,1.435334,3.608171,2.799314,0.002000,0.573646,0.668509
616.000000,0.002000,0.619943,0.111769,0.178752,-1.695695,0.225571,2.510304,-15.418724,-0.222192,-6.249066,0.002000,0.287396,-1.324060
617.000000,0.002000,0.299765,0.919500,-0.096975,1.295678,1.292648,0.062665,-3.852265,-12.216102,2.117507,0.002000,-0.121112,-1.208429
618.000000,0.002000,0.208211,-0.438527,0.141325,0.814066,0.953049,0.949347,-6.776592,15.560104,-5.273443,0.002000,-0.170266,0.499223
619.000000,0.002000,-0.356055,-0.044380,0.815235,1.611542,0.638232,-4.309052,4.945986,1.347650,-10.828849,0.002000,-0.443043,-0.273868
620.000000,0.002000,0.114463,0.104952,0.619821,-0.328748,1.586282,2.160331,-2.950788,-0.800743,-14.385254,0.002000,0.470998,0.956972
621.000000,0.002000,0.324509,0.296508,0.661138,0.956705,2.701356,0.626941,-5.816937,-4.486305,-11.031303,0.002000,-0.539753,-0.455355
622.000000,0.002000,-0.612201,0.329298,0.290032,-2.357252,1.916704,-2.636498,12.835356,-6.128553,-5.963870,0.002000,0.619943,-0.412090
623.000000,0.002000,-0.005148,-0.150772,0.071927,0.351904,1.523617,0.383964,0.560435,14.613286,-4.176366,0.002000,0.299765,1.079305
624.000000,0.002000,-0.135212,0.037618,0.072011,1.295222,-1.178999,0.399014,4.269350,1.938128,-5.389018,0.002000,0.208211,0.214791
625.000000,0.002000,-0.417659,1.154588,1.445857,-0.738955,1.295177,2.259140,1.109426,-2.663638,-3.521255,0.002000,-0.356055,-0.123832
626.000000,0.002000,0.246863,0.301885,-0.116564,-2.790105,2.134482,-3.012691,-9.994970,-11.158460,4.683602,0.002000,0.114463,1.815884
627.000000,0.002000,-0.091587,-0.062343,0.306144,-1.675254,-3.130359,-1.121271,2.660213,5.653107,-16.863974,0.002000,0.324509,0.038058
628.000000,0.002000,-0.464802,0.483766,0.423097,-0.436706,1.972819,-2.886445,8.027842,-8.136844,-8.356570,0.002000,-0.612201,-0.368138
629.000000,0.002000,-0.732163,0.391171,-0.804864,-1.742921,0.679431,2.381364,6.146244,-2.828083,6.587549,0.002000,-0.005148,-1.810839
630.000000,0.002000,0.445518,0.254711,-0.601105,-0.204196,0.711206,-1.231955,-8.979451,-3.608375,10.865794,0.002000,-0.135212,0.340244
631.000000,0.002000,0.726594,2.538043,0.315572,-0.392568,0.639517,-0.268822,-0.765062,-2.346836,-0.323561,0.002000,-0.417659,0.167456
632.000000,0.002000,0.377656,-0.044504,-0.275340,-2.121717,-1.120609,2.087086,-13.828889,6.162213,10.447848,0.002000,0.246863,0.154042
633.000000,0.002000,-2.839250,2.913286,-0.562162,-0.090289,0.933509,-0.733784,0.828550,-0.835771,0.167060,0.002000,-0.091587,0.079649
634.000000,0.002000,0.229080,-0.092002,-0.051996,0.859956,3.403814,-2.930117,-13.445516,8.363056,1.781176,0.002000,-0.464802,-0.003502
635.000000,0.002000,0.694551,-0.011104,0.656999,-0.241448,-1.029715,-0.439518,-7.645876,1.060893,-7.436277,0.002000,-0.732163,-1.264013
636.000000,0.002000,0.267349,0.298064,-0.383101,1.019853,-0.169162,0.084063,-8.561127,-6.309457,13.518173,0.002000,0.445518,0.111769
637.000000,0.002000,-0.182321,-0.080960,-0.347734,0.504124,1.164094,-5.751702,6.571575,5.707597,15.357055,0.002000,0.726594,0.919500
638.000000,0.002000,1.066079,0.687232,1.784293,-0.953010,-0.276616,-1.180864,-1.592813,-0.881319,-2.739095,0.002000,0.377656,-0.438527
639.000000,0.002000,1.365769,0.095364,0.353137,0.436030,0.676771,1.601629,-6.477644,-0.165821,-1.684363,0.002000,-2.839250,-0.044380
640.000000,0.002000,-0.034584,0.467289,0.155496,-0.880142,-3.397171,-2.377066,0.535988,-14.236213,-5.938513,0.002000,0.229080,0.104952
641.000000,0.002000,-0.424041,0.708106,-0.178038,-1.437813,0.998844,-2.554555,7.070274,-12.315814,2.776137,0.002000,0.694551,0.296508
642.000000,0.002000,0.043379,0.262874,-0.090514,0.935084,0.748617,-2.065095,-7.826638,-5.596038,4.439195,0.002000,0.267349,0.329298
643.000000,0.002000,1.658291,-0.196473,-0.390964,0.702481,-2.321382,-1.398060,-4.684375,0.678168,1.146008,0.002000,-0.182321,-0.150772
644.000000,0.002000,0.336177,0.575873,-0.518875,-2.686460,0.695724,3.330590,-5.958522,-8.846406,8.865569,0.002000,1.066079,0.037618
645.000000,0.002000,-0.099097,-0.092636,0.047011,1.031543,0.262618,2.331458,4.494245,10.284927,-3.975985,0.002000,1.365769,1.154588
646.000000,0.002000,0.841908,0.820793,1.031549,2.288651,1.525942,1.518542,-3.229879,-2.858315,-3.966705,0.002000,-0.034584,0.301885
647.000000,0.002000,1.145433,-1.178172,0.295745,-0.504654,0.547489,1.307472,-3.418155,3.341061,-0.939421,0.002000,-0.424041,-0.062343
648.000000,0.002000,-0.711245,-0.826838,0.473399,-2.001418,0.428841,0.153231,4.454378,5.875248,-3.376331,0.002000,0.043379,0.483766
649.000000,0.002000,-0.275858,0.077372,0.008825,-0.660508,-0.588904,0.748570,13.497863,-1.657637,-1.212945,0.002000,1.658291,0.391171
650.000000,0.002000,-0.469309,1.486438,0.164894,-3.717777,0.310718,1.474856,1.793005,-5.561568,-0.724259,0.002000,0.336177,0.254711
651.000000,0.002000,1.972988,0.907519,3.458057,-0.223634,0.588499,1.154724,-0.558953,-0.235705,-0.983720,0.002000,-0.099097,2.538043
652.000000,0.002000,0.019394,-0.468670,-0.817945,1.086809,0.859655,-0.302195,-1.573523,6.194568,9.868311,0.002000,0.841908,-0.044504
653.000000,0.002000,0.003122,-0.059081,0.690465,1.171473,-3.573197,3.529576,-1.122087,2.866581,-15.234192,0.002000,1.145433,2.913286
654.000000,0.002000,0.080086,0.344251,0.711838,2.508868,-2.343728,-2.886214,-1.874139,-3.838755,-12.663186,0.002000,-0.711245,-0.092002
655.000000,0.002000,-1.212842,-1.052209,-0.952932,1.372340,-2.001760,-0.535801,2.783751,2.904188,1.600766,0.002000,-0.275858,-0.011104
656.000000,0.002000,-1.117421,0.297726,0.156102,-2.100732,0.153427,-0.711358,8.658228,-1.962350,-1.415299,0.002000,-0.469309,0.298064
657.000000,0.002000,-0.348468,0.230120,-0.045128,0.020781,-0.787907,-3.836639,12.369321,-6.686414,0.729244,0.002000,1.972988,-0.080960
658.000000,0.002000,-0.059807,0.012634,-0.088039,-2.771627,-2.047674,-2.408333,-1.275893,2.314768,5.556500,0.002000,0.019394,0.687232
659.000000,0.002000,-0.159503,-0.657201,-1.220090,-0.950903,-0.335827,1.029507,0.677991,3.441424,5.675571,0.002000,0.003122,0.095364
660.000000,0.002000,0.575252,0.360052,0.097468,0.922525,-1.373691,-1.940571,-14.387076,-8.212031,-4.657842,0.002000,0.080086,0.467289
661.000000,0.002000,-1.281329,-0.695444,-0.606076,-0.912409,0.230413,0.303744,4.485935,2.600413,2.144189,0.002000,-1.212842,0.708106
662.000000,0.002000,1.000904,0.535708,1.196065,-2.533786,0.092517,-0.011391,-3.093811,-1.419281,-3.858361,0.002000,-1.117421,0.262874
663.000000,0.002000,0.033684,0.061957,-0.570882,-3.348116,-0.926526,2.695807,-1.532820,-0.695377,17.447126,0.002000,-0.348468,-0.196473
664.000000,0.002000,0.109403,0.573705,-0.154229,-1.889309,1.209379,1.095392,-3.309281,-16.143139,4.710598,0.002000,-0.059807,0.575873
665.000000,0.002000,-0.326968,-0.628686,-0.325803,-1.916490,0.624665,0.439494,4.977703,12.014311,5.648025,0.002000,-0.159503,-0.092636
666.000000,0.002000,-0.118029,0.229773,0.355142,0.033324,3.931104,0.283937,4.456581,-8.430322,-16.583700,0.002000,0.575252,0.820793
667.000000,0.002000,-0.462517,-0.239008,-0.397740,1.484823,3.120920,-0.259556,11.088061,7.590054,10.123705,0.002000,-1.281329,-1.178172
668.000000,0.002000,-0.089840,0.254568,0.092291,-5.177342,-1.154534,-3.054320,7.030739,-9.495623,-11.454093,0.002000,1.000904,-0.826838
669.000000,0.002000,-0.537212,0.022512,-0.231081,-2.756599,1.256248,2.234112,19.850408,-0.374378,3.956978,0.002000,0.033684,0.077372
670.000000,0.002000,0.307889,0.245418,-0.236706,-1.869663,-2.551799,0.367162,-10.897007,-7.150734,8.204872,0.002000,0.109403,1.486438
671.000000,0.002000,-0.008659,0.990471,0.188688,-0.745713,-2.026861,-2.523905,0.477668,-10.929903,-1.627204,0.002000,-0.326968,0.907519
672.000000,0.002000,-0.017138,0.315960,0.324323,-0.892878,0.469090,-0.998767,-1.598772,-11.282665,-15.497166,0.002000,-0.118029,-0.468670
673.000000,0.002000,-1.818409,1.969283,1.714262,-0.098832,1.335682,-2.308474,1.019670,-1.102940,-0.969153,0.002000,-0.462517,-0.059081
674.000000,0.002000,-2.489606,2.524781,-2.251420,-0.356234,0.997214,-0.073896,0.668586,-0.671362,0.605578,0.002000,-0.089840,0.344251
675.000000,0.002000,-0.643576,0.488522,-0.523000,0.496116,-3.474093,0.636358,10.569649,-3.917445,6.925362,0.002000,-0.537212,-1.052209
676.000000,0.002000,-0.085870,0.001293,0.433549,-0.303477,-1.704899,3.248549,0.676327,2.810312,-18.261474,0.002000,0.307889,0.297726
677.000000,0.002000,0.111299,0.045656,-0.583167,1.329499,0.363907,2.161730,-4.337560,0.886958,17.090969,0.002000,-0.008659,0.230120
678.000000,0.002000,-0.025100,0.426864,0.058123,0.808685,-0.742485,-3.797724,1.566542,-16.806616,-4.490571,0.002000,-0.017138,0.012634
679.000000,0.002000,1.535936,1.530247,0.438430,1.944188,0.834485,-0.142825,-1.934588,-2.584589,-1.110718,0.002000,-1.818409,-0.657201
680.000000,0.002000,1.303265,0.647481,1.797984,1.059841,0.995145,0.703663,-1.841253,-0.727092,-2.329929,0.002000,-2.489606,0.360052
681.000000,0.002000,0.238671,0.525183,-0.192375,0.952481,-3.457498,3.246298,-7.672400,-14.697794,5.725043,0.002000,-0.643576,-0.695444
682.000000,0.002000,-0.001553,0.234307,-0.111966,3.532108,1.943720,-0.721259,-4.096158,-7.985270,9.423240,0.002000,-0.085870,0.535708
683.000000,0.002000,2.702947,0.636767,-2.172420,0.287903,-0.147029,0.170326,-1.146719,-0.341178,0.914641,0.002000,0.111299,0.061957
684.000000,0.002000,1.453195,-0.698483,0.419289,-1.825654,1.176306,-0.517736,-4.293996,2.135598,-1.387077,0.002000,-0.025100,0.573705
685.000000,0.002000,0.407301,0.374356,0.036980,-2.777416,1.733856,0.265317,-12.247964,-8.954202,-2.659235,0.002000,1.535936,-0.628686
686.000000,0.002000,-0.153285,0.048045,0.275631,0.192736,-4.129642,0.774640,6.630023,1.178238,-13.997050,0.002000,1.303265,0.229773
687.000000,0.002000,0.020550,0.271447,-4.027320,-0.077048,-0.749553,-0.161934,-0.011796,-0.066190,1.172144,0.002000,0.238671,-0.239008
688.000000,0.002000,0.233810,1.107477,-0.589303,0.959671,1.293683,1.199424,-1.608939,-7.268999,3.848489,0.002000,-0.001553,0.254568
689.000000,0.002000,-1.350103,0.412371,-1.090220,-1.933300,-0.434198,-2.001892,3.657985,-0.807880,3.108910,0.002000,2.702947,0.022512
690.000000,0.002000,1.231433,-0.619156,0.344413,2.667160,-0.910599,1.756430,-5.265503,2.743509,-1.506583,0.002000,1.453195,0.245418
691.000000,0.002000,0.908501,-1.603774,1.262460,0.990933,-0.774489,0.788342,-1.251184,2.209660,-1.688281,0.002000,0.407301,0.990471
692.000000,0.002000,-0.036666,0.245187,0.166828,1.623141,-1.674058,3.926971,0.903299,-14.063368,-11.197711,0.002000,-0.153285,0.315960
693.000000,0.002000,0.123650,0.369023,0.670857,1.535171,2.401501,0.374504,-3.510236,-5.324103,-11.991408,0.002000,0.020550,1.969283
694.000000,0.002000,0.177915,0.504938,-0.191239,3.899374,1.966627,-0.234824,-5.440139,-14.653816,6.044097,0.002000,0.233810,2.524781
695.000000,0.002000,-1.433477,-1.090317,0.526120,1.065022,-1.144261,-0.297195,3.172836,2.537099,-1.263350,0.002000,-1.350103,0.488522
696.000000,0.002000,-3.119822,1.038000,-0.440038,0.841063,-0.091017,-0.116895,1.591903,-0.453712,0.173814,0.002000,1.231433,0.001293
697.000000,0.002000,-1.854439,2.324520,-1.398626,0.381542,1.378422,-0.110304,1.022753,-1.262902,0.775245,0.002000,0.908501,0.045656
698.000000,0.002000,-0.140163,0.182389,-0.077020,0.222438,2.205477,1.918475,7.758426,-5.266153,4.851888,0.002000,-0.036666,0.426864
699.000000,0.002000,-0.138585,-0.115881,0.036457,2.529118,3.697526,-2.382655,6.458666,12.601359,-2.389986,0.002000,0.123650,1.530247
700.000000,0.002000,-1.065542,-0.179986,-0.138336,-1.160213,1.139745,2.863150,9.589629,2.273079,0.990152,0.002000,0.177915,0.647481
701.000000,0.002000,-0.028321,0.283862,0.162774,3.136576,0.165750,-0.383405,0.576151,-14.930114,-10.931494,0.002000,-1.433477,0.525183
702.000000,0.002000,1.917129,-0.884644,0.668292,0.795747,-1.202187,-1.182840,-2.864699,1.306253,-1.013968,0.002000,-3.119822,0.234307
703.000000,0.002000,1.143977,-0.441638,0.399629,0.555187,-1.120626,1.655573,-6.232029,2.795464,-2.416563,0.002000,-1.854439,0.636767
704.000000,0.002000,-1.177442,-3.244005,-1.919087,0.666625,0.276643,-0.221313,0.337021,0.996846,0.576406,0.002000,-0.140163,-0.698483
705.000000,0.002000,2.919413,-2.314392,8.779904,0.113896,-0.219338,0.124381,-0.066422,0.053613,-0.199886,0.002000,-0.138585,0.374356
706.000000,0.002000,0.202177,-0.647064,2.288405,0.954173,0.087492,-0.273626,-0.284352,0.862248,-2.680429,0.002000,-1.065542,0.048045
707.000000,0.002000,-1.759736,0.345879,-0.462840,-1.693960,-0.366450,-2.070997,4.239060,-0.761962,1.146308,0.002000,-0.028321,0.271447
708.000000,0.002000,-0.480900,-0.146230,-0.751115,-0.860731,-0.534689,2.103259,6.635190,3.085797,10.528037,0.002000,1.917129,1.107477
709.000000,0.002000,0.622967,0.584159,0.311168,-1.668136,0.411638,-0.804642,-8.783432,-7.243183,-4.171613,0.002000,1.143977,0.412371
710.000000,0.002000,-0.236112,0.510923,-0.230422,-1.359203,2.880977,0.963780,5.179375,-17.839696,7.642634,0.002000,-1.177442,-0.619156
711.000000,0.002000,-1.185976,0.899199,-2.324094,-2.125804,0.401426,0.316948,1.025628,-0.648063,1.954046,0.002000,2.919413,-1.603774
712.000000,0.002000,0.258543,0.277893,0.135020,0.198305,-2.069494,-1.022670,-12.942693,-7.475224,-8.941959,0.002000,0.202177,0.245187
713.000000,0.002000,1.220376,0.339411,0.010379,-1.133918,-2.418196,1.199588,-7.367791,-1.479513,-0.306535,0.002000,-1.759736,0.369023
714.000000,0.002000,0.572526,0.673094,-0.424681,0.683261,1.492362,0.398806,-6.827644,-7.270472,5.200183,0.002000,-0.480900,0.504938
715.000000,0.002000,-3.491408,-4.559753,2.100163,0.254594,0.518826,-0.762779,0.296122,0.394082,-0.178885,0.002000,0.622967,-1.090317
716.000000,0.002000,1.132802,-0.640291,-0.882784,0.643103,-1.800088,-1.151356,-4.128926,2.733087,2.320425,0.002000,-0.236112,1.038000
717.000000,0.002000,-0.747613,0.061821,1.345769,0.252017,-0.857087,-1.632535,2.711496,0.061026,-4.872587,0.002000,-1.185976,2.324520
718.000000,0.002000,1.003945,0.914832,0.546778,-1.037826,-3.170028,0.468162,-4.399713,-3.845784,-2.553704,0.002000,0.258543,0.182389
719.000000,0.002000,1.060005,1.827488,0.755323,-1.781240,-0.090532,0.340813,-1.647090,-2.661116,-1.126475,0.002000,1.220376,-0.115881
720.000000,0.002000,-1.988870,-1.063050,-1.168520,-1.245790,-0.342848,0.460142,2.055522,1.149691,1.210324,0.002000,0.572526,-0.179986
721.000000,0.002000,-0.240811,0.205324,-0.057554,2.305367,2.903718,2.115835,13.088976,-5.772080,0.718416,0.002000,-3.491408,0.283862
722.000000,0.002000,0.123306,-0.112525,-0.981426,0.386519,-0.195528,-0.340925,-1.635450,2.005991,10.139615,0.002000,1.132802,-0.884644
723.000000,0.002000,0.100468,0.500242,0.184857,-1.638840,-0.098158,-0.976948,-4.309793,-14.122203,-8.185462,0.002000,-0.747613,-0.441638
724.000000,0.002000,-1.270344,-0.135698,-1.440370,-0.263956,-0.358624,-3.446172,2.729221,0.458975,3.098069,0.002000,1.003945,-3.244005
725.000000,0.002000,0.008293,-0.396673,-0.143899,1.117008,0.697028,3.530564,-0.242926,18.354965,2.837676,0.002000,1.060005,-2.314392
726.000000,0.002000,-0.907649,-0.595636,1.062577,-1.893202,-1.562963,0.946166,3.322766,2.572303,-4.136428,0.002000,-1.988870,-0.647064
727.000000,0.002000,-0.305787,-0.094894,0.719144,1.148026,-2.876686,2.737827,5.436986,2.902958,-11.988214,0.002000,-0.240811,0.345879
728.000000,0.002000,-0.599600,0.390461,0.653792,1.645282,1.864410,0.621741,7.137020,-4.142017,-8.068653,0.002000,0.123306,-0.146230
729.000000,0.002000,0.195457,-0.185970,0.193785,3.549958,0.896510,2.266585,-12.151915,11.106275,-9.574478,0.002000,0.100468,0.584159
730.000000,0.002000,-0.473959,-0.684888,0.219641,2.466963,-0.868005,-0.295465,5.967025,9.879806,-3.565064,0.002000,-1.270344,0.510923
731.000000,0.002000,-0.763915,0.747926,0.519870,-0.398217,-0.518465,-0.356667,5.649801,-5.408565,-4.159077,0.002000,0.008293,0.899199
732.000000,0.002000,0.217418,-0.582397,0.208211,2.352723,-0.712975,-1.220881,-4.835468,12.789927,-4.640112,0.002000,-0.907649,0.277893
733.000000,0.002000,1.790885,-0.400734,3.148164,0.121146,1.188618,0.304088,-0.685591,0.199445,-1.181597,0.002000,-0.305787,0.339411
734.000000,0.002000,0.447300,-0.199381,-0.312897,-1.318940,-1.421193,-0.418966,-11.632841,6.188640,8.439345,0.002000,-0.599600,0.673094
735.000000,0.002000,-0.724817,0.138798,-1.338936,-1.924159,0.713265,-0.799802,2.880133,-0.263862,5.440936,0.002000,0.195457,-4.559753
736.000000,0.002000,0.198732,-0.166137,-0.215455,2.672525,-0.135303,-2.909364,-22.007790,10.972915,10.960296,0.002000,-0.473959,-0.640291
737.000000,0.002000,0.114735,-0.267335,-0.393509,0.208628,1.864891,0.562966,-4.441494,10.367790,10.822312,0.002000,-0.763915,0.061821
738.000000,0.002000,0.431742,0.194840,-0.789473,-2.850256,-0.141647,3.753179,-6.011877,-1.983572,10.083457,0.002000,0.217418,0.914832
739.000000,0.002000,-2.037351,-2.600156,0.214544,1.142546,0.952795,0.987425,1.004868,1.324970,-0.115834,0.002000,1.790885,1.827488
740.000000,0.002000,-0.120494,0.332300,0.039902,1.713148,-2.311755,0.983874,9.529912,-17.268838,-4.196655,0.002000,0.447300,-1.063050
741.000000,0.002000,0.275891,-0.011278,-0.797895,1.958134,-0.353899,1.292170,-4.932480,1.472976,12.198824,0.002000,-0.724817,0.205324
742.000000,0.002000,-0.262760,-0.046828,-0.656864,-0.327676,0.799177,-1.295864,3.900958,2.088440,15.404992,0.002000,0.198732,-0.112525
743.000000,0.002000,0.981348,-0.443526,-0.658188,0.509079,0.521906,-1.951737,-5.971976,2.857312,3.845962,0.002000,0.114735,0.500242
744.000000,0.002000,0.334222,-0.116413,0.305991,-2.077693,3.620656,0.330586,-10.769999,4.904403,-12.797790,0.002000,0.431742,-0.135698
745.000000,0.002000,-0.430376,1.361395,-2.195829,-1.990374,-0.251416,2.129469,0.346260,-1.219696,2.172969,0.002000,-2.037351,-0.396673
746.000000,0.002000,0.908846,1.713108,-0.581516,-0.785158,-0.808334,0.333687,-1.875246,-3.332953,1.140272,0.002000,-0.120494,-0.595636
747.000000,0.002000,1.263680,-2.938585,-0.190691,-0.439892,-0.001883,-1.312020,-0.672287,1.593244,0.063227,0.002000,0.275891,-0.094894
748.000000,0.002000,2.005304,-0.874814,1.096505,1.444571,-0.202431,0.916502,-2.258272,0.959105,-1.269634,0.002000,-0.262760,0.390461
749.000000,0.002000,1.181055,0.390397,1.225941,1.796169,0.505618,2.249733,-3.445585,-0.677438,-3.371604,0.002000,0.981348,-0.185970
750.000000,0.002000,0.315090,0.061235,-0.265437,0.943063,1.769247,1.382876,-12.501597,-0.353037,7.626965,0.002000,0.334222,-0.684888
751.000000,0.002000,-0.246665,0.115682,-0.364121,2.878964,3.671540,0.452571,7.752196,-0.761176,16.384489,0.002000,-0.430376,0.747926
752.000000,0.002000,0.544755,0.744754,0.841157,-2.478774,3.356425,-0.485765,-3.694323,-4.580751,-5.525935,0.002000,0.908846,-0.582397
753.000000,0.002000,-0.267213,-1.244186,0.737386,-0.075959,0.106255,-0.329604,0.929869,5.013886,-2.882168,0.002000,1.263680,-0.400734
754.000000,0.002000,0.163349,-0.642666,-0.226973,1.379055,-2.816497,-1.460648,-3.756083,13.386020,4.197790,0.002000,2.005304,-0.199381
755.000000,0.002000,0.083911,0.347855,0.847091,-2.708587,2.644277,-1.966358,-1.187756,-3.319189,-11.253330,0.002000,1.181055,0.138798
756.000000,0.002000,0.734757,-0.691894,-2.158865,-0.457836,0.981922,0.932788,-0.871270,0.963116,2.678290,0.002000,0.315090,-0.166137
757.000000,0.002000,-0.981695,-0.056555,-1.004402,0.970098,-0.078022,0.643077,4.811645,0.591915,4.920913,0.002000,-0.246665,-0.267335
758.000000,0.002000,0.210523,0.228599,0.028211,-0.354357,-1.381060,0.156692,-12.342576,-11.585190,1.423127,0.002000,0.544755,0.194840
759.000000,0.002000,-0.857818,-0.063263,-0.112738,0.488666,-1.989227,-0.647688,12.852217,1.751835,1.125129,0.002000,-0.267213,-2.600156
760.000000,0.002000,-0.397829,-0.781563,0.010044,-2.899980,1.477251,0.905318,4.184597,10.725655,-0.877712,0.002000,0.163349,0.332300
761.000000,0.002000,0.590531,0.082082,-0.696398,-1.886592,0.253272,-1.678596,-7.898746,-0.721399,8.965392,0.002000,0.083911,-0.011278
762.000000,0.002000,-0.409002,0.869913,0.169374,0.864679,2.358884,2.273117,4.552261,-11.188666,-2.734863,0.002000,0.734757,-0.046828
763.000000,0.002000,0.366333,0.926742,0.105430,1.850793,1.134167,0.173381,-4.333239,-10.719840,-1.069742,0.002000,-0.981695,-0.443526
764.000000,0.002000,-0.187593,-0.128294,0.282168,-3.512793,0.171888,-0.808675,6.634181,8.497508,-14.534096,0.002000,0.210523,-0.116413
765.000000,0.002000,1.270795,0.971409,-2.349279,1.943649,0.837356,-0.138451,-1.004266,-0.788837,1.798239,0.002000,-0.857818,1.361395
766.000000,0.002000,-0.192885,0.127771,-0.914891,0.246491,2.384341,1.023120,2.241125,-1.353123,10.396809,0.002000,-0.397829,1.713108
767.000000,0.002000,0.286639,-0.492180,-0.546717,2.791438,0.909457,0.708031,-5.278136,9.228383,8.796352,0.002000,0.590531,-2.938585
768.000000,0.002000,-0.501323,0.413265,-0.627644,-1.096060,-1.318516,-1.856348,6.837637,-5.173925,8.839879,0.002000,-0.409002,-0.874814
769.000000,0.002000,0.124956,0.216625,-0.150067,0.076476,0.114533,0.375316,-7.204555,-8.583227,8.129854,0.002000,0.366333,0.390397
770.000000,0.002000,-0.867139,0.567980,-0.188558,-0.326025,-1.422730,1.056213,9.106280,-5.516216,1.781151,0.002000,-0.187593,0.061235
771.000000,0.002000,-1.658562,-2.288386,0.217025,0.700962,1.515105,-0.041130,1.369735,0.847834,-0.699631,0.002000,1.270795,0.115682
772.000000,0.002000,-0.049974,-0.281906,1.452793,-0.297711,-2.230084,0.449129,0.107064,1.298388,-5.355129,0.002000,-0.192885,0.744754
773.000000,0.002000,-0.273971,-0.737787,1.339438,0.368255,-2.061594,0.725852,0.671433,2.733526,-4.886471,0.002000,0.286639,-1.244186
774.000000,0.002000,0.550143,0.377297,-0.173231,0.954796,-0.657047,1.065210,-13.802848,-7.473913,4.183378,0.002000,-0.501323,-0.642666
775.000000,0.002000,-0.664746,2.647315,-2.965774,0.336020,0.138711,-0.298971,0.193401,-0.803236,0.896983,0.002000,0.124956,0.347855
776.000000,0.002000,-1.599836,-2.691980,2.096307,-0.036682,-1.459224,0.221481,0.530801,0.941253,-0.728692,0.002000,-0.867139,-0.691894
777.000000,0.002000,0.896273,0.278407,-0.018195,-0.395433,0.837338,-1.661989,-11.337062,-2.122675,0.068116,0.002000,-1.658562,-0.056555
778.000000,0.002000,0.850251,0.808280,-0.464193,-0.172185,-0.084775,1.580895,-5.803011,-4.676142,2.353064,0.002000,-0.049974,0.228599
779.000000,0.002000,-0.499027,0.106184,0.235535,-0.807231,-4.114364,-1.857818,15.271103,0.175690,-6.678141,0.002000,-0.273971,-0.063263
780.000000,0.002000,1.831836,-1.030851,0.435232,1.120415,-0.178837,0.109478,-2.789787,1.672630,-0.690009,0.002000,0.550143,-0.781563
781.000000,0.002000,-0.180235,-0.526770,-1.042325,-1.273673,-0.352123,2.749562,1.160546,4.292480,7.241437,0.002000,-0.664746,0.082082
782.000000,0.002000,-0.500015,0.106583,-0.249887,1.358311,1.825850,-1.174400,17.425778,-3.501717,8.311943,0.002000,-1.599836,0.869913
783.000000,0.002000,-2.301824,0.166518,2.732191,0.200702,-0.150706,-0.725960,0.900266,0.007004,-1.103624,0.002000,0.896273,0.926742
784.000000,0.002000,0.715646,0.149056,0.004023,-0.344443,1.016953,-1.746485,-14.454799,-1.485310,-0.498951,0.002000,0.850251,-0.128294
785.000000,0.002000,-0.024141,-0.331225,2.967166,0.730458,-1.094818,0.128970,0.004392,0.250449,-1.964144,0.002000,-0.499027,0.971409
786.000000,0.002000,-0.481980,0.789796,-1.324885,-1.131988,-0.590385,2.606453,1.739820,-2.559553,4.956325,0.002000,1.831836,0.127771
787.000000,0.002000,-0.375462,0.524556,1.998739,-0.556565,2.252617,1.958134,0.596527,-0.756434,-3.448745,0.002000,-0.180235,-0.492180
788.000000,0.002000,0.314085,0.591677,0.319693,-1.997848,2.388580,-1.629348,-6.412644,-9.255533,-10.582568,0.002000,-0.500015,0.413265
789.000000,0.002000,-0.133807,-0.164921,0.257143,2.402894,-1.952940,0.943668,4.367173,9.199293,-13.918804,0.002000,-2.301824,0.216625
790.000000,0.002000,-0.145503,-0.336602,0.698544,0.863791,2.749710,-0.986163,1.710368,6.243765,-9.870711,0.002000,0.715646,0.567980
791.000000,0.002000,-0.369766,0.152345,0.253654,1.077820,2.909254,-5.189151,13.262004,-4.569787,-12.217874,0.002000,-0.024141,-2.288386
792.000000,0.002000,0.272746,0.646035,0.018199,-2.127597,2.272896,-1.739251,-6.773480,-14.294366,-0.694023,0.002000,-0.481980,-0.281906
793.000000,0.002000,-0.000622,-0.632678,-0.551283,0.431203,-1.466002,0.232192,0.111783,9.945513,7.998558,0.002000,-0.375462,-0.737787
794.000000,0.002000,0.278333,-0.802975,0.712311,0.999854,-0.081801,1.223952,-1.837692,6.155297,-5.209218,0.002000,0.314085,0.377297
795.000000,0.002000,-0.400399,1.004434,0.110751,-1.226888,3.725611,-1.995819,3.995861,-10.007758,-1.211684,0.002000,-0.133807,2.647315
796.000000,0.002000,1.226604,0.472580,-1.177450,-0.976721,-1.258661,0.370512,-3.489861,-1.063018,3.257492,0.002000,-0.145503,-2.691980
797.000000,0.002000,-0.136303,-0.220373,-0.039954,-1.433677,-1.170939,1.293674,12.069447,21.258521,-7.332194,0.002000,-0.369766,0.278407
798.000000,0.002000,0.449338,0.114532,-0.125095,0.861072,-2.797451,1.973263,-16.392822,0.616858,3.680356,0.002000,0.272746,0.808280
799.000000,0.002000,-0.625328,-0.161910,-0.913703,0.361861,3.241867,2.162161,5.250990,2.248663,7.839522,0.002000,-0.000622,0.106184
800.000000,0.002000,0.839232,-0.291535,-0.411916,-1.083437,-1.502545,1.187033,-9.253160,5.165125,3.978340,0.002000,0.278333,-1.030851
801.000000,0.002000,0.009937,0.302295,-0.575560,0.141055,-1.039123,-2.116693,-3.471320,-7.304057,14.747517,0.002000,-0.400399,-0.526770
802.000000,0.002000,0.355324,0.035586,-0.047347,1.676055,2.672931,-0.564730,-16.123375,3.773694,-0.282472,0.002000,1.226604,0.106583
803.000000,0.002000,0.696632,0.913883,0.119439,3.056814,1.328387,-0.434921,-6.066566,-7.227174,-1.095475,0.002000,-0.136303,0.166518
804.000000,0.002000,0.242685,-0.113497,0.788079,1.584821,-0.755949,-0.036564,-4.404531,2.213435,-11.283045,0.002000,0.449338,0.149056
805.000000,0.002000,-0.359435,-0.458750,-0.756203,1.325461,-1.573811,-0.099657,4.382838,5.920142,8.815704,0.002000,-0.625328,-0.331225
806.000000,0.002000,0.011851,-0.075406,-0.517021,1.287787,2.468535,5.545393,-1.041133,3.584677,17.959156,0.002000,0.839232,0.789796
807.000000,0.002000,-0.130306,0.305983,-0.199948,-3.945916,1.088062,0.863160,9.067022,-8.569350,11.359849,0.002000,0.009937,0.524556
808.000000,0.002000,0.031233,0.624034,0.072259,-0.234803,0.878935,-2.355416,-0.728903,-17.422614,-2.605624,0.002000,0.355324,0.591677
809.000000,0.002000,-0.303494,-0.177323,-0.431968,-1.927004,1.905240,2.403894,9.887297,8.224266,11.983531,0.002000,0.696632,-0.164921
810.000000,0.002000,-0.107297,0.190023,0.075224,2.294061,-2.729043,-0.549722,11.282606,-3.928395,-6.158345,0.002000,0.242685,-0.336602
811.000000,0.002000,0.086428,0.965393,0.551127,0.556545,0.990251,3.162812,-0.816099,-8.490979,-5.611335,0.002000,-0.359435,0.152345
812.000000,0.002000,0.657206,-0.118183,-0.902986,-1.432889,-0.318725,-0.478461,-5.638724,1.160898,7.280302,0.002000,0.011851,0.646035
813.000000,0.002000,0.609558,0.109825,-0.351064,3.188596,-0.394598,-1.647959,-8.744915,-1.972134,7.115174,0.002000,-0.130306,-0.632678
814.000000,0.002000,0.535938,1.057077,-0.462936,0.595457,1.750900,0.368979,-3.727337,-6.567774,2.934935,0.002000,0.031233,-0.802975
815.000000,0.002000,-0.996653,-0.532861,0.423718,0.090460,-0.806684,-0.124697,6.408106,3.491210,-3.104302,0.002000,-0.303494,1.004434
816.000000,0.002000,0.178673,0.280800,-0.310505,-3.985619,1.972147,-0.324767,-7.202151,-7.023762,11.853759,0.002000,-0.107297,0.472580
817.000000,0.002000,-0.540377,0.572666,1.111346,-0.321061,0.608125,2.769001,3.207799,-2.726081,-5.689153,0.002000,0.086428,-0.220373
818.000000,0.002000,-3.130262,1.426505,0.695329,0.118776,1.095124,-0.767027,1.368727,-0.662446,-0.372960,0.002000,0.657206,0.114532
819.000000,0.002000,-0.623588,0.093907,0.460151,-0.961077,0.832079,-1.560038,13.993145,1.402532,-8.598623,0.002000,0.609558,-0.161910
820.000000,0.002000,2.146219,-0.217025,0.259600,-0.517302,-0.035657,-0.718497,-3.305969,0.358353,-0.516226,0.002000,0.535938,-0.291535
821.000000,0.002000,0.847415,2.035921,0.232032,-0.767619,0.393815,0.672049,-1.489455,-3.107541,-0.416738,0.002000,-0.996653,0.302295
822.000000,0.002000,-3.562597,1.462937,1.524742,-0.616531,0.110619,0.536395,1.002428,-0.396194,-0.430027,0.002000,0.178673,0.035586
823.000000,0.002000,-0.705855,1.715868,-1.633440,-0.013813,-0.404460,-0.706623,0.885878,-2.130731,2.186533,0.002000,-0.540377,0.913883
824.000000,0.002000,-0.153888,0.442732,-0.413447,1.519944,-3.278141,0.272812,2.453019,-12.177644,12.705207,0.002000,-3.130262,-0.113497
825.000000,0.002000,-1.795225,-1.036726,-2.308266,-1.367844,0.851846,1.902818,1.071802,0.673800,1.372602,0.002000,-0.623588,-0.458750
826.000000,0.002000,0.323166,-0.422162,-0.125217,0.196273,1.939033,1.333600,-7.467494,13.174623,1.574718,0.002000,2.146219,-0.075406
827.000000,0.002000,0.639555,-0.085550,0.531903,-1.739012,-1.474272,-1.601003,-9.661262,2.189128,-7.584343,0.002000,0.847415,0.305983
828.000000,0.002000,-0.190324,0.493984,-0.199811,3.149672,-1.682600,-2.032276,4.345609,-17.000635,7.514337,0.002000,-3.562597,0.624034
829.000000,0.002000,-0.266368,-0.171279,-0.795463,-2.375972,-0.994639,4.128922,4.894247,3.348116,12.333334,0.002000,-0.705855,-0.177323
830.000000,0.002000,-0.220581,0.530409,-1.004019,-0.703943,0.574104,-2.190921,1.259393,-3.779615,8.341899,0.002000,-0.153888,0.190023
831.000000,0.002000,-0.235933,0.171384,-0.516474,-1.274423,3.926267,1.548627,7.506504,-3.413058,16.171940,0.002000,-1.795225,0.965393
832.000000,0.002000,0.284344,0.773663,0.056966,1.129643,1.016410,0.742231,-3.714790,-13.512282,-1.451328,0.002000,0.323166,-0.118183
833.000000,0.002000,-0.181776,0.367184,-1.019898,0.555857,0.717163,0.271118,1.197532,-2.874080,9.514935,0.002000,0.639555,0.109825
834.000000,0.002000,0.001888,0.867060,-0.346556,1.271837,-1.553808,-0.724975,0.793446,-11.068904,5.188449,0.002000,-0.190324,1.057077
835.000000,0.002000,0.444702,-0.917636,-0.687577,-1.565251,-2.930486,-2.316089,-2.844352,6.301061,4.026598,0.002000,-0.266368,-0.532861
836.000000,0.002000,2.704914,2.370340,1.139483,0.837006,0.352392,0.686611,-0.995122,-0.837479,-0.425674,0.002000,-0.220581,0.280800
837.000000,0.002000,0.049227,0.055673,-0.481707,4.219581,0.789790,-2.162097,-3.185045,-0.494365,16.191457,0.002000,-0.235933,0.572666
838.000000,0.002000,0.409967,-0.185463,0.751676,-1.475553,0.143130,0.661214,-5.833292,3.456992,-9.336895,0.002000,0.284344,1.426505
839.000000,0.002000,-0.676025,0.486867,0.039660,-1.062741,1.329569,0.307708,11.497616,-7.227465,-1.272365,0.002000,-0.181776,0.093907
840.000000,0.002000,0.444510,0.348605,-1.339298,0.844304,-1.221137,0.322074,-2.255279,-1.223625,6.078614,0.002000,0.001888,-0.217025
841.000000,0.002000,0.038891,-0.193765,-0.514142,3.831818,-1.345885,-0.848232,-1.065788,8.612359,14.591952,0.002000,0.444702,2.035921
842.000000,0.002000,0.014570,-0.202896,-0.193292,0.911641,-0.364121,-0.388575,-1.250282,11.514270,12.147618,0.002000,2.704914,1.462937
843.000000,0.002000,-0.073592,0.230633,-0.164391,-1.277683,-0.311708,-1.019694,2.082816,-8.452048,11.708912,0.002000,0.049227,1.715868
844.000000,0.002000,0.573939,0.485208,-0.013426,-2.243173,-1.893505,1.561743,-12.876140,-7.001951,-0.200284,0.002000,0.409967,0.442732
845.000000,0.002000,2.283584,-1.513509,1.561017,-0.159706,-1.432254,-0.290806,-1.254644,0.856387,-0.866520,0.002000,-0.676025,-1.036726
846.000000,0.002000,0.043991,0.345789,-0.320226,-2.126324,-0.314962,-0.643609,-2.200291,-11.743879,11.136171,0.002000,0.444510,-0.422162
847.000000,0.002000,-0.611842,-0.773604,0.986442,-0.372048,-2.526308,2.463933,2.625557,3.844223,-4.597153,0.002000,0.038891,-0.085550
848.000000,0.002000,-0.266946,-0.493930,-0.550528,-0.914093,0.347104,-2.033903,6.101938,9.182976,9.394988,0.002000,0.014570,0.493984
849.000000,0.002000,-1.766882,1.651081,-2.222686,1.083071,0.524453,-0.162788,0.974960,-0.877577,1.185680,0.002000,-0.073592,-0.171279
850.000000,0.002000,-0.043842,-0.509782,0.280832,1.119810,-1.471989,0.236375,0.533786,13.996686,-7.348689,0.002000,0.573939,0.530409
851.000000,0.002000,-0.554378,-0.262366,-0.314356,1.143442,0.432901,3.070808,12.246835,7.173603,5.780019,0.002000,2.283584,0.171384
852.000000,0.002000,-0.155369,0.341940,0.526225,-3.090691,-0.876605,0.017075,3.265299,-7.250549,-12.600282,0.002000,0.043991,0.773663
853.000000,0.002000,0.342782,-0.028076,-0.306062,-1.226478,-3.331754,0.080101,-12.217578,4.161407,12.390861,0.002000,-0.611842,0.367184
854.000000,0.002000,0.389470,0.001094,-0.219694,1.106351,1.660275,3.177853,-15.073340,4.539622,6.852995,0.002000,-0.266946,0.867060
855.000000,0.002000,-0.767564,-0.888296,-0.567030,-1.973499,1.167732,0.410615,3.921629,5.240262,3.045476,0.002000,-1.766882,-0.917636
856.000000,0.002000,-0.121872,0.038807,-0.301270,-1.125404,2.743418,1.046266,5.189728,2.820248,14.417809,0.002000,-0.043842,2.370340
857.000000,0.002000,-0.089029,0.272195,0.599664,1.868725,0.451319,2.840275,0.992850,-5.051210,-15.291968,0.002000,-0.554378,0.055673
858.000000,0.002000,-0.619529,-0.152632,-0.306084,-1.640432,-0.399104,-2.569504,13.658924,4.143013,5.872127,0.002000,-0.155369,-0.185463
859.000000,0.002000,-0.179303,-1.706308,1.610406,1.168535,-1.316165,0.587700,0.153701,2.277092,-1.880531,0.002000,0.342782,0.486867
860.000000,0.002000,0.147987,-0.003150,0.374706,-1.153718,1.930256,1.795616,-7.065564,3.478748,-15.828330,0.002000,0.389470,0.348605
861.000000,0.002000,-1.194878,1.375016,-0.907855,2.370004,2.300446,-0.140341,3.080027,-3.094587,1.562841,0.002000,-0.767564,-0.193765
862.000000,0.002000,0.083818,-0.117383,0.201941,2.173445,-0.484303,-3.034411,-5.008794,9.548032,-14.147521,0.002000,-0.121872,-0.202896
863.000000,0.002000,0.744676,0.773768,-0.589018,-0.178765,-3.152821,1.757249,-5.107556,-4.710732,4.369837,0.002000,-0.089029,0.230633
864.000000,0.002000,0.163976,0.557024,-0.082185,-2.850921,3.673774,4.036414,-6.083109,-17.727529,3.371899,0.002000,-0.619529,0.485208
865.000000,0.002000,0.072851,-0.623217,0.996523,-1.244737,1.060104,3.338967,-0.633158,4.492476,-6.929880,0.002000,-0.179303,-1.513509
866.000000,0.002000,-0.020947,-0.285710,-0.297663,1.252376,-2.237769,-4.333370,0.515432,12.703205,9.938722,0.002000,0.147987,0.345789
867.000000,0.002000,2.427452,0.138509,1.268698,-0.167592,-0.240467,-0.027839,-2.027607,-0.048604,-1.032530,0.002000,-1.194878,-0.773604
868.000000,0.002000,-0.031920,0.079928,0.691889,2.238371,-3.692259,1.186047,-0.431962,-0.859197,-15.107934,0.002000,0.083818,-0.493930
869.000000,0.002000,0.238002,-0.452361,0.816773,-0.394012,1.255708,0.610789,-2.857064,5.304257,-8.468343,0.002000,0.744676,1.651081
870.000000,0.002000,0.487733,-0.173760,-0.572215,-1.409782,3.022848,1.550945,-8.849875,4.009133,10.323883,0.002000,0.163976,-0.509782
871.000000,0.002000,0.131035,0.365913,-0.271084,1.938766,0.094019,-2.627749,-4.409168,-12.751557,10.701225,0.002000,0.072851,-0.262366
872.000000,0.002000,0.144908,0.929214,1.304398,-0.610613,-2.223205,-2.225754,-0.653980,-3.091152,-4.671898,0.002000,-0.020947,0.341940
873.000000,0.002000,0.478685,0.630962,0.866560,1.802638,2.060201,2.792055,-3.580647,-4.004073,-6.591150,0.002000,2.427452,-0.028076
874.000000,0.002000,2.687254,2.542801,1.820336,0.720680,0.579953,0.157373,-0.774421,-0.680435,-0.509172,0.002000,-0.031920,0.001094
875.000000,0.002000,-1.136193,-0.951818,0.146937,1.823688,2.348608,0.181224,4.801900,4.074548,-0.627790,0.002000,0.238002,-0.888296
876.000000,0.002000,0.023148,0.037138,-0.328453,-2.573239,0.824903,4.628836,-1.478563,1.836329,14.028182,0.002000,0.487733,0.038807
877.000000,0.002000,-2.046929,-0.081963,-0.972712,1.562202,0.082698,1.810058,2.875412,0.177612,1.420698,0.002000,0.131035,0.272195
878.000000,0.002000,0.126553,0.097410,-0.845909,-1.417361,-0.445412,-4.092143,-2.006044,-1.041217,13.874237,0.002000,0.144908,-0.152632
879.000000,0.002000,-0.445046,0.349730,-0.472512,-0.854975,-0.272296,0.735007,9.545102,-6.375161,10.245921,0.002000,0.478685,-1.706308
880.000000,0.002000,-1.406662,-0.044868,-2.843222,0.283151,-0.115944,-0.706217,0.804678,0.052770,1.625165,0.002000,2.687254,-0.003150
881.000000,0.002000,-0.028208,0.240961,-0.213607,-0.553536,-1.562555,0.312380,0.346599,-11.569982,12.371427,0.002000,-1.136193,1.375016
882.000000,0.002000,0.600028,1.284826,1.814536,-0.088068,1.861372,-0.173946,-0.827249,-1.736307,-2.545782,0.002000,0.023148,-0.117383
883.000000,0.002000,-0.927068,0.579240,-0.049786,-0.292129,0.218928,1.072311,8.539128,-4.914155,0.275458,0.002000,-2.046929,0.773768
884.000000,0.002000,-0.026552,0.382470,-0.681311,-0.372390,-1.034085,1.973986,-1.124516,-6.848334,13.845918,0.002000,0.126553,0.557024
885.000000,0.002000,1.059076,-0.312860,-2.177744,1.097064,0.135079,-0.727126,-1.234282,0.425862,2.481709,0.002000,-0.445046,-0.623217
