# 
#                 columns are tag, mass, x, y, z, vx, vy, vz, ax, ay, az, EK, EU, E
#                 Time=4.000000
# 
1.000000,0.002000,-0.965816,1.855177,2.718965,1.091276,-0.271616,0.041734,0.404909,-0.779738,-1.233956,77.805584,-160.441864,-82.636280
2.000000,0.002000,-3.662986,-0.829365,-1.817689,-0.353940,-1.153902,1.537561,0.980939,0.210366,0.472701,0.000000,0.000000,0.000000
3.000000,0.002000,0.060487,-0.287569,0.234774,-2.163184,4.488139,-2.402870,1.271816,18.294514,-12.078847,0.000000,0.000000,-0.493999
4.000000,0.002000,-0.069916,0.543247,-0.546642,-0.963287,-1.315498,-3.355746,0.884044,-10.115739,11.360185,0.000000,0.000000,0.254199
5.000000,0.002000,0.159522,0.094204,-0.127459,3.135281,0.272823,2.419754,-8.147758,-7.191543,8.567778,0.000000,0.000000,0.000000
6.000000,0.002000,-0.079376,0.596025,-0.467451,-1.539154,-0.961277,-1.192454,1.351739,-11.815791,10.069712,0.000000,0.000000,0.000000
7.000000,0.002000,-0.061812,-2.707531,1.622114,0.082619,0.182519,-0.904501,0.025941,1.482027,-0.850796,1577139022369446083322798405560457826463402338589605888.000000,-0.965816,19362036824329726667078044942560177160192.000000
8.000000,0.002000,-0.095781,0.596827,-1.150059,0.687111,0.064988,1.713359,0.553959,-3.436638,6.981880,930382473798674171610975997523362011431124862008408021056652788629504.000000,-3.662986,77268007894141652587758838965633721351170685397350563490855598741069029398060065569841580272747320017578634489905194871220016637082740297716909580141993933119778107424768.000000
9.000000,0.002000,-2.608025,1.756532,0.731905,0.557190,-0.397262,-0.021993,1.409469,-0.914749,-0.384498,0.002000,0.060487,0.000000
10.000000,0.002000,1.502354,0.688395,-0.264553,-2.614679,-0.130631,1.578430,-4.573544,-2.030509,0.694538,0.002000,-0.069916,355165844870543141533764251366031310357801581856997481906176.000000
11.000000,0.002000,-0.447306,-0.304585,-0.301456,0.579056,-0.679957,2.579452,13.363844,7.032792,8.823102,0.002000,0.159522,0.000000
12.000000,0.002000,1.677554,2.161975,0.169522,-1.360058,-1.007686,-0.042830,-1.346036,-1.757172,-0.150777,0.002000,-0.079376,473595806555026443174084407095513684847650148674135551024968405003999107969406865564429060484911392342303636684106723068701344008390446486194224509978979251531953522181799077058976328935959007705997930025202040919031808.000000
13.000000,0.002000,-0.281346,0.424777,0.783615,-2.416880,-2.239044,0.717320,4.806317,-4.458007,-10.431252,0.002000,-0.061812,0.000000
14.000000,0.002000,1.711152,0.930497,-0.223029,0.852281,0.950677,0.763770,-3.305282,-1.957459,0.666514,0.002000,-0.095781,0.000000
15.000000,0.002000,-0.597587,-2.908576,-1.294346,-0.644113,-0.337013,-0.539081,0.269110,1.485357,0.633721,0.002000,-2.608025,0.000000
16.000000,0.002000,-0.114472,-1.592019,0.097758,-0.511729,2.463367,1.663128,0.167580,5.221341,-0.310934,0.002000,1.502354,0.000000
17.000000,0.002000,-0.121969,0.696899,0.079375,1.386729,-3.052460,-0.337893,1.710786,-15.497744,-2.779950,0.002000,-0.447306,0.000000
18.000000,0.002000,-0.253441,0.434984,0.782753,1.025066,1.397321,-0.400305,0.942783,-5.897716,-10.370639,0.002000,1.677554,0.000000
19.000000,0.002000,0.042865,-0.255848,-0.090481,0.455964,-1.034860,-0.206570,-5.661975,14.892850,3.558881,0.002000,-0.281346,0.000000
20.000000,0.002000,0.253427,-0.254933,-0.039719,2.288355,1.252086,1.942162,-15.487774,13.371088,5.575045,0.002000,1.711152,0.000000
21.000000,0.002000,-0.558904,0.344733,0.397784,0.903575,1.412379,2.183994,11.490819,-6.924691,-7.777464,0.002000,-0.597587,1.855177
22.000000,0.002000,0.757156,-0.932413,0.120514,0.923013,-1.816936,-0.073702,-5.065787,6.127358,-0.840113,0.002000,-0.114472,-0.829365
23.000000,0.002000,-0.340010,1.385096,1.050315,2.326784,-0.596276,1.391474,0.735173,-3.352119,-2.567883,0.002000,-0.121969,-0.287569
24.000000,0.002000,-0.103757,-0.322183,-0.024911,3.639993,1.476936,0.234442,4.661713,21.956907,1.314108,0.002000,-0.253441,0.543247
25.000000,0.002000,0.070920,-0.462840,-0.022481,2.428783,-2.185515,2.356980,-3.461345,19.509003,1.307702,0.002000,0.042865,0.094204
26.000000,0.002000,0.818590,1.654527,1.037294,1.342476,0.366636,-0.501700,-1.336642,-2.719288,-1.700527,0.002000,0.253427,0.596025
27.000000,0.002000,0.561649,0.338946,0.215305,0.524515,-1.168757,0.313389,-11.616035,-7.421376,-5.400914,0.002000,-0.558904,-2.707531
28.000000,0.002000,-0.035745,-0.316720,-0.449569,0.463175,-0.508504,-3.562141,-0.157769,11.562308,12.990846,0.002000,0.757156,0.596827
29.000000,0.002000,-3.147455,-2.937891,1.865149,0.152158,0.221270,0.352004,0.586887,0.539489,-0.363008,0.002000,-0.340010,1.756532
30.000000,0.002000,-0.675767,-1.217819,-0.400754,-0.303647,-1.097720,0.576485,2.734911,5.517067,1.357383,0.002000,-0.103757,0.688395
31.000000,0.002000,0.028513,-0.592108,-0.069157,-2.116387,-1.504209,0.068121,-2.225688,11.782083,0.994226,0.002000,0.070920,-0.304585
32.000000,0.002000,0.235953,-0.030325,0.196826,-1.676254,1.554927,0.390405,-16.748897,0.104819,-11.628244,0.002000,0.818590,2.161975
33.000000,0.002000,-0.344719,-0.300044,-1.022456,-0.150019,-1.375665,-1.076650,2.843219,3.003797,8.445520,0.002000,0.561649,0.424777
34.000000,0.002000,-0.188212,-1.282231,1.081874,-1.221793,0.438552,-1.595093,0.383078,3.618596,-3.072717,0.002000,-0.035745,0.930497
35.000000,0.002000,-1.056486,-0.356743,0.737989,1.630276,1.536154,-2.799728,5.762664,-0.446278,-5.355400,0.002000,-3.147455,-2.908576
36.000000,0.002000,0.366470,-1.338621,1.289313,0.664526,1.517408,-2.067699,-0.818705,2.741247,-2.680685,0.002000,-0.675767,-1.592019
37.000000,0.002000,-3.132424,-3.521746,2.942813,0.008344,-0.167546,0.711898,0.361856,0.396318,-0.334937,0.002000,0.028513,0.696899
38.000000,0.002000,-0.231838,-0.718706,1.008665,0.997512,-0.307366,1.324591,1.151977,4.193379,-6.223691,0.002000,0.235953,0.434984
39.000000,0.002000,0.226754,-0.242164,-0.385426,-1.623781,2.724875,-0.520801,-7.779091,8.588434,14.092611,0.002000,-0.344719,-0.255848
40.000000,0.002000,0.392463,0.124528,0.590936,0.942657,2.116449,3.363282,-8.023392,-1.035852,-11.916936,0.002000,-0.188212,-0.254933
41.000000,0.002000,-0.342103,0.611869,0.305714,-1.040431,3.087779,-0.464237,6.429482,-12.299173,-7.062893,0.002000,-1.056486,0.344733
42.000000,0.002000,0.705879,1.072926,-3.043708,0.659138,-0.444369,0.164780,-0.381696,-0.548445,1.516607,0.002000,0.366470,-0.932413
43.000000,0.002000,-0.251670,1.622234,0.439257,2.217664,-0.768100,-1.926462,0.871222,-4.842589,-1.342437,0.002000,-3.132424,1.385096
44.000000,0.002000,-0.158525,0.435683,-0.185625,-2.553818,1.208061,2.155201,5.377579,-15.007328,8.474516,0.002000,-0.231838,-0.322183
45.000000,0.002000,-0.588761,0.108863,-0.035463,-1.478911,1.163074,3.230244,15.280468,-2.471482,0.958128,0.002000,0.226754,-0.462840
46.000000,0.002000,0.144420,-0.017154,0.209312,1.958514,1.080651,-2.693747,-10.094302,-1.880961,-17.276988,0.002000,0.392463,1.654527
47.000000,0.002000,-0.266142,0.081985,0.157114,-4.848046,-2.890282,-0.897699,14.919436,1.422178,-10.881011,0.002000,-0.342103,0.338946
48.000000,0.002000,-0.139322,0.212338,-0.058993,-4.522442,-0.354198,-1.722023,4.478936,-11.596117,-0.279143,0.002000,0.705879,-0.316720
49.000000,0.002000,-3.859642,-0.950389,-0.257688,0.402397,0.194181,-0.226043,1.124623,0.285998,0.057476,0.002000,-0.251670,-2.937891
50.000000,0.002000,-0.028976,0.537558,0.411826,-1.460407,2.963273,1.207735,0.182786,-11.334520,-9.972844,0.002000,-0.158525,-1.217819
51.000000,0.002000,-0.915563,0.496815,-0.198678,1.579116,-1.596469,0.442684,9.268635,-5.206849,2.103416,0.002000,-0.588761,-0.592108
52.000000,0.002000,-0.048867,-0.011775,-0.328603,3.856487,0.257055,-1.564081,-0.456898,1.318000,17.028799,0.002000,0.144420,-0.030325
53.000000,0.002000,-0.050090,-0.295983,-0.195222,-2.051603,-4.008862,-2.031091,-4.647182,21.830610,14.955873,0.002000,-0.266142,-0.300044
54.000000,0.002000,0.823335,0.658383,-0.787276,0.197316,-0.098158,2.746430,-4.535081,-3.378506,4.436705,0.002000,-0.139322,-1.282231
55.000000,0.002000,-0.065069,-0.057229,0.507185,-1.692176,-0.347727,0.830220,0.063819,2.656521,-18.136057,0.002000,-3.859642,-0.356743
56.000000,0.002000,0.246381,-0.365638,0.120210,2.068351,-2.934050,-1.334961,-10.261047,16.059651,-4.522889,0.002000,-0.028976,-1.338621
57.000000,0.002000,1.521872,1.308438,1.925761,1.106128,-1.081342,-0.453790,-1.138112,-0.957847,-1.503448,0.002000,-0.915563,-3.521746
58.000000,0.002000,-0.026779,0.027111,-0.455267,1.269692,3.624250,4.264929,-1.314948,0.305068,17.169603,0.002000,-0.048867,-0.718706
59.000000,0.002000,-0.713501,0.517889,-0.049556,-1.042666,0.458618,2.516769,11.726388,-7.069196,-0.052296,0.002000,-0.050090,-0.242164
60.000000,0.002000,0.154936,-0.021085,0.158318,0.513648,-1.353638,0.916576,-12.082457,0.176348,-7.661555,0.002000,0.823335,0.124528
61.000000,0.002000,0.407619,-0.187454,-0.249702,-2.449032,-2.607060,0.207619,-15.062145,6.895540,10.379470,0.002000,-0.065069,0.611869
62.000000,0.002000,-2.341543,-0.060418,3.671026,-0.544234,0.153107,-0.566963,0.527671,0.036306,-0.815087,0.002000,0.246381,1.072926
63.000000,0.002000,0.339523,-0.010891,-0.116944,-2.647838,0.580351,-0.331147,-15.747333,0.643614,4.471275,0.002000,1.521872,1.622234
64.000000,0.002000,-0.169723,0.489019,0.015622,-4.357082,0.714052,-1.426927,3.595287,-19.020403,-4.221857,0.002000,-0.026779,0.435683
65.000000,0.002000,0.693037,0.767792,0.162214,-0.765290,1.896850,-1.327541,-6.722528,-7.111609,-1.927640,0.002000,-0.713501,0.108863
66.000000,0.002000,-0.153868,0.744657,0.931145,-1.224173,-0.656366,-1.392981,1.039077,-5.213362,-6.536562,0.002000,0.154936,-0.017154
67.000000,0.002000,-1.101122,-3.162834,1.175931,0.329278,0.144112,-0.036372,0.296560,1.229362,-0.509896,0.002000,0.407619,0.081985
68.000000,0.002000,-0.135181,-0.684283,-1.417990,-0.606648,1.758221,-0.138816,0.366875,2.677115,4.891690,0.002000,-2.341543,0.212338
69.000000,0.002000,1.633119,-1.894668,0.707160,-0.959045,-0.891962,-1.021939,-1.479712,1.727433,-0.643238,0.002000,0.339523,-0.950389
70.000000,0.002000,-0.937200,-0.444530,0.954640,0.634499,-1.250424,0.763195,3.916959,2.097291,-4.749100,0.002000,-0.169723,0.537558
71.000000,0.002000,-0.256242,0.135239,-0.531917,1.083198,3.531152,-1.920955,4.453504,-2.262164,14.078011,0.002000,0.693037,0.496815
72.000000,0.002000,-0.295898,-0.296508,-0.162570,2.486123,1.803016,3.668876,8.913251,14.473199,5.968149,0.002000,-0.153868,-0.011775
73.000000,0.002000,-2.218997,2.319336,-1.598989,0.098681,0.066233,0.733411,0.875880,-0.903268,0.637136,0.002000,-1.101122,-0.295983
74.000000,0.002000,0.009860,0.585793,0.245158,-0.142127,-0.438234,-0.300532,-0.861375,-16.163351,-4.839283,0.002000,-0.135181,0.658383
75.000000,0.002000,-2.471165,0.686109,-0.625523,1.745553,-0.094120,-0.808239,2.249947,-0.608449,0.544111,0.002000,1.633119,-0.057229
76.000000,0.002000,0.382523,-0.629487,-0.633732,-0.150740,-0.494319,-0.583712,-4.629854,6.770904,7.102840,0.002000,-0.937200,-0.365638
77.000000,0.002000,0.345599,-0.058315,-0.708116,-0.797397,-0.762210,-0.417587,-6.750172,2.017437,12.075356,0.002000,-0.256242,1.308438
78.000000,0.002000,-0.083543,0.019204,-0.487135,-1.675975,-1.892045,3.195935,3.013665,-0.244659,19.384664,0.002000,-0.295898,0.027111
79.000000,0.002000,0.688238,-0.136450,-0.489334,2.450084,1.701492,0.793605,-9.564629,1.789036,7.236308,0.002000,-2.218997,0.517889
80.000000,0.002000,-1.300480,3.628050,-0.852219,-0.958461,-0.139827,0.447541,0.407541,-1.150524,0.316875,0.002000,0.009860,-0.021085
81.000000,0.002000,-0.190223,-0.068073,0.038460,2.058560,0.512844,0.147320,14.234949,6.348188,-9.003044,0.002000,-2.471165,-0.187454
82.000000,0.002000,0.813360,0.593597,0.013175,-1.301957,-1.015064,-3.078520,-8.462961,-5.404200,0.139886,0.002000,0.382523,-0.060418
83.000000,0.002000,0.487630,0.507746,-0.348282,2.222840,0.131624,3.406374,-9.728405,-7.333784,5.561262,0.002000,0.345599,-0.010891
84.000000,0.002000,-1.713655,-1.423687,0.460521,-0.497096,-0.926987,0.449790,2.234971,1.937235,-0.641342,0.002000,-0.083543,0.489019
85.000000,0.002000,-0.323344,0.297751,-0.299919,2.537609,-0.215017,-4.911592,13.305526,-11.841813,12.060164,0.002000,0.688238,0.767792
86.000000,0.002000,-0.500623,0.425179,0.858706,0.611638,-1.256256,1.802568,4.047952,-3.723697,-8.362711,0.002000,-1.300480,0.744657
87.000000,0.002000,-0.358621,0.546838,-0.012723,0.861550,-4.029517,-1.316883,9.855115,-13.446333,0.553600,0.002000,-0.190223,-3.162834
88.000000,0.002000,-0.784222,0.143810,-0.144880,0.683912,1.821032,0.280819,14.753396,-2.745843,2.951198,0.002000,0.813360,-0.684283
89.000000,0.002000,0.705685,1.081507,-0.027216,3.133586,1.269103,-0.734841,-4.345361,-5.877457,0.381534,0.002000,0.487630,-1.894668
90.000000,0.002000,-0.028952,-0.084874,0.047370,0.594292,-0.767485,-0.515885,2.225883,2.358352,-3.013529,0.002000,-1.713655,-0.444530
91.000000,0.002000,-2.459729,-1.334340,-4.026114,-0.571366,-1.480335,-0.531966,0.399258,0.229338,0.662246,0.002000,-0.323344,0.135239
92.000000,0.002000,0.049526,0.068085,-0.006233,-3.837453,2.155284,2.501968,-5.357541,-8.456998,-0.398356,0.002000,-0.500623,-0.296508
93.000000,0.002000,1.406299,-0.783894,-1.496628,-1.816752,1.437358,-0.268393,-2.033567,1.152775,2.055685,0.002000,-0.358621,2.319336
94.000000,0.002000,-1.296061,1.893408,2.623985,0.801276,-0.212474,-0.059120,0.606126,-0.721934,-1.224875,0.002000,-0.784222,0.585793
95.000000,0.002000,-0.671505,-1.215304,-0.474006,-0.935235,-0.540505,-0.317321,2.597570,5.308549,2.327081,0.002000,0.705685,0.686109
96.000000,0.002000,0.572628,0.045221,0.598771,1.233248,0.543119,0.935731,-9.319403,0.084803,-9.042890,0.002000,-0.028952,-0.629487
97.000000,0.002000,0.068843,-0.552432,0.319304,2.122126,2.620755,-1.295364,-2.080368,13.442618,-6.961803,0.002000,-2.459729,-0.058315
98.000000,0.002000,0.362240,-2.714615,3.511121,-0.087362,0.160748,0.101630,-0.088656,0.601720,-0.774480,0.002000,0.049526,0.019204
99.000000,0.002000,-0.057360,-0.089120,0.254042,0.813234,-0.502455,-1.919762,0.553442,4.384443,-15.179900,0.002000,1.406299,-0.136450
100.000000,0.002000,-0.229860,-0.402387,0.324237,-1.810971,-0.440369,1.312890,2.119719,16.767338,-10.028735,0.002000,-1.296061,3.628050
101.000000,0.002000,-0.166449,0.553710,-0.301694,3.421327,-2.321721,-1.086436,5.083914,-15.567408,8.825989,0.002000,-0.671505,-0.068073
102.000000,0.002000,-0.307931,0.594018,-0.408560,-1.679321,-0.159576,2.420010,5.546187,-10.947248,7.944369,0.002000,0.572628,0.593597
103.000000,0.002000,-0.294029,1.124565,-0.772195,-0.079241,-2.854635,2.031701,1.319704,-5.490809,3.826734,0.002000,0.068843,0.507746
104.000000,0.002000,-0.361826,0.588586,0.188783,0.073532,-0.263608,-2.508758,8.238558,-13.716693,-4.758484,0.002000,0.362240,-1.423687
105.000000,0.002000,0.159415,-0.749473,1.663894,1.783656,1.537372,-0.103458,-0.436286,1.759979,-3.795729,0.002000,-0.057360,0.297751
106.000000,0.002000,0.096989,0.201652,0.242065,-0.964733,-1.277566,-0.000143,-8.944677,-8.819353,-15.977701,0.002000,-0.229860,0.425179
107.000000,0.002000,-0.022791,0.325518,-0.427313,-0.503462,-0.239226,0.422756,0.276349,-8.347250,14.158106,0.002000,-0.166449,0.546838
108.000000,0.002000,-0.959132,-0.200789,-0.407334,0.296450,-0.057704,0.385780,9.621498,2.095470,4.018867,0.002000,-0.307931,0.143810
109.000000,0.002000,0.534273,0.289103,-0.133061,1.332991,-1.602859,2.240143,-13.250530,-6.936916,4.220971,0.002000,-0.294029,1.081507
110.000000,0.002000,-1.137671,-0.319645,-3.246172,0.392670,-0.186124,-0.183564,0.489699,0.169127,1.399815,0.002000,-0.361826,-0.084874
111.000000,0.002000,0.308002,0.141798,-0.233462,-2.361537,2.716214,-1.559007,-14.841481,-4.856737,9.501943,0.002000,0.159415,-1.334340
112.000000,0.002000,1.579524,-0.170382,0.686080,-2.811643,-0.861838,-0.697845,-4.232750,0.521577,-1.827396,0.002000,0.096989,0.068085
113.000000,0.002000,-1.085567,-4.790408,-4.054733,0.790645,-0.507936,0.074967,0.081165,0.369784,0.310227,0.002000,-0.022791,-0.783894
114.000000,0.002000,-0.091595,0.378482,0.291835,-4.306774,-2.221892,1.494868,0.443656,-17.402711,-12.803176,0.002000,-0.959132,1.893408
115.000000,0.002000,-0.564982,0.089386,-0.321482,-1.709701,0.627033,-0.605916,14.035730,-1.158733,9.029207,0.002000,0.534273,-1.215304
116.000000,0.002000,-0.155512,0.125217,0.050282,0.679268,-1.240270,0.863796,7.893469,-7.526133,-3.894656,0.002000,-1.137671,0.045221
117.000000,0.002000,-0.314907,-0.442923,0.373791,-2.312851,1.088938,-0.736009,6.588253,13.432480,-10.158309,0.002000,0.308002,-0.552432
118.000000,0.002000,0.449905,-0.305863,0.051130,-2.833136,0.030845,-2.254673,-12.720308,9.202927,-2.069005,0.002000,1.579524,-2.714615
119.000000,0.002000,-0.723416,-1.318936,1.262397,0.688006,0.703514,0.327716,1.389637,2.610950,-2.385207,0.002000,-1.085567,-0.089120
120.000000,0.002000,0.045279,-0.087065,0.470366,-0.892423,-2.713840,0.531809,-3.654086,3.191070,-19.059700,0.002000,-0.091595,-0.402387
121.000000,0.002000,0.088500,-0.400414,0.412003,0.878750,2.977290,-1.309863,-3.215353,12.847116,-11.940894,0.002000,-0.564982,0.553710
122.000000,0.002000,-0.035209,0.337493,-0.130712,-1.762098,-1.198686,0.271871,-0.339131,-15.170943,4.284730,0.002000,-0.155512,0.594018
123.000000,0.002000,1.274956,0.033858,1.177072,-0.972778,0.783782,-0.874218,-3.570302,0.067712,-3.234593,0.002000,-0.314907,1.124565
124.000000,0.002000,-0.787560,0.437791,0.104734,-0.011218,-0.100650,-1.232534,12.879774,-6.609622,-2.700117,0.002000,0.449905,0.588586
125.000000,0.002000,0.813633,-0.292994,-0.292915,-2.023615,0.663980,2.205697,-10.449895,4.355750,3.876985,0.002000,-0.723416,-0.749473
126.000000,0.002000,-0.042414,-1.943944,-2.234632,0.288413,1.276162,-0.226710,0.081362,1.360764,1.412341,0.002000,0.045279,0.201652
127.000000,0.002000,-0.390932,0.786577,-0.915843,-1.964385,-0.551012,3.079572,2.435222,-4.760313,6.094996,0.002000,0.088500,0.325518
128.000000,0.002000,0.438655,4.017128,0.769681,0.165662,0.398467,-0.042453,-0.138866,-1.100024,-0.210018,0.002000,-0.035209,-0.200789
129.000000,0.002000,1.138649,0.242800,-0.161345,-2.751995,0.611436,0.863621,-7.886918,-1.597697,1.315142,0.002000,1.274956,0.289103
130.000000,0.002000,-0.188613,1.200859,0.225387,-1.729292,1.472458,-0.333242,0.401066,-7.838336,-0.271610,0.002000,-0.787560,-0.319645
131.000000,0.002000,0.020863,0.416869,-0.301906,-1.619634,3.467932,0.442994,-1.614518,-15.649982,11.721978,0.002000,0.813633,0.141798
132.000000,0.002000,0.554636,0.550277,0.078186,-0.661251,2.571354,-1.711744,-10.195885,-8.792547,-1.828444,0.002000,-0.042414,-0.170382
133.000000,0.002000,2.137993,0.433671,1.753893,-1.465964,0.977758,0.093040,-0.561586,-0.390002,-1.824526,0.002000,-0.390932,-4.790408
134.000000,0.002000,-0.885040,0.392274,-2.288195,1.311118,-0.891460,0.920219,0.875024,-0.370768,2.417855,0.002000,0.438655,0.378482
135.000000,0.002000,0.008936,-0.584740,-0.534499,0.774637,4.663718,0.611420,-1.107734,10.012103,9.084336,0.002000,1.138649,0.089386
136.000000,0.002000,0.088335,0.271231,-0.700699,-0.999575,-1.052772,1.557968,-2.138596,-5.968371,15.519081,0.002000,-0.188613,0.125217
137.000000,0.002000,-0.183868,-0.131953,0.542623,-0.474210,-1.677951,-3.397257,4.981136,4.278951,-16.390720,0.002000,0.020863,-0.442923
138.000000,0.002000,-1.755963,0.818139,0.347917,-0.518990,-1.065863,-0.127420,3.557673,-1.713112,-0.743181,0.002000,0.554636,-0.305863
139.000000,0.002000,-0.428096,1.302536,0.310830,1.499786,-1.358261,-0.212730,2.181514,-6.473312,-1.573659,0.002000,2.137993,-1.318936
140.000000,0.002000,0.515304,1.367715,0.779183,0.853264,0.022824,-2.971110,-1.454230,-4.149095,-2.344350,0.002000,-0.885040,-0.087065
141.000000,0.002000,1.413851,-3.163704,-1.366607,0.270241,0.590173,-0.805737,-0.474461,1.107551,0.454912,0.002000,0.008936,-0.400414
142.000000,0.002000,0.286222,-0.348850,-0.274987,-1.678773,2.309953,0.862617,-9.382879,12.173056,9.071292,0.002000,0.088335,0.337493
143.000000,0.002000,0.559448,6.082563,1.556783,0.239114,0.761810,0.214692,-0.047185,-0.488542,-0.127501,0.002000,-0.183868,0.033858
144.000000,0.002000,-0.172706,0.584114,0.203602,-0.282518,0.403952,1.784671,3.182136,-16.342991,-5.594694,0.002000,-1.755963,0.437791
145.000000,0.002000,0.363341,0.260186,-0.480607,3.024756,-0.146853,1.827918,-8.530127,-8.748065,13.882668,0.002000,-0.428096,-0.292994
146.000000,0.002000,0.117374,0.032540,-0.335360,1.912923,1.241940,-1.325184,-6.541849,-0.253319,16.722104,0.002000,0.515304,-1.943944
147.000000,0.002000,-0.043880,-0.447976,-0.308834,3.019875,1.776579,-0.206236,0.314899,14.067579,9.993860,0.002000,1.413851,0.786577
148.000000,0.002000,0.339930,-1.041408,1.201862,1.432736,-1.303683,1.316293,-1.000829,3.272434,-3.761767,0.002000,0.286222,4.017128
149.000000,0.002000,0.141268,0.082465,-0.170474,-0.356377,1.755041,-2.830640,-10.554516,-4.685767,10.803891,0.002000,0.559448,0.242800
150.000000,0.002000,-0.489730,-0.183423,-0.114199,1.268130,-1.961291,3.438502,12.916713,9.504427,3.389940,0.002000,-0.172706,1.200859
151.000000,0.002000,1.091967,0.872313,0.503553,-0.842399,-1.888720,-1.155867,-4.561888,-3.487793,-2.039157,0.002000,0.363341,0.416869
152.000000,0.002000,-0.358595,0.697439,0.628142,-1.319685,2.196978,-1.575207,3.965694,-8.421599,-7.685000,0.002000,0.117374,0.550277
153.000000,0.002000,-0.768859,1.779207,-0.642246,1.077624,0.521668,0.459133,1.475747,-3.279876,1.153171,0.002000,-0.043880,0.433671
154.000000,0.002000,0.321218,-0.280949,0.412753,1.376049,-1.743760,0.817187,-10.001646,10.250085,-13.133986,0.002000,0.339930,0.392274
155.000000,0.002000,0.069607,0.031050,0.165195,-1.699977,-0.254261,-0.721525,-5.780864,-5.335781,-10.804712,0.002000,0.141268,-0.584740
156.000000,0.002000,-0.977851,-0.704734,-4.333793,0.921295,-0.352836,-0.265536,0.217594,0.157183,0.920053,0.002000,-0.489730,0.271231
157.000000,0.002000,3.020572,2.384066,2.174826,-0.441208,0.052219,-0.363148,-0.679013,-0.512892,-0.500815,0.002000,1.091967,-0.131953
158.000000,0.002000,0.349339,0.141092,-0.313467,1.096431,0.363178,-2.049571,-12.456412,-4.855565,11.876955,0.002000,-0.358595,0.818139
159.000000,0.002000,0.095731,0.134742,0.716486,3.922561,1.323891,-0.808824,-3.940515,-2.032688,-14.864044,0.002000,-0.768859,1.302536
160.000000,0.002000,-0.694743,-1.593807,-1.712338,0.496620,-0.745683,-0.153092,0.752754,1.784408,1.844932,0.002000,0.321218,1.367715
161.000000,0.002000,-0.747233,-0.072259,0.580971,-0.861066,2.089642,0.999449,9.633976,1.695075,-8.889940,0.002000,0.069607,-3.163704
162.000000,0.002000,-1.802861,-4.039262,-1.200540,-0.421353,-0.193955,-1.170452,0.350258,0.807283,0.231402,0.002000,-0.977851,-0.348850
163.000000,0.002000,1.144561,-1.776056,-1.827014,0.342889,1.159073,0.812781,-0.890440,1.391877,1.344537,0.002000,3.020572,6.082563
164.000000,0.002000,0.260995,-0.076699,-0.280473,0.193835,-2.893598,1.497604,-12.887299,4.767848,12.567672,0.002000,0.349339,0.584114
165.000000,0.002000,-0.664093,-5.664495,0.974889,0.130019,-0.552577,0.661437,0.064898,0.576678,-0.100896,0.002000,0.095731,0.260186
166.000000,0.002000,0.390349,0.873416,0.809589,-0.273996,-2.723913,-0.525272,-2.253146,-4.894151,-5.670530,0.002000,-0.694743,0.032540
167.000000,0.002000,-0.444641,-0.056208,-0.800974,2.869665,0.554247,0.308924,5.610935,2.321235,11.143786,0.002000,-0.747233,-0.447976
168.000000,0.002000,0.178325,0.218096,-0.385635,0.351749,-0.692213,0.455513,-8.536060,-7.401469,13.989005,0.002000,-1.802861,-1.041408
169.000000,0.002000,0.439274,-0.538654,1.389039,0.102273,-0.475932,0.483495,-1.529697,2.020143,-4.937913,0.002000,1.144561,0.082465
170.000000,0.002000,-0.054767,2.950630,-2.373015,-0.426394,-0.481304,0.500824,0.021884,-0.966845,0.815420,0.002000,0.260995,-0.183423
171.000000,0.002000,-0.952534,0.959176,-1.332562,2.296023,-0.268509,1.129151,1.787044,-1.889276,3.021370,0.002000,-0.664093,0.872313
172.000000,0.002000,1.090837,-2.482687,2.269253,-0.943002,0.215829,-0.359759,-0.458626,0.997738,-0.941170,0.002000,0.390349,0.697439
173.000000,0.002000,0.667408,0.636305,0.172176,0.050204,1.239261,0.230150,-8.215922,-7.409025,-2.604382,0.002000,-0.444641,1.779207
174.000000,0.002000,0.193921,-2.929867,-0.284747,0.590676,1.096838,-0.385572,-0.158652,1.857092,0.204994,0.002000,0.178325,-0.280949
175.000000,0.002000,1.384229,-0.207409,-0.754997,0.376344,-2.297770,-1.211114,-4.707415,0.864837,2.373533,0.002000,0.439274,0.031050
176.000000,0.002000,0.892674,-0.220912,-1.406783,0.527248,-1.981724,-1.186678,-2.692868,0.687667,4.072994,0.002000,-0.054767,-0.704734
177.000000,0.002000,1.921514,-4.791385,-0.968319,-0.364500,-1.134853,-1.141340,-0.263100,0.635094,0.129619,0.002000,-0.952534,2.384066
178.000000,0.002000,0.243199,0.211865,-0.206557,-0.363138,2.956538,-0.004938,-11.444772,-8.588210,8.644954,0.002000,1.090837,0.141092
179.000000,0.002000,0.112825,0.217286,-0.238344,-4.113380,-0.710519,-2.189372,-9.164906,-8.353361,11.934969,0.002000,0.667408,0.134742
180.000000,0.002000,-0.516052,0.045368,-0.527195,1.406119,-1.094646,1.637204,11.026934,1.774909,11.492110,0.002000,0.193921,-1.593807
181.000000,0.002000,0.199387,-0.361218,0.337431,0.889457,-4.625441,0.013751,-6.504792,12.579993,-10.855296,0.002000,1.384229,-0.072259
182.000000,0.002000,2.650541,1.185816,0.434235,0.631826,-0.928745,-0.764893,-1.685430,-0.739298,-0.303981,0.002000,0.892674,-4.039262
183.000000,0.002000,-0.120061,-1.748799,-4.728504,0.315078,-1.221999,-0.419471,0.015561,0.276041,0.724992,0.002000,1.921514,-1.776056
184.000000,0.002000,-0.076535,0.173784,0.282743,-4.040842,0.950724,-2.010661,2.181967,-7.156513,-15.130282,0.002000,0.243199,-0.076699
185.000000,0.002000,0.869808,0.463969,-0.759999,0.780439,-1.031112,0.270250,-5.360272,-2.714702,4.829560,0.002000,0.112825,-5.664495
186.000000,0.002000,-0.676510,-1.637755,-3.027200,0.647403,-1.228931,-0.114933,0.288149,0.720867,1.258471,0.002000,-0.516052,0.873416
187.000000,0.002000,2.150534,-2.250684,-1.196672,-0.534818,-0.008681,0.660177,-1.021764,1.017678,0.530114,0.002000,0.199387,-0.056208
188.000000,0.002000,0.010762,0.582045,0.380170,0.291404,-3.318075,2.563041,-1.038487,-12.165178,-8.624428,0.002000,2.650541,0.218096
189.000000,0.002000,-0.020270,-0.745092,-0.025786,-3.468662,-3.420472,1.643027,-1.100009,11.837489,-2.175947,0.002000,-0.120061,-0.538654
190.000000,0.002000,-0.378441,0.397356,0.017308,1.921858,0.799594,1.302924,12.775799,-15.020806,-1.071533,0.002000,-0.076535,2.950630
191.000000,0.002000,0.438118,0.186281,-0.813246,-0.071869,-0.537783,-0.351304,-6.124759,-1.775077,9.662776,0.002000,0.869808,0.959176
192.000000,0.002000,0.747479,0.838073,-0.835977,1.034686,-0.612989,0.691945,-3.576265,-3.507316,4.453066,0.002000,-0.676510,-2.482687
193.000000,0.002000,-0.194533,0.321486,0.080771,-1.247343,1.808431,-0.704612,7.629025,-19.120888,-5.702086,0.002000,2.150534,0.636305
194.000000,0.002000,-2.001002,-2.371519,1.211489,1.127210,-0.072485,-0.625039,0.933466,1.132858,-0.583583,0.002000,0.010762,-2.929867
195.000000,0.002000,-1.197719,0.568558,-0.286342,-1.343749,0.138798,1.225828,6.650731,-3.181652,1.564372,0.002000,-0.020270,-0.207409
196.000000,0.002000,0.060239,0.502834,-0.246577,1.721271,-2.638228,-0.072957,-3.684091,-16.524700,7.646237,0.002000,-0.378441,-0.220912
197.000000,0.002000,0.495116,-5.868708,-1.880425,0.190191,0.434937,-0.411059,-0.042707,0.486311,0.154770,0.002000,0.438118,-4.791385
198.000000,0.002000,-0.587791,-0.131199,-0.015884,-1.512730,-0.513823,-0.922500,17.858838,4.880584,-1.031656,0.002000,0.747479,0.211865
199.000000,0.002000,0.056291,0.837864,0.136303,-1.029398,-0.006707,1.837610,-1.539054,-12.829588,-2.324280,0.002000,-0.194533,0.217286
200.000000,0.002000,-0.106244,-0.502165,0.496957,0.861809,1.804342,0.712790,3.093559,10.578036,-10.156609,0.002000,-2.001002,0.045368
201.000000,0.002000,1.894417,-0.701301,1.667514,-1.274160,0.512931,-1.093637,-1.671532,0.652518,-1.500356,0.002000,-1.197719,-0.361218
202.000000,0.002000,-1.726378,-1.019504,0.017124,-2.086118,-0.573186,0.287810,3.236806,2.000460,-0.103047,0.002000,0.060239,1.185816
203.000000,0.002000,0.161133,-1.131482,-0.794857,0.315546,1.354932,-1.208405,-0.813550,5.262194,3.392943,0.002000,0.495116,-1.748799
204.000000,0.002000,-0.278191,-0.478439,-0.419089,3.467470,-2.614229,0.177153,4.149990,11.818373,9.803136,0.002000,-0.587791,0.173784
205.000000,0.002000,0.684055,-0.001673,-1.182365,-0.478732,-1.534191,-0.582451,-3.375477,0.370990,5.751106,0.002000,0.056291,0.463969
206.000000,0.002000,-0.413193,-0.331828,-0.151042,1.878904,0.672666,1.314317,13.240952,7.528606,4.191484,0.002000,-0.106244,-1.637755
207.000000,0.002000,-3.462640,2.366277,-1.403544,0.204117,-0.246981,0.184409,0.775364,-0.530475,0.321565,0.002000,1.894417,-2.250684
208.000000,0.002000,0.618358,0.160096,0.687327,0.242063,-0.908497,-1.172393,-9.013696,-1.524726,-7.946431,0.002000,-1.726378,0.582045
209.000000,0.002000,0.013374,0.621138,-0.476101,-1.507740,-0.643156,-1.208822,-1.079521,-11.412040,9.584406,0.002000,0.161133,-0.745092
210.000000,0.002000,0.412411,-0.134862,0.291801,2.794744,1.670604,-3.624393,-14.608126,4.931149,-10.255886,0.002000,-0.278191,0.397356
211.000000,0.002000,0.132915,-0.074917,0.034090,-1.341573,-2.645669,2.812262,-10.123215,6.288037,-3.216418,0.002000,0.684055,0.186281
212.000000,0.002000,0.005597,0.059311,-0.218681,1.306709,2.147249,-0.563676,-2.615121,-1.136701,13.564870,0.002000,-0.413193,0.838073
213.000000,0.002000,-0.717524,0.422305,0.298119,-1.273770,1.118692,-1.583918,9.962030,-6.472491,-3.962057,0.002000,-3.462640,0.321486
214.000000,0.002000,0.197207,0.197715,0.375362,-4.719465,3.116245,0.073110,-6.553371,-4.804467,-13.942728,0.002000,0.618358,-2.371519
215.000000,0.002000,-0.268104,0.478356,1.606917,1.417962,-1.389862,0.152633,0.687916,-1.285445,-4.777672,0.002000,0.013374,0.568558
216.000000,0.002000,-0.061851,-0.333644,-0.112945,-0.184141,1.678723,4.788132,-0.270806,20.011554,6.956432,0.002000,0.412411,0.502834
217.000000,0.002000,0.316706,-1.480075,0.207899,0.144611,1.606343,-1.471734,-1.117694,5.373696,-0.716151,0.002000,0.132915,-5.868708
218.000000,0.002000,-2.421211,-2.391048,-1.717068,-1.075196,0.555180,0.628637,0.750294,0.834943,0.575198,0.002000,0.005597,-0.131199
219.000000,0.002000,-0.285905,-0.119766,-0.131614,-0.377611,-0.076323,-1.113026,14.137110,7.039935,6.954215,0.002000,-0.717524,0.837864
220.000000,0.002000,1.550006,-0.000031,-1.171436,-0.491832,0.168018,1.309673,-3.155416,0.225513,2.348476,0.002000,0.197207,-0.502165
221.000000,0.002000,-2.245964,0.635692,2.132211,-0.256434,-0.957654,0.053430,1.217565,-0.323572,-1.198661,0.002000,-0.268104,-0.701301
222.000000,0.002000,-0.228979,-0.079140,-0.259012,-1.337713,1.780953,1.742599,11.099704,4.939968,12.753562,0.002000,-0.061851,-1.019504
223.000000,0.002000,0.942141,-3.019820,-0.049380,-0.091039,0.543988,-0.576503,-0.510506,1.603544,0.017048,0.002000,0.316706,-1.131482
224.000000,0.002000,0.157253,1.919432,-2.389720,0.271390,-1.476170,-0.079755,-0.079059,-1.145005,1.436948,0.002000,-2.421211,-0.478439
225.000000,0.002000,-1.219935,-0.472135,-0.061370,-1.527394,0.825032,-1.534915,7.090728,2.927214,0.479814,0.002000,-0.285905,-0.001673
226.000000,0.002000,-0.182194,0.027430,-0.150967,-3.697597,-1.619767,0.598372,7.367268,4.193046,9.877234,0.002000,1.550006,-0.331828
227.000000,0.002000,-0.088640,-0.261050,-0.215421,0.814385,-3.137621,-3.092311,3.017119,14.982541,13.804853,0.002000,-2.245964,2.366277
228.000000,0.002000,1.654531,1.235923,1.399038,-0.921073,-0.994864,1.366714,-1.679608,-1.204806,-1.518671,0.002000,-0.228979,0.160096
229.000000,0.002000,4.912058,-2.252636,0.241915,0.430703,1.104251,-0.870869,-0.602058,0.276688,-0.033960,0.002000,0.942141,0.621138
230.000000,0.002000,-1.113755,-3.659154,-3.497381,-0.438989,-0.440342,0.038177,0.187712,0.501601,0.505574,0.002000,0.157253,-0.134862
231.000000,0.002000,0.684558,0.969312,-0.677937,-1.247855,-0.002133,-0.674996,-3.708026,-5.401690,2.008359,0.002000,-1.219935,-0.074917
232.000000,0.002000,-0.555823,-0.463970,0.159693,3.213541,2.556446,-1.344491,11.859594,8.905514,-4.093205,0.002000,-0.182194,0.059311
233.000000,0.002000,-0.033578,-0.169768,-0.805739,0.194985,1.210525,0.609908,-0.389490,4.739809,14.285843,0.002000,-0.088640,0.422305
234.000000,0.002000,-0.726406,0.551692,1.356610,-0.962104,2.409752,0.774206,2.231357,-1.760742,-4.533083,0.002000,1.654531,0.197715
235.000000,0.002000,0.724681,0.017425,-0.142923,-3.570894,-1.853702,1.387126,-14.459322,0.030814,2.585996,0.002000,4.912058,0.478356
236.000000,0.002000,1.159799,2.078610,-1.533377,0.827058,-0.977619,1.237126,-0.875949,-1.516953,1.151876,0.002000,-1.113755,-0.333644
237.000000,0.002000,-0.357516,0.270918,0.321392,1.465543,4.073767,0.880335,11.174823,-8.462355,-11.786297,0.002000,0.684558,-1.480075
238.000000,0.002000,0.695857,-0.189701,-0.145686,-2.208861,-1.151610,0.146974,-13.417109,4.716358,2.793087,0.002000,-0.555823,-2.391048
239.000000,0.002000,0.938434,0.613213,-0.493531,-0.881014,1.499292,0.847930,-6.158185,-3.565251,3.152039,0.002000,-0.033578,-0.119766
240.000000,0.002000,-0.318280,0.067760,-0.149061,-0.993836,2.640315,-1.929088,14.943819,-2.065045,7.116862,0.002000,-0.726406,-0.000031
241.000000,0.002000,0.493602,-0.329238,0.080036,-3.105522,-0.456300,-0.211193,-15.305965,9.891265,-4.142769,0.002000,0.724681,0.635692
242.000000,0.002000,-0.166311,0.304702,-0.441674,0.546312,-4.992078,2.522953,3.293904,-7.647296,15.533987,0.002000,1.159799,-0.079140
243.000000,0.002000,0.155269,-0.594265,-0.186689,0.678822,-2.704316,-0.301653,-3.688321,13.986570,3.951852,0.002000,-0.357516,-3.019820
244.000000,0.002000,-0.158223,0.285512,0.338505,-2.734816,-1.248384,-0.970751,7.522375,-9.684200,-17.661224,0.002000,0.695857,1.919432
245.000000,0.002000,4.212459,1.503244,-5.109436,-0.318046,0.808533,-1.534345,-0.271406,-0.095250,0.326695,0.002000,0.938434,-0.472135
246.000000,0.002000,2.326056,-1.361713,1.626131,-0.472936,0.198802,-0.307352,-1.222561,0.793280,-0.900477,0.002000,-0.318280,0.027430
247.000000,0.002000,0.526443,-1.453775,-2.167439,-1.591465,-0.435398,0.388914,-0.497245,1.253447,1.886476,0.002000,0.493602,-0.261050
248.000000,0.002000,0.056268,-0.050357,0.170376,-1.616018,2.925452,4.382329,-5.594633,2.611049,-11.349647,0.002000,-0.166311,1.235923
249.000000,0.002000,0.098204,0.017261,-0.195342,1.494782,0.747506,-0.830096,-5.598722,1.660993,15.499107,0.002000,0.155269,-2.252636
250.000000,0.002000,0.012480,0.484337,-0.680298,-0.424670,2.938798,-0.836423,-0.479976,-8.077567,10.978447,0.002000,-0.158223,-3.659154
251.000000,0.002000,-1.342000,-2.425772,-1.455527,1.011361,-0.039905,0.848927,0.723910,1.357769,0.808966,0.002000,4.212459,0.969312
252.000000,0.002000,-0.000059,-0.321708,0.160039,3.979858,-1.140081,2.039302,-0.587015,18.480410,-6.306626,0.002000,2.326056,-0.463970
253.000000,0.002000,0.183484,0.514624,-0.066774,1.811149,-2.228907,0.303238,-6.675854,-15.813457,1.018122,0.002000,0.526443,-0.169768
254.000000,0.002000,0.508589,-0.903315,0.736189,-2.699197,0.077288,0.052161,-3.184108,5.366612,-4.994229,0.002000,0.056268,0.551692
255.000000,0.002000,0.311852,-0.784554,-0.053632,1.598306,-0.615298,1.587972,-3.842876,11.420778,0.605060,0.002000,0.098204,0.017425
256.000000,0.002000,0.480295,-1.209555,-0.495741,-0.300309,-0.782875,-0.334859,-2.318805,5.608670,2.311109,0.002000,0.012480,2.078610
257.000000,0.002000,-0.175700,0.182342,0.189946,4.796973,2.009603,0.790726,7.173975,-8.490063,-14.264745,0.002000,-1.342000,0.270918
258.000000,0.002000,0.208894,-0.130633,0.162037,1.952243,0.151416,1.774592,-13.776722,9.075572,-10.120847,0.002000,-0.000059,-0.189701
259.000000,0.002000,0.044673,-1.105482,-0.366657,1.459776,-0.259094,-1.535611,-0.484999,8.245404,2.619313,0.002000,0.183484,0.613213
260.000000,0.002000,0.677053,1.460766,0.793647,0.751255,-0.551268,1.972042,-1.788152,-3.763736,-1.894451,0.002000,0.508589,0.067760
261.000000,0.002000,0.923322,0.362602,0.288954,2.458071,-1.670736,0.172831,-9.323492,-3.538907,-2.781486,0.002000,0.311852,-0.329238
262.000000,0.002000,1.072948,-0.815571,0.568191,-0.446883,-1.327937,2.294893,-4.392589,3.419101,-2.277558,0.002000,0.480295,0.304702
263.000000,0.002000,-0.708269,-0.438570,0.583428,0.125214,-0.343793,1.521748,7.149194,4.767266,-6.502310,0.002000,-0.175700,-0.594265
264.000000,0.002000,-0.849183,0.619323,-0.906031,-1.001609,-0.030553,-1.124952,4.589859,-3.121129,4.736484,0.002000,0.208894,0.285512
265.000000,0.002000,-0.307887,0.234095,-0.399077,-2.333203,3.123938,0.556790,11.092653,-8.120293,9.420523,0.002000,0.044673,1.503244
266.000000,0.002000,-0.981687,1.768828,1.150458,-0.011437,0.634958,1.024974,1.199288,-2.215209,-1.469483,0.002000,0.677053,-1.361713
267.000000,0.002000,1.142963,0.626598,-0.174770,-2.535948,-0.260379,-0.878784,-6.291621,-2.845537,1.006516,0.002000,0.923322,-1.453775
268.000000,0.002000,0.714811,0.017863,-0.450875,0.985723,-1.513622,0.240477,-10.390609,-0.027281,7.153296,0.002000,1.072948,-0.050357
269.000000,0.002000,-0.078639,0.271085,0.465698,0.966861,-0.230720,-1.090930,2.666717,-8.859234,-16.152627,0.002000,-0.708269,0.017261
270.000000,0.002000,0.699841,-0.460390,0.607325,0.208048,3.989669,0.406673,-6.527601,4.337677,-5.504795,0.002000,-0.849183,0.484337
271.000000,0.002000,-0.080475,-0.270588,-0.065118,2.662533,-0.226448,-3.401056,2.710444,18.467231,7.388051,0.002000,-0.307887,-2.425772
272.000000,0.002000,-0.432491,-1.683237,2.766886,-0.402876,1.137905,0.613501,0.278969,0.779643,-1.429097,0.002000,-0.981687,-0.321708
273.000000,0.002000,-0.356216,1.057355,-0.709145,1.447288,1.048117,-1.396226,2.007389,-5.893544,3.971296,0.002000,1.142963,0.514624
274.000000,0.002000,-0.051401,-0.159431,-0.209976,-0.452697,-1.634289,0.946483,-1.781679,8.629242,8.537508,0.002000,0.714811,-0.903315
275.000000,0.002000,0.170537,0.157587,0.205215,-4.489030,0.490480,-0.197101,-11.507119,-8.079673,-13.701738,0.002000,-0.078639,-0.784554
276.000000,0.002000,-0.160409,-2.650298,-2.770908,0.003751,0.317331,0.715817,0.052266,0.862021,0.879089,0.002000,0.699841,-1.209555
277.000000,0.002000,0.268209,0.513265,-0.397571,2.481195,0.529151,-1.201333,-7.017255,-11.402264,12.064081,0.002000,-0.080475,0.182342
278.000000,0.002000,-0.445135,0.088781,-0.098780,1.346741,-0.448764,-0.224820,17.997810,-4.626327,3.722844,0.002000,-0.432491,-0.130633
279.000000,0.002000,-0.078381,-0.224941,0.040743,-1.928011,-4.181203,-1.987566,-1.200323,13.918191,-5.286425,0.002000,-0.356216,-1.105482
280.000000,0.002000,0.065056,0.094057,-0.162181,-1.099626,-1.071556,-0.513776,-4.832391,-3.443273,12.146357,0.002000,-0.051401,1.460766
281.000000,0.002000,0.738511,-0.003087,0.785740,-0.400501,1.374947,-2.112189,-6.492406,0.337746,-6.698432,0.002000,0.170537,0.362602
282.000000,0.002000,1.746060,0.361558,0.026373,-0.908767,1.009608,2.591298,-4.477097,-0.815696,-0.060044,0.002000,-0.160409,-0.815571
283.000000,0.002000,-0.165275,-0.594708,-0.298961,-2.094323,0.649528,1.132363,2.336374,12.975578,5.726313,0.002000,0.268209,-0.438570
284.000000,0.002000,-4.551590,-0.398117,2.791264,-0.599482,-0.661935,0.074363,0.583670,0.056588,-0.356404,0.002000,-0.445135,0.619323
285.000000,0.002000,-0.712597,0.100374,-0.344139,-1.328697,0.909568,0.185284,12.552317,-1.058848,7.693981,0.002000,-0.078381,0.234095
286.000000,0.002000,-1.296782,0.211330,-0.056899,-0.630195,-2.817237,-0.649072,7.644478,-1.127446,0.457210,0.002000,0.065056,1.768828
287.000000,0.002000,-0.019967,0.147867,0.036668,-1.847300,-2.523274,1.765361,3.888987,-7.009795,-4.377659,0.002000,0.738511,0.626598
288.000000,0.002000,-0.163282,0.198580,-0.113339,-0.462075,2.196090,0.913207,9.720185,-8.913864,4.803549,0.002000,1.746060,0.017863
289.000000,0.002000,0.496646,0.089653,-0.220873,-0.383750,-0.869715,0.492195,-15.663856,-1.260542,8.062277,0.002000,-0.165275,0.271085
290.000000,0.002000,-0.171473,-0.496228,0.175042,-0.477907,-1.418760,0.287608,3.373031,17.297479,-5.659694,0.002000,-4.551590,-0.460390
291.000000,0.002000,0.617701,-0.240544,-0.263950,-2.497919,-0.684427,4.136422,-11.472692,6.320825,5.353829,0.002000,-0.712597,-0.270588
292.000000,0.002000,0.169825,-0.352635,0.267756,-2.406396,-0.441950,-1.107433,-5.810746,19.124047,-9.424707,0.002000,-1.296782,-1.683237
293.000000,0.002000,-0.287484,-0.201320,-0.017490,3.065259,-0.820984,-0.322781,15.457924,7.858955,-4.216947,0.002000,-0.019967,1.057355
294.000000,0.002000,1.560506,-0.427340,1.174849,0.516070,-1.160120,-0.770882,-2.924164,0.946257,-2.096934,0.002000,-0.163282,-0.159431
295.000000,0.002000,0.327018,0.201069,0.135986,-0.658704,-0.001528,-2.115465,-15.239276,-5.022542,-7.089462,0.002000,0.496646,0.157587
296.000000,0.002000,0.075849,0.214608,-0.691251,-2.297100,2.391913,-0.358838,-2.048516,-2.236589,14.278938,0.002000,-0.171473,-2.650298
297.000000,0.002000,-0.280599,0.314117,0.412294,0.538332,0.770214,-1.368887,8.166127,-7.875372,-14.562810,0.002000,0.617701,0.513265
298.000000,0.002000,-0.085118,0.264205,-0.048313,5.628680,-0.864221,0.784437,-0.395806,-16.165091,-0.939784,0.002000,0.169825,0.088781
299.000000,0.002000,2.166375,1.742183,1.326231,-0.061186,0.993162,-0.119243,-1.282235,-1.028424,-0.820161,0.002000,-0.287484,-0.224941
300.000000,0.002000,0.299902,-1.168604,-0.289813,2.384483,0.773560,3.366184,-1.522464,7.140577,1.695208,0.002000,1.560506,0.094057
301.000000,0.002000,0.267353,-0.262930,-0.422116,0.597374,-3.337891,-2.971623,-8.152755,8.591421,14.268807,0.002000,0.327018,-0.003087
302.000000,0.002000,-0.473245,-0.291387,1.184275,1.505674,-0.342032,-1.237228,2.363150,1.780960,-6.479797,0.002000,0.075849,0.361558
303.000000,0.002000,-2.187098,-1.638433,0.809436,1.244999,-0.113871,0.817104,1.545222,1.213300,-0.615021,0.002000,-0.280599,-0.594708
304.000000,0.002000,-0.216593,-0.166295,0.064411,1.548182,-2.768810,-4.003490,20.962098,13.590471,-4.901057,0.002000,-0.085118,-0.398117
305.000000,0.002000,-1.886857,-0.640572,0.955533,-0.673664,0.677749,0.551052,2.732244,0.947836,-1.452277,0.002000,2.166375,0.100374
306.000000,0.002000,-0.252344,0.098373,-0.021086,-3.278731,1.713735,0.872402,14.399400,-1.081461,2.699380,0.002000,0.299902,0.211330
307.000000,0.002000,-0.222243,-0.357695,0.232362,-0.232500,1.618105,3.291227,6.564601,15.342541,-7.548779,0.002000,0.267353,0.147867
308.000000,0.002000,2.948507,-1.844685,-1.308431,-0.090506,0.992840,0.333918,-1.045486,0.668565,0.448843,0.002000,-0.473245,0.198580
309.000000,0.002000,1.145591,0.183710,0.429142,-3.211534,1.525804,-1.413752,-6.935906,-0.826919,-3.121060,0.002000,-2.187098,0.089653
310.000000,0.002000,0.535477,-0.473886,0.083937,-0.648939,1.278034,2.624600,-10.279436,10.609013,-2.001972,0.002000,-0.216593,-0.496228
311.000000,0.002000,-0.236320,-2.028047,2.051844,1.023750,0.673640,-0.806982,0.158669,1.433590,-1.340636,0.002000,-1.886857,-0.240544
312.000000,0.002000,1.340356,0.147843,-1.114754,2.077475,0.403103,-0.304943,-2.621944,-0.087953,2.271521,0.002000,-0.252344,-0.352635
313.000000,0.002000,-1.908401,-0.147730,-1.887627,0.822825,1.428320,0.925707,1.576324,0.163603,1.579432,0.002000,-0.222243,-0.201320
314.000000,0.002000,0.081403,-0.330640,0.190986,-2.568857,2.435333,2.370278,-5.853254,23.060018,-7.337212,0.002000,2.948507,-0.427340
315.000000,0.002000,-1.956314,-1.241224,-0.257956,-2.255371,-0.462944,-0.304478,2.475246,1.697128,0.282526,0.002000,1.145591,0.201069
316.000000,0.002000,0.031895,0.158608,0.849076,-2.407968,-0.409917,2.691730,-0.964078,-1.891834,-12.959087,0.002000,0.535477,0.214608
317.000000,0.002000,0.372927,-0.305180,-0.242522,-2.157236,0.002568,3.812564,-12.880081,10.940710,7.789749,0.002000,-0.236320,0.314117
318.000000,0.002000,-0.259294,-0.914476,-0.375852,-0.483097,1.175953,-1.471291,2.128604,9.462589,3.820133,0.002000,1.340356,0.264205
319.000000,0.002000,-0.310498,-0.018178,-0.413923,0.917566,0.743849,-2.671224,9.887481,0.960079,16.756214,0.002000,-1.908401,1.742183
320.000000,0.002000,-1.057548,-2.517970,-3.615935,-0.240738,0.573117,-0.466885,0.196989,0.500030,0.755975,0.002000,0.081403,-1.168604
321.000000,0.002000,0.531663,0.217724,-0.453894,1.547763,-0.644450,-1.234489,-11.457266,-3.280194,8.456081,0.002000,-1.956314,-0.262930
322.000000,0.002000,-0.501032,-0.435581,0.124943,-2.353233,1.173729,0.282922,11.859743,10.167796,-2.868978,0.002000,0.031895,-0.291387
323.000000,0.002000,0.046817,0.806931,-0.334212,-0.227893,-0.176385,1.697462,0.742146,-13.149484,1.192863,0.002000,0.372927,-1.638433
324.000000,0.002000,-0.161299,0.214272,-0.399874,3.226868,-0.220815,0.655508,3.176996,-3.447107,17.144768,0.002000,-0.259294,-0.166295
325.000000,0.002000,0.400467,0.459387,-3.081735,0.680401,2.138806,0.192477,-0.286908,-0.153924,1.825957,0.002000,-0.310498,-0.640572
326.000000,0.002000,0.663440,-0.165520,1.293640,0.589619,1.140558,2.037636,-2.663682,0.853858,-5.540697,0.002000,-1.057548,0.098373
327.000000,0.002000,-0.200317,0.226522,-0.096225,-0.358338,1.649141,2.218839,12.021402,-12.569717,4.645100,0.002000,0.531663,-0.357695
328.000000,0.002000,-0.023715,0.262757,-0.778787,1.585863,0.169305,-0.477440,7.152092,-3.803825,16.113535,0.002000,-0.501032,-1.844685
329.000000,0.002000,-0.163875,0.258723,-0.111969,-1.559497,-2.095618,1.478018,4.799332,-13.806167,7.258637,0.002000,0.046817,0.183710
330.000000,0.002000,-0.250970,0.089533,0.148567,0.674546,4.422832,-1.159345,8.980461,-0.764782,-7.086487,0.002000,-0.161299,-0.473886
331.000000,0.002000,0.342641,-0.008659,0.138661,1.183633,-0.076338,1.628902,-18.098241,3.075188,-6.571327,0.002000,0.400467,-2.028047
332.000000,0.002000,-0.067482,-0.051792,-0.306617,-0.674814,-1.209144,3.367957,0.895511,3.471315,15.486975,0.002000,0.663440,0.147843
333.000000,0.002000,0.919860,0.101869,-0.163045,-2.621318,0.188594,-2.409506,-11.511316,-0.944206,2.316030,0.002000,-0.200317,-0.147730
334.000000,0.002000,0.113655,-0.174278,-0.419299,1.633689,-0.936337,4.414191,-5.360693,7.791594,17.150710,0.002000,-0.023715,-0.330640
335.000000,0.002000,0.060665,0.138536,0.123033,-3.699409,-0.716720,1.450897,-4.408378,-8.633999,-8.058940,0.002000,-0.163875,-1.241224
336.000000,0.002000,0.386407,0.410883,0.318496,-0.531426,0.847151,-3.292436,-9.614386,-10.677516,-9.347483,0.002000,-0.250970,0.158608
337.000000,0.002000,-0.038024,0.428502,-0.125358,0.971414,2.217466,3.356627,1.001731,-17.128604,2.537612,0.002000,0.342641,-0.305180
338.000000,0.002000,2.885126,2.220044,-0.729543,0.538017,-0.280321,1.258388,-1.040124,-0.833199,0.282354,0.002000,-0.067482,-0.914476
339.000000,0.002000,0.368281,0.350540,-0.162423,-2.115944,1.813044,-0.624535,-12.250545,-10.389573,5.209816,0.002000,0.919860,-0.018178
340.000000,0.002000,-2.154855,1.413234,0.690325,-0.559823,-1.285121,-0.733766,1.858082,-1.197216,-0.694365,0.002000,0.113655,-2.517970
341.000000,0.002000,-0.170481,0.141524,-0.062885,2.804803,-1.589584,-0.899547,7.817078,-3.334059,6.159017,0.002000,0.060665,0.217724
342.000000,0.002000,-0.053438,-0.106368,-3.919711,-0.546301,0.759285,0.265637,0.015361,0.015737,1.233681,0.002000,0.386407,-0.435581
343.000000,0.002000,0.460965,0.445073,-0.592819,2.198106,-2.179911,-0.882844,-7.603383,-6.507611,8.711157,0.002000,-0.038024,0.806931
344.000000,0.002000,-0.046415,-0.234151,0.005438,-2.135030,2.619656,-0.990084,-2.365122,16.639272,-0.668671,0.002000,2.885126,0.214272
345.000000,0.002000,-0.381803,-0.472711,0.422923,2.785659,1.670551,-1.068269,7.270293,10.755084,-9.119356,0.002000,0.368281,0.459387
346.000000,0.002000,1.879248,-0.281594,1.863287,-0.253273,1.415738,-0.628276,-1.604924,0.282280,-1.556665,0.002000,-2.154855,-0.165520
347.000000,0.002000,-0.348139,1.726226,-0.648683,0.092077,0.972616,1.797716,0.635355,-3.868948,1.193948,0.002000,-0.170481,0.226522
348.000000,0.002000,0.462256,0.242302,-0.162571,2.076000,0.598489,-0.947302,-15.756634,-8.010674,5.126757,0.002000,-0.053438,0.262757
349.000000,0.002000,-1.019809,-0.442127,-0.361470,-0.975595,1.163109,-2.055235,7.809299,3.465901,2.831029,0.002000,0.460965,0.258723
350.000000,0.002000,0.640616,0.873226,-0.505885,0.755364,-0.351919,1.802580,-4.688582,-6.199330,3.370118,0.002000,-0.046415,0.089533
351.000000,0.002000,0.548587,0.534175,0.239005,-2.395370,-2.886406,1.380620,-9.469882,-8.069744,-4.336675,0.002000,-0.381803,-0.008659
352.000000,0.002000,-0.052168,-1.477316,-0.984518,1.836733,0.781378,-2.832447,0.145003,3.530258,2.547309,0.002000,1.879248,-0.051792
353.000000,0.002000,-1.430153,-0.521298,-0.857021,1.376154,2.167300,1.243139,3.792253,1.397048,2.390706,0.002000,-0.348139,0.101869
354.000000,0.002000,0.313992,0.295425,0.206168,1.723085,0.967947,-0.993526,-13.094662,-11.808084,-10.026315,0.002000,0.462256,-0.174278
355.000000,0.002000,0.094173,-0.033399,0.014295,0.025105,-0.031330,-0.223522,-10.022613,3.247041,0.707528,0.002000,-1.019809,0.138536
356.000000,0.002000,-0.268128,-0.104319,0.432928,1.942003,1.497562,-0.902260,7.105613,3.842041,-16.766928,0.002000,0.640616,0.410883
357.000000,0.002000,-0.485638,-1.059442,0.337228,-0.915226,-1.852287,2.531010,2.811639,6.957156,-2.370573,0.002000,0.548587,0.428502
358.000000,0.002000,0.871043,-0.639197,-0.162771,-1.409268,-0.920104,-2.870479,-7.060082,5.611121,1.138521,0.002000,-0.052168,2.220044
359.000000,0.002000,0.838815,-0.382151,0.544195,-0.070171,-2.022696,-1.094199,-6.993450,3.426295,-4.517345,0.002000,-1.430153,0.350540
360.000000,0.002000,-0.793940,-0.957733,0.375246,3.562524,0.324421,-0.099807,4.435639,5.658266,-2.103532,0.002000,0.313992,1.413234
361.000000,0.002000,-0.047134,0.033395,-0.267289,-2.090913,0.906358,-0.900120,1.501488,0.045537,13.856996,0.002000,0.094173,0.141524
362.000000,0.002000,-0.531652,-0.008074,-0.339744,0.208679,3.404192,-0.605320,14.579488,0.697223,9.966205,0.002000,-0.268128,-0.106368
363.000000,0.002000,-0.006809,0.648594,-0.602292,-0.346886,2.092195,-1.048753,-0.541223,-9.143551,8.944669,0.002000,-0.485638,0.445073
364.000000,0.002000,0.695936,-0.444779,0.147830,0.550562,-2.226716,-0.488994,-9.620844,7.597771,-2.532538,0.002000,0.871043,-0.234151
365.000000,0.002000,0.622445,0.930946,-4.213531,-0.346814,-0.150709,0.399911,-0.151064,-0.239243,0.972248,0.002000,0.838815,-0.472711
366.000000,0.002000,0.058503,-0.076381,0.009611,1.158779,0.334283,-1.973127,-5.367293,6.287021,0.807345,0.002000,-0.793940,-0.281594
367.000000,0.002000,-0.218432,-0.119572,0.680283,-1.060877,0.238976,-2.287034,3.344981,2.792006,-15.565244,0.002000,-0.047134,1.726226
368.000000,0.002000,0.659100,1.279446,-1.256924,1.287830,-2.193221,0.044521,-1.423902,-2.701101,2.716500,0.002000,-0.531652,0.242302
369.000000,0.002000,0.022978,0.103236,0.420587,-1.831934,-1.279693,-1.612466,-6.040712,-4.007219,-17.233128,0.002000,-0.006809,-0.442127
370.000000,0.002000,-0.096634,-0.096786,-0.893794,0.520077,2.380055,0.825118,0.918486,2.354448,12.102067,0.002000,0.695936,0.873226
371.000000,0.002000,1.042924,-0.566476,0.040849,2.151917,-0.472564,0.509157,-7.140109,4.235314,-0.175416,0.002000,0.622445,0.534175
372.000000,0.002000,1.963730,-1.122919,-3.629161,0.172767,0.217866,-0.365973,-0.493466,0.270696,0.885143,0.002000,0.058503,-1.477316
373.000000,0.002000,0.813375,-0.528238,-1.149685,2.534466,-0.440784,0.363606,-3.087159,2.187980,4.377305,0.002000,-0.218432,-0.521298
374.000000,0.002000,-0.485833,-0.324614,-1.713427,-1.297883,0.946567,-0.031657,1.119292,0.766763,4.196574,0.002000,0.659100,0.295425
375.000000,0.002000,-0.302001,-1.396640,1.299160,-1.294825,1.816033,-0.807798,0.454172,2.746175,-2.412383,0.002000,0.022978,-0.033399
376.000000,0.002000,-0.180846,0.246527,-0.225605,-1.443835,0.210818,-0.813162,8.242032,-10.921418,10.150593,0.002000,-0.096634,-0.104319
377.000000,0.002000,-1.232150,-2.112365,1.801903,0.184287,-0.331415,-1.165923,0.772328,1.269752,-1.091800,0.002000,1.042924,-1.059442
378.000000,0.002000,-0.516000,1.833052,-1.340832,-0.102366,0.173729,-0.670425,0.897705,-2.447692,1.903841,0.002000,1.963730,-0.639197
379.000000,0.002000,-0.130435,0.122915,0.010125,0.368664,-0.354417,1.749642,5.734746,-9.407838,-1.549422,0.002000,0.813375,-0.382151
380.000000,0.002000,0.027084,-0.204796,0.234295,-1.277847,-3.740123,-1.141401,-1.559988,15.074691,-11.416540,0.002000,-0.485833,-0.957733
381.000000,0.002000,3.827885,-0.021197,-1.946244,-0.006892,-0.288232,0.157555,-0.926912,0.018028,0.462891,0.002000,-0.302001,0.033395
382.000000,0.002000,-0.639837,0.122971,-0.154139,-1.884274,-2.185460,1.297968,14.221263,-4.166762,4.747513,0.002000,-0.180846,-0.008074
383.000000,0.002000,0.166186,0.140423,0.393565,-1.398684,-0.152574,1.867745,-6.752038,-5.051611,-13.350600,0.002000,-1.232150,0.648594
384.000000,0.002000,0.038787,-0.195743,0.347222,-0.737128,4.062042,-1.719269,-1.569845,9.294569,-18.142404,0.002000,-0.516000,-0.444779
385.000000,0.002000,-0.513278,-0.270583,0.430510,-2.054025,-0.845517,1.680107,11.060057,7.177376,-10.458090,0.002000,-0.130435,0.930946
386.000000,0.002000,-0.528298,0.558060,0.218846,-0.816115,1.293082,0.987597,9.736307,-10.239579,-4.599229,0.002000,0.027084,-0.076381
387.000000,0.002000,-3.068008,-1.443852,2.337349,0.341314,-0.416969,-0.115129,0.815300,0.388452,-0.625839,0.002000,3.827885,-0.119572
388.000000,0.002000,-0.056884,0.329225,-0.603589,0.644058,-0.616028,2.525371,1.558271,-6.038927,14.318404,0.002000,-0.639837,1.279446
389.000000,0.002000,-1.521606,0.833814,-0.810675,-0.320498,1.169459,1.551973,3.307311,-1.824863,1.751939,0.002000,0.166186,0.103236
390.000000,0.002000,-0.008333,0.261377,-0.419488,1.075196,0.331444,3.879312,-1.025371,-6.932727,15.071116,0.002000,0.038787,-0.096786
391.000000,0.002000,-0.149534,0.269399,-0.036545,-2.698925,4.282985,0.992696,5.478989,-17.762929,0.429514,0.002000,-0.513278,-0.566476
392.000000,0.002000,-0.473536,0.385439,0.022191,2.682531,2.128913,-0.687772,13.924276,-12.029707,-0.548472,0.002000,-0.528298,-1.122919
393.000000,0.002000,-0.250765,-0.256525,-0.676799,-1.004764,-0.769247,0.736644,3.628521,6.042868,13.214754,0.002000,-3.068008,-0.528238
394.000000,0.002000,-0.487081,-0.699664,0.074435,-0.803688,2.285365,0.437186,6.712469,11.345131,-1.023829,0.002000,-0.056884,-0.324614
395.000000,0.002000,0.116150,0.768030,-0.340690,0.807494,2.856262,-0.520039,-2.996647,-11.749781,4.614992,0.002000,-1.521606,-1.396640
396.000000,0.002000,-0.176455,-0.366912,0.300321,-0.032814,1.614619,0.866156,3.470757,15.698863,-9.699463,0.002000,-0.008333,0.246527
397.000000,0.002000,0.719024,0.331032,0.047364,1.606323,-0.730729,-0.930042,-12.896514,-6.597929,-1.156912,0.002000,-0.149534,-2.112365
398.000000,0.002000,2.199633,0.218341,-0.055190,0.323707,0.085422,0.126867,-3.187250,-0.206257,0.104017,0.002000,-0.473536,1.833052
399.000000,0.002000,0.569094,-0.786039,-0.758908,0.138338,-3.012753,-1.839868,-3.593751,5.017295,4.601533,0.002000,-0.250765,0.122915
400.000000,0.002000,-0.647979,-0.654143,-0.043684,-0.949743,3.674524,-2.343231,7.981433,8.772265,-0.096771,0.002000,-0.487081,-0.204796
401.000000,0.002000,3.302388,-0.607273,-2.101170,-0.407317,-0.334338,0.560548,-0.996608,0.196912,0.626906,0.002000,0.116150,-0.021197
402.000000,0.002000,-0.290452,0.661149,-0.319340,1.749610,-2.433478,-1.552054,5.655284,-12.079751,5.649504,0.002000,-0.176455,0.122971
403.000000,0.002000,-1.422520,-0.833582,1.484594,1.859351,0.165720,-0.380535,2.030624,1.165617,-2.128170,0.002000,0.719024,0.140423
404.000000,0.002000,-0.327626,-0.243610,-0.692427,-0.277986,0.452655,4.071483,7.473173,5.217757,12.642236,0.002000,2.199633,-0.195743
405.000000,0.002000,0.341175,0.240545,0.111852,-0.941181,-0.052607,-2.016723,-16.214920,-10.586499,-2.499748,0.002000,0.569094,-0.270583
406.000000,0.002000,-0.178800,0.161855,-0.167269,-0.700932,-2.281025,-1.127851,7.817130,-4.640580,11.193255,0.002000,-0.647979,0.558060
407.000000,0.002000,0.295101,0.491308,0.246991,0.363455,0.715354,0.453047,-8.587246,-12.983358,-5.870672,0.002000,3.302388,-1.443852
408.000000,0.002000,-0.904287,0.912711,-0.462249,0.338492,1.478956,-0.004761,4.594000,-4.870967,2.510795,0.002000,-0.290452,0.329225
409.000000,0.002000,-0.386838,0.191797,0.145496,-0.728831,2.219335,0.782108,12.397018,-7.333198,-6.189247,0.002000,-1.422520,0.833814
410.000000,0.002000,0.277827,1.461082,-0.826557,-0.150873,0.741393,-1.985498,-0.848339,-4.278845,2.519911,0.002000,-0.327626,0.261377
411.000000,0.002000,-1.285664,-0.827092,0.122077,1.170020,0.266545,-1.826879,4.855694,3.273643,-0.675978,0.002000,0.341175,0.269399
412.000000,0.002000,-2.393627,-3.391039,1.734576,0.476253,-0.305149,-0.411780,0.485427,0.732016,-0.354931,0.002000,-0.178800,0.385439
413.000000,0.002000,0.307033,-0.124462,-0.055795,1.301503,-1.543269,2.744122,-14.651359,8.177566,3.956035,0.002000,0.295101,-0.256525
414.000000,0.002000,2.115729,2.360503,1.900244,-0.512464,1.031006,-0.019732,-0.803888,-0.863309,-0.610652,0.002000,-0.904287,-0.699664
415.000000,0.002000,-0.426222,-0.435400,-0.139902,-3.105913,-1.070505,-2.472052,10.797651,14.032546,3.990183,0.002000,-0.386838,0.768030
416.000000,0.002000,-0.290717,-0.214405,-0.036660,-1.208793,2.539181,-4.288422,15.018831,15.529556,4.763296,0.002000,0.277827,-0.366912
417.000000,0.002000,0.345352,0.484660,1.802208,-0.484579,-1.269952,-2.296810,-0.833131,-0.952470,-3.910459,0.002000,-1.285664,0.331032
418.000000,0.002000,-0.024646,0.350412,1.142663,0.257184,0.659687,-1.310257,1.024529,-1.781545,-9.040634,0.002000,-2.393627,0.218341
419.000000,0.002000,2.688693,3.800712,-1.054270,0.488625,0.327444,-1.402286,-0.483067,-0.681818,0.197316,0.002000,0.307033,-0.786039
420.000000,0.002000,1.102975,0.590795,1.607716,0.284331,0.743627,1.214771,-2.016753,-1.081863,-2.928028,0.002000,2.115729,-0.654143
421.000000,0.002000,0.147291,0.373052,0.422837,0.908730,1.810671,0.181924,-4.928949,-10.224208,-12.600227,0.002000,-0.426222,-0.607273
422.000000,0.002000,-0.580176,-0.503368,0.323218,3.894801,2.536935,-1.144397,9.352300,8.007960,-5.365492,0.002000,-0.290717,0.661149
423.000000,0.002000,-0.782382,-4.937582,3.968863,-0.394826,-0.673928,0.598566,0.060002,0.374146,-0.299921,0.002000,0.345352,-0.833582
424.000000,0.002000,0.823710,2.310522,2.196514,0.660434,-0.340661,0.709718,-0.440062,-1.117396,-1.099943,0.002000,-0.024646,-0.243610
425.000000,0.002000,-0.806527,0.424696,0.471942,1.275077,-0.524495,1.533902,8.622664,-4.643456,-5.501367,0.002000,2.688693,0.240545
426.000000,0.002000,-0.518825,0.448622,0.599988,2.204135,-1.799323,0.152612,6.671420,-6.288647,-9.281906,0.002000,1.102975,0.161855
427.000000,0.002000,0.059001,-1.500263,-0.402696,-1.858143,1.099112,-0.177219,-0.296188,5.267414,1.308394,0.002000,0.147291,0.491308
428.000000,0.002000,0.113667,-0.236520,0.559930,-1.727016,2.723535,2.074783,-3.840904,6.934052,-14.554177,0.002000,-0.580176,0.912711
429.000000,0.002000,0.623313,-0.170601,-0.200051,-1.815744,-2.057812,0.983110,-12.745270,5.560367,4.217009,0.002000,-0.782382,0.191797
430.000000,0.002000,2.195029,-1.504678,-0.050007,-1.317291,0.821125,0.785942,-1.825280,1.311643,-0.011174,0.002000,0.823710,1.461082
431.000000,0.002000,-0.209075,0.801684,0.027354,-1.327316,0.048939,1.080137,2.598892,-13.170496,-1.098958,0.002000,-0.806527,-0.827092
432.000000,0.002000,0.741022,1.024195,-0.856086,-0.254579,-1.698960,1.177832,-2.830544,-4.100772,3.440338,0.002000,-0.518825,-3.391039
433.000000,0.002000,0.124066,0.387399,-0.164956,-0.955283,-0.527773,-0.706905,-10.078294,-14.299912,8.530264,0.002000,0.059001,-0.124462
434.000000,0.002000,1.845715,1.878276,0.784906,1.379561,-1.305253,-1.691813,-1.488011,-1.505054,-0.672059,0.002000,0.113667,2.360503
435.000000,0.002000,0.060713,-0.685293,-0.126547,-0.613939,-1.666661,2.454405,-3.671691,15.907484,2.398141,0.002000,0.623313,-0.435400
436.000000,0.002000,-0.825539,-0.478078,0.247681,0.180198,-1.862261,2.470248,9.157764,5.764547,-3.258209,0.002000,2.195029,-0.214405
437.000000,0.002000,0.049847,0.044471,0.000104,-3.118565,0.677536,-3.422943,-3.559322,-2.968304,-0.639099,0.002000,-0.209075,0.484660
438.000000,0.002000,-0.182473,-0.053810,-0.470689,0.121425,0.640889,-0.282091,5.955466,2.078515,16.227225,0.002000,0.741022,0.350412
439.000000,0.002000,0.236618,-0.085149,0.363360,1.228150,-3.068622,-0.905076,-11.629013,4.219895,-14.060667,0.002000,0.124066,3.800712
440.000000,0.002000,-0.107534,-0.033851,-0.799694,1.738163,0.358761,0.308107,-0.162784,0.752434,15.573374,0.002000,1.845715,0.590795
441.000000,0.002000,-0.199101,0.352053,-0.405990,-0.965719,-3.834616,0.095003,4.740465,-9.221752,15.571063,0.002000,0.060713,0.373052
442.000000,0.002000,-0.148161,0.206084,0.257618,-1.984591,-3.368110,1.136503,6.625508,-8.470730,-15.467610,0.002000,-0.825539,-0.503368
443.000000,0.002000,0.011649,-1.315339,0.648088,0.520535,-0.337704,0.978046,-0.157825,5.360864,-2.490858,0.002000,0.049847,-4.937582
444.000000,0.002000,0.190899,-0.227983,-0.305164,1.172214,-0.187506,-1.846551,-5.618699,10.683553,11.954134,0.002000,-0.182473,2.310522
445.000000,0.002000,0.245900,0.282221,-0.442074,1.057146,0.506025,0.565018,-7.490702,-6.365443,12.126174,0.002000,0.236618,0.424696
446.000000,0.002000,0.053594,0.105318,-0.148708,-1.550056,-2.988478,-5.202481,-1.273189,-7.117435,7.176739,0.002000,-0.107534,0.448622
447.000000,0.002000,0.230555,-0.617451,-0.334088,0.216384,-0.807298,-0.810776,-4.306972,12.157737,6.757445,0.002000,-0.199101,-1.500263
448.000000,0.002000,0.444355,0.012202,-1.587488,-1.242193,1.007143,-0.917765,-1.276394,0.024548,5.129691,0.002000,-0.148161,-0.236520
449.000000,0.002000,-0.034188,0.506892,-0.101845,1.531704,1.194925,0.012106,-1.221603,-17.839057,1.708659,0.002000,0.011649,-0.170601
450.000000,0.002000,-0.561521,0.806420,-0.687463,-1.508895,1.526129,-0.168522,4.137107,-6.328951,5.785937,0.002000,0.190899,-1.504678
451.000000,0.002000,1.523191,-4.837901,-0.781404,-0.607121,-1.151464,1.208379,-0.206986,0.685982,0.104494,0.002000,0.245900,0.801684
452.000000,0.002000,-2.904661,3.751645,1.687838,0.368762,0.814558,0.092500,0.451107,-0.576594,-0.266795,0.002000,0.053594,1.024195
453.000000,0.002000,0.992504,-0.359591,-0.340050,-3.673258,1.326910,-0.718302,-8.123871,3.049269,2.713762,0.002000,0.230555,0.387399
454.000000,0.002000,-0.524128,0.177031,0.651720,-0.009905,1.791750,0.615536,7.519827,-2.583646,-10.755814,0.002000,0.444355,1.878276
455.000000,0.002000,1.185075,1.247059,0.399958,-0.168932,-1.466614,0.281359,-3.145509,-3.131439,-1.106915,0.002000,-0.034188,-0.685293
456.000000,0.002000,0.387028,-0.130662,0.010697,0.705406,0.504313,-1.092786,-16.076749,3.755034,0.002822,0.002000,-0.561521,-0.478078
457.000000,0.002000,0.723685,1.944888,-0.483938,-0.282738,-0.584366,-0.228377,-1.285656,-3.119428,0.815737,0.002000,1.523191,0.044471
458.000000,0.002000,0.017802,0.646435,0.352878,-0.519385,0.743183,-2.755135,-0.409939,-13.620640,-7.018988,0.002000,-2.904661,-0.053810
459.000000,0.002000,-0.322824,0.538953,-1.059191,2.189922,-1.345069,-1.291875,2.197901,-3.512812,7.335524,0.002000,0.992504,-0.085149
460.000000,0.002000,-0.412872,0.038180,-0.058387,0.325813,-0.554951,0.168415,17.175351,0.510004,1.741681,0.002000,-0.524128,-0.033851
461.000000,0.002000,-0.139093,-0.229882,-1.027121,-2.853465,0.023350,-0.908339,-3.004207,1.134278,13.495938,0.002000,1.185075,0.352053
462.000000,0.002000,0.173794,0.535528,1.133347,1.678887,0.126127,1.662506,-2.923604,-4.970068,-5.178057,0.002000,0.387028,0.206084
463.000000,0.002000,0.488460,-0.709773,0.287540,-0.988179,-0.299864,-1.721439,-6.429428,8.925359,-4.891169,0.002000,0.723685,-1.315339
464.000000,0.002000,0.202164,0.685106,-0.523107,2.178053,-1.046954,0.822797,-2.710339,-9.217713,8.176937,0.002000,0.017802,-0.227983
465.000000,0.002000,-0.085355,-0.463005,0.199752,0.242591,-0.407136,-5.243244,1.547915,16.200134,-6.199282,0.002000,-0.322824,0.282221
466.000000,0.002000,0.476252,-1.214977,-2.629379,-1.214995,1.133035,0.181729,-0.284154,0.734463,1.622169,0.002000,-0.412872,0.105318
467.000000,0.002000,-0.205496,-0.271156,-0.313592,0.064548,-2.029904,-1.063877,5.984189,13.233502,11.333278,0.002000,-0.139093,-0.617451
468.000000,0.002000,-3.881682,-0.010236,0.783993,0.190009,-0.388639,0.585272,1.178930,-0.000356,-0.219873,0.002000,0.173794,0.012202
469.000000,0.002000,-0.485980,0.070950,0.240517,1.205308,-1.154462,0.670306,15.952020,-1.233220,-7.492910,0.002000,0.488460,0.506892
470.000000,0.002000,-3.890794,1.395406,0.000501,0.068117,0.852889,-0.089150,1.031652,-0.365741,0.009059,0.002000,0.202164,0.806420
471.000000,0.002000,-0.125893,0.835809,0.343841,1.438434,-1.645495,-3.163580,1.136089,-11.036734,-4.691801,0.002000,-0.085355,-4.837901
472.000000,0.002000,-1.611013,0.766547,-1.980555,0.682589,-1.527955,-0.432398,1.432763,-0.658850,1.760140,0.002000,0.476252,3.751645
473.000000,0.002000,-4.720629,2.427801,5.903278,-1.956833,-0.159344,1.102281,0.187610,-0.096256,-0.236386,0.002000,-0.205496,-0.359591
474.000000,0.002000,0.554225,0.383365,0.254571,-0.636698,-1.876781,3.176816,-11.150852,-8.527594,-5.587840,0.002000,-3.881682,0.177031
475.000000,0.002000,-0.407599,0.416194,0.166565,3.487543,-0.174786,0.611524,13.989349,-12.196279,-6.988908,0.002000,-0.485980,1.247059
476.000000,0.002000,-0.842837,0.367387,-1.536874,-0.766343,-1.080372,-1.530726,1.742955,-0.843075,3.747591,0.002000,-3.890794,-0.130662
477.000000,0.002000,-0.715939,-0.408662,-0.187221,0.574570,-0.027680,-2.532769,10.645979,7.107643,3.143462,0.002000,-0.125893,1.944888
478.000000,0.002000,1.231630,5.295551,-2.380568,-0.175762,0.722114,-0.309744,-0.118651,-0.503670,0.232054,0.002000,-1.611013,0.646435
479.000000,0.002000,0.140018,0.250230,0.502027,-2.859001,2.544544,-0.474529,-3.090031,-6.648273,-15.583277,0.002000,-4.720629,0.538953
480.000000,0.002000,-0.384011,0.094345,0.391762,4.104153,3.726265,-0.784090,12.446151,-1.107068,-16.374005,0.002000,0.554225,0.038180
481.000000,0.002000,-1.098878,0.963696,-1.310364,-1.257026,-0.682833,0.149341,2.951216,-1.346286,2.852676,0.002000,-0.407599,-0.229882
482.000000,0.002000,-1.016500,-1.423390,-0.920784,-0.665751,0.206695,-1.284549,1.889948,2.818745,1.772382,0.002000,-0.842837,0.535528
483.000000,0.002000,7.484513,-2.704257,-1.683308,1.668403,-0.628274,-0.243535,-0.276193,0.101223,0.061688,0.002000,-0.715939,-0.709773
484.000000,0.002000,-0.188403,-0.189200,-0.096454,2.063891,-2.141560,2.955578,11.966804,12.943823,6.619402,0.002000,1.231630,0.685106
485.000000,0.002000,-0.333727,-0.171152,0.099750,-0.889926,-0.490040,0.214201,14.435471,9.071888,-4.753022,0.002000,0.140018,-0.463005
486.000000,0.002000,-0.288159,0.043111,1.444258,-1.840069,-1.949825,0.654171,0.912162,-0.416014,-6.069442,0.002000,-0.384011,-1.214977
487.000000,0.002000,-0.549421,2.057282,3.036393,-0.500385,-1.057622,0.108748,0.286092,-0.712240,-1.117745,0.002000,-1.098878,-0.271156
488.000000,0.002000,1.783832,-1.084061,1.034294,-0.688998,0.305035,-1.600479,-2.137322,1.465753,-1.305229,0.002000,-1.016500,-0.010236
489.000000,0.002000,-0.155115,0.357569,-0.090511,-1.135224,-1.697985,-4.542875,7.066510,-16.458420,4.590430,0.002000,7.484513,0.070950
490.000000,0.002000,-1.541426,-0.822081,1.028412,0.483070,-0.356656,0.998640,2.798038,1.599547,-1.936961,0.002000,-0.188403,1.395406
491.000000,0.002000,-0.070641,0.172394,0.381382,-1.833080,0.754993,0.456564,3.566797,-6.573413,-17.191617,0.002000,-0.333727,0.835809
492.000000,0.002000,-0.038988,-0.063547,-0.468874,1.022299,0.793852,0.502811,2.032789,3.982716,16.209697,0.002000,-0.288159,0.766547
493.000000,0.002000,-0.007331,0.375944,1.095759,1.818806,0.424218,1.207459,0.146298,-3.138870,-7.408928,0.002000,-0.549421,2.427801
494.000000,0.002000,0.332438,-0.005491,-0.262449,0.014444,1.463940,-2.020882,-14.846006,1.470402,12.171984,0.002000,1.783832,0.383365
495.000000,0.002000,-0.229870,0.062641,-0.507994,-0.725315,0.306775,1.538337,5.356529,-0.736949,15.249791,0.002000,-0.155115,0.416194
496.000000,0.002000,-1.224435,-0.850658,-0.074111,-1.305667,-2.350839,-1.160803,4.906652,3.641554,0.263631,0.002000,-1.541426,0.367387
497.000000,0.002000,1.405236,-8.743921,-4.169977,-0.658352,-1.526932,-0.421309,-0.029860,0.186014,0.087991,0.002000,-0.070641,-0.408662
498.000000,0.002000,0.275903,-0.330917,-0.024237,3.260256,0.964498,-1.579845,-11.231908,13.647875,-1.557369,0.002000,-0.038988,5.295551
499.000000,0.002000,1.176405,0.417445,-0.805156,2.770837,-0.805174,-0.307657,-4.817522,-1.483362,3.195808,0.002000,-0.007331,0.250230
500.000000,0.002000,-0.189706,-0.489652,-0.099111,-0.644598,2.961870,-2.005906,5.051588,16.680305,2.577604,0.002000,0.332438,0.094345
501.000000,0.002000,0.313986,0.058163,-0.162894,1.174256,0.666300,0.213928,-16.064308,-4.051179,9.651334,0.002000,-0.229870,0.963696
502.000000,0.002000,0.920767,-0.272080,0.484863,1.501248,1.561805,-0.862479,-7.298513,2.387748,-4.043099,0.002000,-1.224435,-1.423390
503.000000,0.002000,-0.051137,-0.428309,-0.478545,0.094779,1.721553,-2.463923,1.027959,9.954109,10.863537,0.002000,1.405236,-2.704257
504.000000,0.002000,-0.418091,0.140298,-0.275537,-2.319465,-2.525400,3.808683,13.863306,-3.225302,10.709753,0.002000,0.275903,-0.189200
505.000000,0.002000,0.586573,0.926848,0.740499,0.362752,0.563445,1.241401,-3.187129,-4.953411,-4.144603,0.002000,1.176405,-0.171152
506.000000,0.002000,0.175447,0.395720,-0.787300,-0.128402,-0.803881,-0.154884,-3.827223,-5.331138,10.449951,0.002000,-0.189706,0.043111
507.000000,0.002000,-0.858954,0.267967,0.714672,-1.876071,0.484502,-1.183867,6.618221,-2.068618,-6.310536,0.002000,0.313986,2.057282
508.000000,0.002000,-1.013510,1.347816,-0.761561,-0.638191,1.249659,-1.895221,1.754616,-3.496992,2.268225,0.002000,0.920767,-1.084061
509.000000,0.002000,0.281369,-0.079662,0.491913,-2.239784,-1.240917,-4.203869,-10.056516,2.789732,-15.725250,0.002000,-0.051137,0.357569
510.000000,0.002000,-2.156980,0.269024,3.229590,0.414341,-0.491077,-0.118240,0.643326,-0.084205,-1.005386,0.002000,-0.418091,-0.822081
511.000000,0.002000,4.837346,-4.056973,0.625579,0.764954,-0.087568,1.268187,-0.368942,0.313271,-0.048634,0.002000,0.586573,0.172394
512.000000,0.002000,-0.718946,0.031959,-0.145061,-0.342217,0.846403,2.629563,15.640815,1.825873,2.283525,0.002000,0.175447,-0.063547
513.000000,0.002000,-3.018483,-0.801713,-1.763198,-0.314963,-0.168477,0.975546,1.247852,0.255836,0.695023,0.002000,-0.858954,0.375944
514.000000,0.002000,0.049472,1.210947,-0.602494,1.406614,0.579890,-1.079629,-0.221805,-6.437660,3.060309,0.002000,-1.013510,-0.005491
515.000000,0.002000,-0.856727,2.388408,1.897032,0.445313,-1.094712,-0.560968,0.465410,-1.296609,-1.074629,0.002000,0.281369,0.062641
516.000000,0.002000,0.355593,-0.008736,0.206899,-0.087204,-0.048531,0.384870,-16.341499,1.318153,-7.447687,0.002000,-2.156980,-0.850658
517.000000,0.002000,-0.143672,0.306754,-0.217562,0.725647,-3.184569,-2.553453,4.646569,-14.388074,11.651986,0.002000,4.837346,-8.743921
518.000000,0.002000,-0.039304,0.010361,0.359860,-0.396404,-1.474413,-0.878308,-0.163593,-0.562869,-17.925213,0.002000,-0.718946,-0.330917
519.000000,0.002000,0.055161,-0.350818,-0.000860,-1.275391,4.090607,0.054881,-2.100711,19.764351,-1.276273,0.002000,-3.018483,0.417445
520.000000,0.002000,0.546839,0.410144,-0.050048,-0.584675,1.731041,-0.939150,-12.670679,-9.505965,0.810975,0.002000,0.049472,-0.489652
521.000000,0.002000,-0.074397,0.657737,0.169391,-3.300637,-1.870954,1.316565,0.859942,-15.609901,-4.342689,0.002000,-0.856727,0.058163
522.000000,0.002000,0.356272,-0.164346,-0.023799,1.840995,1.984278,1.410103,-16.710453,7.918663,4.559152,0.002000,0.355593,-0.272080
523.000000,0.002000,-0.458080,0.318386,0.591554,-2.036543,0.679693,-0.497057,7.218725,-5.245620,-10.820096,0.002000,-0.143672,-0.428309
524.000000,0.002000,0.701899,0.918256,-0.156954,-2.369874,-2.766048,0.386389,-5.258702,-6.798288,1.387633,0.002000,-0.039304,0.140298
525.000000,0.002000,-1.637346,-1.325687,-1.018277,0.038111,0.082311,-0.635738,1.989508,1.748994,1.264695,0.002000,0.055161,0.926848
526.000000,0.002000,-0.043535,0.335391,-0.513349,-1.637319,0.078396,-1.916965,-0.314175,-5.758177,13.952557,0.002000,0.546839,0.395720
527.000000,0.002000,-0.357434,0.054461,0.310294,3.335972,1.313332,0.233806,14.560879,0.165938,-12.509123,0.002000,-0.074397,0.267967
528.000000,0.002000,1.593941,-0.233370,-0.901495,-2.338143,1.145796,-1.504170,-3.630019,0.668408,2.054341,0.002000,0.356272,1.347816
529.000000,0.002000,0.433224,-0.368545,0.016980,1.476967,0.339142,-1.692738,-11.332627,12.827953,-0.011049,0.002000,-0.458080,-0.079662
530.000000,0.002000,1.965225,-3.766434,-1.598613,0.907676,0.104565,0.101394,-0.391408,0.771945,0.323063,0.002000,0.701899,0.269024
531.000000,0.002000,1.015351,0.281013,-1.852354,0.564731,0.015313,0.741173,-1.789963,-0.211480,3.347306,0.002000,-1.637346,-4.056973
532.000000,0.002000,-0.472557,-0.720823,-0.926247,-3.234336,0.657239,0.828387,2.592792,4.382656,5.830371,0.002000,-0.043535,0.031959
533.000000,0.002000,0.955488,-1.017779,0.806442,2.301737,-0.089633,-0.839074,-2.974311,3.272186,-2.586297,0.002000,-0.357434,-0.801713
534.000000,0.002000,0.286191,-0.115776,0.178486,0.657310,-0.814607,0.349594,-14.003513,3.532305,-5.387418,0.002000,1.593941,1.210947
535.000000,0.002000,1.451269,1.512130,1.280130,-1.130723,-1.030442,-1.201159,-1.543126,-1.615731,-1.431901,0.002000,0.433224,2.388408
536.000000,0.002000,0.937262,1.283362,0.460083,1.603952,1.707010,0.932485,-2.973253,-3.957714,-1.414438,0.002000,1.965225,-0.008736
537.000000,0.002000,-0.058536,-0.622576,0.547013,-1.613368,-3.202181,-0.059843,1.270192,9.669997,-8.834111,0.002000,1.015351,0.306754
538.000000,0.002000,-1.233529,2.941356,-0.108471,0.182358,0.244710,-0.204639,0.639760,-1.602357,0.092722,0.002000,-0.472557,0.010361
539.000000,0.002000,0.118534,-0.004248,-0.565155,4.036273,3.327854,-0.566327,-6.226401,2.166575,14.543231,0.002000,0.955488,-0.350818
540.000000,0.002000,0.550841,-0.254506,0.263528,1.953384,0.913999,0.688885,-12.907303,5.817970,-6.555205,0.002000,0.286191,0.410144
541.000000,0.002000,0.311470,-1.899333,-1.721376,0.282182,-0.269518,-0.299913,-0.317057,1.891001,1.545737,0.002000,1.451269,0.657737
542.000000,0.002000,-0.750213,-0.019532,0.525102,-2.968026,0.091927,-1.886648,10.483556,0.313973,-6.649855,0.002000,0.937262,-0.164346
543.000000,0.002000,0.410621,0.790584,0.280457,0.368475,1.281535,-0.642760,-5.649139,-9.378592,-3.254101,0.002000,-0.058536,0.318386
544.000000,0.002000,0.172865,-0.337578,0.271284,1.223765,0.020906,0.077456,-9.115144,8.866414,-11.823516,0.002000,-1.233529,0.918256
545.000000,0.002000,-0.746802,0.646330,0.431983,-3.041490,0.727790,1.947613,6.779503,-6.386718,-4.495352,0.002000,0.118534,-1.325687
546.000000,0.002000,-0.275037,-0.047136,0.082539,-2.274196,1.148792,-1.537426,13.739830,5.860433,-2.260716,0.002000,0.550841,0.335391
547.000000,0.002000,0.311880,-0.210006,0.392470,1.391925,-0.262485,1.186105,-10.176516,6.707099,-11.776485,0.002000,0.311470,0.054461
548.000000,0.002000,-0.309158,-1.577022,-0.746996,-1.150493,-1.676088,-0.458764,0.707973,4.056687,1.883548,0.002000,-0.750213,-0.233370
549.000000,0.002000,-0.300165,1.777431,-1.136038,2.411188,-0.777851,0.200579,0.414291,-2.945626,1.892974,0.002000,0.410621,-0.368545
550.000000,0.002000,0.122165,-0.320172,0.131534,-2.397991,-0.622161,-4.366024,-7.910210,17.994598,-5.638557,0.002000,0.172865,-3.766434
551.000000,0.002000,2.916871,1.202774,-0.790639,-0.536092,-0.613574,-1.033257,-1.509276,-0.554872,0.389592,0.002000,-0.746802,0.281013
552.000000,0.002000,-0.622053,0.546058,-0.327546,0.944507,-1.389411,-1.385165,9.225327,-8.585704,4.871256,0.002000,-0.275037,-0.720823
553.000000,0.002000,2.051934,-1.595879,-0.672574,-0.722577,0.505647,1.522579,-1.691845,1.352574,0.534684,0.002000,0.311880,-1.017779
554.000000,0.002000,-0.340119,0.003403,-0.040661,-1.891231,0.898490,0.819731,18.024613,0.654688,2.003071,0.002000,-0.309158,-0.115776
555.000000,0.002000,0.412837,-0.277474,-0.289330,3.618476,0.118458,-1.413483,-12.118809,8.099210,7.682361,0.002000,-0.300165,1.512130
556.000000,0.002000,0.121665,-0.732328,0.056293,-0.086243,2.011532,-1.034039,-3.134044,13.911723,-1.918734,0.002000,0.122165,1.283362
557.000000,0.002000,-0.119133,-0.034784,-0.383221,4.223405,0.326380,-0.698202,5.960617,2.170631,17.454186,0.002000,2.916871,-0.622576
558.000000,0.002000,1.162457,-1.069811,1.184786,-1.180461,-0.625168,-2.205691,-2.311883,2.142809,-2.198964,0.002000,-0.622053,2.941356
559.000000,0.002000,1.338393,0.439953,0.910214,-1.085127,-1.915507,1.515808,-3.969607,-1.089798,-2.727626,0.002000,2.051934,-0.004248
560.000000,0.002000,0.134412,2.556562,-0.220847,-0.121475,-0.520456,1.967302,-0.105133,-2.446904,0.138887,0.002000,-0.340119,-0.254506
561.000000,0.002000,-0.360474,0.388090,0.361620,0.467460,-2.577670,-1.010017,9.692538,-9.254498,-10.269949,0.002000,0.412837,-1.899333
562.000000,0.002000,-0.680727,2.651912,0.004367,1.906356,1.139756,-0.060535,0.526304,-2.123769,-0.026634,0.002000,0.121665,-0.019532
563.000000,0.002000,-0.491411,0.354881,0.208966,-3.009769,3.433743,-2.742937,13.959506,-10.452725,-9.749187,0.002000,-0.119133,0.790584
564.000000,0.002000,-0.799349,-0.014490,0.288361,-0.466563,3.681876,-3.027487,12.970086,1.306594,-4.965209,0.002000,1.162457,-0.337578
565.000000,0.002000,-0.426247,3.107850,1.699576,0.787446,1.024917,0.560898,0.183800,-1.216131,-0.696692,0.002000,1.338393,0.646330
566.000000,0.002000,0.833165,-0.345825,-0.405795,2.363551,-2.133391,0.289742,-8.853101,3.999323,4.221125,0.002000,0.134412,-0.047136
567.000000,0.002000,2.256620,-0.130950,0.669778,-1.599473,0.421648,-1.322772,-2.720498,0.217818,-0.804360,0.002000,-0.360474,-0.210006
568.000000,0.002000,-0.326457,-0.307279,0.064984,0.226330,1.286432,-0.613704,12.511655,14.045836,-3.580593,0.002000,-0.680727,-1.577022
569.000000,0.002000,0.434185,-1.089516,-1.030753,-0.785272,1.612891,-1.387302,-1.581937,3.891922,3.442346,0.002000,-0.491411,1.777431
570.000000,0.002000,1.314545,-3.069936,2.757834,0.192510,1.064597,-0.580454,-0.313597,0.707282,-0.633194,0.002000,-0.799349,-0.320172
571.000000,0.002000,-0.237877,-0.686923,-0.203810,1.395605,0.123680,-2.606658,3.778621,13.170080,3.016525,0.002000,-0.426247,1.202774
572.000000,0.002000,-0.272399,-0.345029,-0.403185,-3.165852,3.653053,2.318292,6.327187,9.190618,12.207719,0.002000,0.833165,0.546058
573.000000,0.002000,0.009874,0.342881,-0.175408,-0.370722,-2.073845,1.793859,-2.009645,-14.648475,9.707657,0.002000,2.256620,-1.595879
574.000000,0.002000,1.132513,0.156188,0.733129,0.536557,-1.136875,-2.282302,-5.664253,-0.551999,-3.810171,0.002000,-0.326457,0.003403
575.000000,0.002000,1.123375,2.808090,-0.002894,0.269112,-1.201030,-0.192318,-0.732572,-1.717015,-0.009673,0.002000,0.434185,-0.277474
576.000000,0.002000,-0.197400,0.402217,-0.264121,3.624170,-0.148886,1.442495,7.154064,-14.109332,8.726316,0.002000,1.314545,-0.732328
577.000000,0.002000,0.534802,-0.076519,0.044213,1.314170,0.794184,2.809613,-17.334009,2.877396,-2.495400,0.002000,-0.237877,-0.034784
578.000000,0.002000,0.245706,0.286228,-1.147944,-2.336714,-3.406322,1.410510,-1.719072,-1.531574,7.833002,0.002000,-0.272399,-1.069811
579.000000,0.002000,-0.113447,0.322281,-2.054759,-0.115111,-0.596114,-1.541902,0.054108,-0.542235,3.360544,0.002000,0.009874,0.439953
580.000000,0.002000,-0.610872,-0.071586,-1.339191,0.771393,-1.163421,-0.266731,2.508313,0.399810,5.779161,0.002000,1.132513,2.556562
581.000000,0.002000,-0.227588,-0.493708,0.295169,-2.739203,1.357226,2.045328,3.472093,15.248816,-7.485964,0.002000,1.123375,0.388090
582.000000,0.002000,0.200348,1.879960,3.213358,-0.545321,0.021318,-0.733433,-0.071907,-0.570846,-1.136664,0.002000,-0.197400,2.651912
583.000000,0.002000,1.722877,3.234354,2.552158,0.904286,0.493638,-1.548040,-0.367809,-0.734717,-0.568364,0.002000,0.534802,0.354881
584.000000,0.002000,0.213769,-0.249206,-0.123651,1.040512,-1.180632,-3.448768,-11.879290,10.710532,7.160854,0.002000,0.245706,-0.014490
585.000000,0.002000,0.023155,1.580579,-1.281722,-1.386902,1.367420,-0.700306,-0.123175,-2.789824,2.395036,0.002000,-0.113447,3.107850
586.000000,0.002000,-0.283516,0.515973,-0.010411,1.760286,-0.856180,-0.398479,8.101330,-15.122258,0.034238,0.002000,-0.610872,-0.345825
587.000000,0.002000,0.602264,0.154034,-0.121608,-3.183176,-3.404146,2.452754,-14.637304,-1.609062,3.015243,0.002000,-0.227588,-0.130950
588.000000,0.002000,-0.276944,0.488772,-0.452063,-1.534202,1.205270,-3.802117,5.502044,-10.869699,10.198395,0.002000,0.200348,-0.307279
589.000000,0.002000,0.450871,-0.942450,0.464782,-0.115092,2.598820,1.492261,-2.965345,7.296240,-3.135226,0.002000,1.722877,-1.089516
590.000000,0.002000,1.882164,1.345551,1.721297,-0.796761,-1.461242,-0.039363,-1.323077,-0.897915,-1.249015,0.002000,0.213769,-3.069936
591.000000,0.002000,0.444305,-0.168673,-0.131390,-0.220616,-2.288005,0.600747,-14.749087,8.409745,5.489859,0.002000,0.023155,-0.686923
592.000000,0.002000,0.164500,0.523727,-0.099555,-0.211251,1.437717,-0.724826,-5.617354,-16.941589,3.253525,0.002000,-0.283516,-0.345029
593.000000,0.002000,-0.938340,1.188303,0.761751,1.855703,-1.399342,-1.681464,2.838504,-3.495431,-2.269138,0.002000,0.602264,0.342881
594.000000,0.002000,-0.360833,-1.362647,2.234959,0.734952,1.670523,-0.092832,0.316390,1.127422,-1.988882,0.002000,-0.276944,0.156188
595.000000,0.002000,-0.885035,0.121316,-0.057760,0.557219,-1.535510,-0.134457,13.434546,-1.315638,-0.141492,0.002000,0.450871,2.808090
596.000000,0.002000,-1.955108,0.693252,0.649605,1.844801,-1.523638,-0.139275,2.955588,-1.192340,-0.911812,0.002000,1.882164,0.402217
597.000000,0.002000,-0.480300,1.762259,0.179561,-1.750594,0.484398,-0.797073,1.186216,-4.218344,-0.505359,0.002000,0.444305,-0.076519
598.000000,0.002000,0.343623,-0.452818,0.472704,0.023245,1.997349,1.390001,-7.043764,8.846294,-9.530908,0.002000,0.164500,0.286228
599.000000,0.002000,-0.344257,-0.268718,-0.226760,-1.990494,0.547777,4.649986,13.228366,10.166963,11.068343,0.002000,-0.938340,0.322281
600.000000,0.002000,0.048676,-0.827054,0.756717,0.691701,0.182823,1.209555,-0.212485,6.727465,-6.141701,0.002000,-0.360833,-0.071586
601.000000,0.002000,-0.566009,0.730826,0.337918,-1.502514,0.538927,-2.595745,6.779205,-8.492099,-3.897287,0.002000,-0.885035,-0.493708
602.000000,0.002000,-0.262800,0.372171,-0.364115,-0.290451,2.148988,-3.384527,7.161432,-9.350372,11.750924,0.002000,-1.955108,1.879960
603.000000,0.002000,-2.094517,-0.282848,-0.569288,0.720466,1.667291,1.381855,3.240872,0.451891,0.855529,0.002000,-0.480300,3.234354
604.000000,0.002000,-0.334454,-0.110511,-0.069522,-2.931648,3.119396,0.271226,15.830454,4.510644,0.834405,0.002000,0.343623,-0.249206
605.000000,0.002000,0.529652,-0.252951,-0.294257,0.312163,-1.592417,-2.304086,-11.785895,6.337844,6.984245,0.002000,-0.344257,1.580579
606.000000,0.002000,3.360225,1.906145,-2.148746,0.027445,1.226004,-0.557651,-0.615193,-0.467139,0.435557,0.002000,0.048676,0.515973
607.000000,0.002000,0.492377,0.538839,-0.177663,2.021573,0.515511,3.421716,-8.851779,-10.100449,3.781019,0.002000,-0.566009,0.154034
608.000000,0.002000,-0.171432,0.178356,0.352731,-0.447214,-0.605438,2.563660,8.944177,-7.929294,-13.738115,0.002000,-0.262800,0.488772
609.000000,0.002000,0.937510,-0.098404,0.844020,-2.696187,-0.640092,-1.963184,-5.230710,0.824939,-5.128445,0.002000,-2.094517,-0.942450
610.000000,0.002000,-0.028262,-0.213872,0.166616,-1.939904,-0.388472,-3.853546,0.510075,15.331462,-7.776572,0.002000,-0.334454,1.345551
611.000000,0.002000,0.070686,0.176661,0.486510,-0.596402,-2.599526,-0.569151,-3.200553,-5.853362,-17.262537,0.002000,0.529652,-0.168673
612.000000,0.002000,-0.423468,0.144322,0.144021,-0.494117,-0.235268,1.834572,17.176264,-4.876175,-8.111272,0.002000,3.360225,0.523727
613.000000,0.002000,-0.320470,-0.371096,0.251940,-1.093132,-0.412802,-0.614142,4.874726,16.236618,-9.342489,0.002000,0.492377,1.188303
614.000000,0.002000,-0.378609,0.105123,0.371387,3.279670,0.098280,0.614942,11.672883,-3.236203,-12.105043,0.002000,-0.171432,-1.362647
615.000000,0.002000,-0.573045,-0.041272,-1.071138,0.861329,1.668514,1.573764,3.306897,1.082312,8.899912,0.002000,0.937510,0.121316
616.000000,0.002000,0.382630,0.027554,-0.573026,2.265130,0.645364,2.111237,-8.876188,0.506032,12.424462,0.002000,-0.028262,0.693252
617.000000,0.002000,0.413163,-0.094222,0.404082,1.942952,-1.799567,1.425819,-12.807715,1.744991,-11.647299,0.002000,0.070686,1.762259
618.000000,0.002000,-0.204724,0.031829,-0.307781,0.907808,-1.853675,0.957574,8.574941,-2.108721,16.100366,0.002000,-0.423468,-0.452818
619.000000,0.002000,0.727105,0.758437,-2.967646,-0.256079,-0.351539,1.162911,-0.455620,-0.409052,1.673336,0.002000,-0.320470,-0.268718
620.000000,0.002000,0.129265,-0.737076,-0.279221,0.730486,-0.775600,0.451516,-2.455274,12.417570,4.585177,0.002000,-0.378609,-0.827054
621.000000,0.002000,-0.034953,0.352963,-0.343123,-2.460563,-1.279371,-3.602238,0.248392,-11.199537,14.036689,0.002000,-0.573045,0.730826
622.000000,0.002000,0.747678,-0.414219,-0.331327,-0.300311,-0.460045,2.828664,-8.989019,5.742848,4.224987,0.002000,0.382630,0.372171
623.000000,0.002000,-0.149870,0.165103,0.215640,-0.197217,0.675303,1.277215,2.689894,-6.535645,-11.960912,0.002000,0.413163,-0.282848
624.000000,0.002000,-0.207509,-0.195763,0.128007,1.608102,0.688481,0.646350,11.251029,12.394200,-8.553689,0.002000,-0.204724,-0.110511
625.000000,0.002000,0.374149,2.356892,1.251919,-0.437153,-1.491006,-0.447145,-0.359602,-1.955640,-1.103601,0.002000,0.727105,-0.252951
626.000000,0.002000,-0.154746,0.509085,-0.707355,-2.084795,-0.453372,-0.425712,1.598402,-7.203933,10.391685,0.002000,0.129265,1.906145
627.000000,0.002000,-0.356224,-0.436648,-0.304582,0.713987,1.828078,-1.058258,7.876008,12.453087,8.360993,0.002000,-0.034953,0.538839
628.000000,0.002000,0.374026,-0.520674,-0.428790,1.060115,-2.443348,2.146450,-6.996466,9.277854,7.129426,0.002000,0.747678,0.178356
629.000000,0.002000,-0.519243,0.179188,-0.650681,-2.785549,1.283574,2.416043,8.585335,-1.581284,10.328534,0.002000,-0.149870,-0.098404
630.000000,0.002000,0.254698,-0.105614,0.422185,0.097575,0.746644,-3.538668,-11.232081,4.331932,-15.751506,0.002000,-0.207509,-0.213872
631.000000,0.002000,1.212163,0.321357,0.521117,-3.385238,0.340607,-1.146687,-6.443855,-1.474226,-2.273892,0.002000,0.374149,0.176661
632.000000,0.002000,0.644685,-0.182367,-0.294893,1.090257,-1.912748,0.172170,-11.374894,3.354586,6.971924,0.002000,-0.154746,0.144322
633.000000,0.002000,2.623873,1.244803,-2.844949,0.407777,-0.737158,0.388999,-0.732112,-0.331088,0.790866,0.002000,-0.356224,-0.371096
634.000000,0.002000,0.280341,-0.148792,0.127748,1.934687,2.438865,-3.080011,-15.846068,7.115814,-7.255897,0.002000,0.374026,0.105123
635.000000,0.002000,0.318081,-0.647354,0.505787,-1.052002,0.152503,-1.450808,-4.421262,8.595921,-6.822972,0.002000,-0.519243,-0.041272
636.000000,0.002000,-0.043824,-0.049637,0.054742,-0.221452,-3.884350,1.301812,3.868292,0.772340,-3.019528,0.002000,0.254698,0.027554
637.000000,0.002000,-1.037371,-1.165623,-0.387761,-1.327578,-1.479287,-1.447183,3.297289,3.861936,1.324930,0.002000,1.212163,-0.094222
638.000000,0.002000,-0.582449,-0.058541,-0.272041,-3.976579,-0.891739,-3.155241,15.648107,2.529576,8.117658,0.002000,0.644685,0.031829
639.000000,0.002000,0.981527,-0.058263,0.075525,1.961314,0.422508,2.095128,-10.964525,1.109031,-0.851934,0.002000,2.623873,0.758437
640.000000,0.002000,0.224259,0.053502,0.109311,3.865814,1.419707,2.224222,-12.896233,-7.147195,-5.720751,0.002000,0.280341,-0.737076
641.000000,0.002000,-0.567618,0.663492,-0.358490,0.379289,-1.752898,-1.190362,7.581592,-8.948516,5.474353,0.002000,0.318081,0.352963
642.000000,0.002000,0.003604,-0.117810,0.088191,-0.553216,2.665081,2.731054,-4.863079,7.213231,-6.145866,0.002000,-0.043824,-0.414219
643.000000,0.002000,-0.170371,1.440023,0.806457,2.796045,-1.009681,-0.871231,0.453602,-4.583326,-2.638312,0.002000,-1.037371,0.165103
644.000000,0.002000,-0.502545,-0.924209,0.614161,1.936202,0.251708,-2.233892,2.947747,6.058081,-3.856053,0.002000,-0.582449,-0.195763
645.000000,0.002000,-0.017533,0.284245,0.015903,0.983722,2.031067,-1.423969,0.521557,-13.768421,-1.304658,0.002000,0.981527,2.356892
646.000000,0.002000,-0.048154,0.683435,1.161117,0.927326,-1.580946,-3.071881,0.030132,-3.635529,-6.476911,0.002000,0.224259,0.509085
647.000000,0.002000,-1.145608,1.104881,-1.385597,0.482075,-0.542235,-1.120263,2.033389,-1.926620,2.440667,0.002000,-0.567618,-0.436648
648.000000,0.002000,0.079321,-0.605546,0.201097,-2.873965,-2.592874,1.539937,-2.590586,14.763416,-4.650886,0.002000,0.003604,-0.520674
649.000000,0.002000,-0.224221,-0.117779,-0.174697,-0.252851,0.979648,0.955210,8.808714,6.441358,11.667574,0.002000,-0.170371,0.179188
650.000000,0.002000,-0.854458,-3.898447,0.249454,1.126843,-0.770215,-0.465866,0.240976,1.121874,-0.055110,0.002000,-0.502545,-0.105614
651.000000,0.002000,-3.723036,1.566474,0.813748,-0.111945,-0.278476,-0.833574,0.997363,-0.409096,-0.208954,0.002000,-0.017533,0.321357
652.000000,0.002000,-0.162877,-0.467544,-0.299908,1.665860,-0.760228,-2.914534,0.925961,12.542627,10.157935,0.002000,-0.048154,-0.182367
653.000000,0.002000,-1.200443,2.015702,2.119371,0.526744,-1.066305,-0.136845,0.654823,-1.095538,-1.171904,0.002000,-1.145608,1.244803
654.000000,0.002000,-0.652892,-0.052046,-0.915727,-0.057819,1.291609,3.069988,6.058140,1.055375,7.887070,0.002000,0.079321,-0.148792
655.000000,0.002000,-0.786344,1.059610,0.225788,-1.928833,-2.412762,-1.797670,4.502738,-5.960577,-1.313561,0.002000,-0.224221,-0.647354
656.000000,0.002000,0.215776,0.191659,1.379150,-0.887406,0.066865,-0.326709,-1.154930,-0.633447,-6.257676,0.002000,-0.854458,-0.049637
657.000000,0.002000,0.119440,-0.061949,-0.539485,1.549352,-0.782359,1.480043,-4.947167,3.863338,15.369047,0.002000,-3.723036,-1.165623
658.000000,0.002000,-0.493755,-0.041523,-0.069789,2.837805,0.337619,-0.465244,17.717426,2.968095,1.100622,0.002000,-0.162877,-0.058541
659.000000,0.002000,-0.793848,-0.702099,-0.366032,0.904246,1.616693,2.338028,6.630029,6.299470,2.991805,0.002000,-1.200443,-0.058263
660.000000,0.002000,-0.444960,-0.036168,0.115988,0.517516,3.055881,2.391294,18.068803,2.646166,-4.326702,0.002000,-0.652892,0.053502
661.000000,0.002000,-1.297645,0.683961,0.342614,0.417696,0.751635,0.681951,5.274819,-3.110012,-1.588279,0.002000,-0.786344,0.663492
662.000000,0.002000,0.779786,0.065383,0.067697,1.100704,1.727579,4.179618,-14.911295,-0.717038,-1.385093,0.002000,0.215776,-0.117810
663.000000,0.002000,0.668788,0.087221,-1.183577,-0.745446,-0.260570,-1.204443,-3.344176,-0.290688,5.647408,0.002000,0.119440,1.440023
664.000000,0.002000,-0.358888,-0.378993,0.225719,0.560701,-2.534794,-0.442928,12.530259,14.865383,-4.392919,0.002000,-0.493755,-0.924209
665.000000,0.002000,0.320762,-0.277783,0.003383,-1.156711,-3.433340,-1.084586,-12.576398,13.331460,-0.089285,0.002000,-0.793848,0.284245
666.000000,0.002000,-0.036011,-0.328723,0.190564,-0.747697,3.739311,2.082109,0.732589,18.555428,-7.459957,0.002000,-0.444960,0.683435
667.000000,0.002000,0.662125,0.727727,0.363587,-0.180827,-1.150489,0.938717,-6.287004,-6.871058,-3.531957,0.002000,-1.297645,1.104881
668.000000,0.002000,1.003005,-1.153541,-1.226198,0.035473,0.745011,1.092490,-1.957059,2.135624,2.066754,0.002000,0.779786,-0.605546
669.000000,0.002000,-0.990729,0.304783,-0.004525,1.367486,0.743552,1.884088,10.304961,-2.937350,-0.241484,0.002000,0.668788,-0.117779
670.000000,0.002000,-0.198412,-0.135575,0.200448,-2.093664,1.229581,2.941400,13.313142,10.027088,-8.809739,0.002000,-0.358888,-3.898447
671.000000,0.002000,-0.134815,-0.822915,0.040904,0.625941,-3.257109,1.997382,1.187158,12.914493,-0.578290,0.002000,0.320762,1.566474
672.000000,0.002000,0.073816,-0.000275,-0.074447,2.947592,-0.372774,0.857526,-4.262915,4.894351,8.108772,0.002000,-0.036011,-0.467544
673.000000,0.002000,1.809836,-3.811583,1.810529,-0.767215,0.438953,1.558925,-0.360759,0.742888,-0.345011,0.002000,0.662125,2.015702
674.000000,0.002000,1.942702,1.750001,3.112497,0.253155,-0.598867,0.098502,-0.538137,-0.465586,-0.882554,0.002000,1.003005,-0.052046
675.000000,0.002000,0.628919,-1.434841,0.489992,1.692160,-0.129813,1.100168,-1.816689,4.382277,-1.433024,0.002000,-0.990729,1.059610
676.000000,0.002000,0.240701,0.154623,0.151328,1.972647,1.054569,3.095702,-14.361087,-6.833195,-8.021084,0.002000,-0.198412,0.191659
677.000000,0.002000,-0.539106,-0.074071,0.538710,-0.339153,0.235707,-2.021067,10.850420,1.710224,-11.311662,0.002000,-0.134815,-0.061949
678.000000,0.002000,0.024494,-0.210951,-0.479940,-0.031152,-1.729892,2.476695,-3.094946,7.332080,17.108570,0.002000,0.073816,-0.041523
679.000000,0.002000,-0.407584,0.949607,0.723594,2.333009,-1.832685,-2.210862,2.528924,-6.043523,-4.733165,0.002000,1.809836,-0.702099
680.000000,0.002000,-0.816042,-1.587631,1.551808,1.024633,1.315914,-0.511669,0.995339,1.894514,-1.822274,0.002000,1.942702,-0.036168
681.000000,0.002000,-1.059470,-1.098578,0.229212,-1.579751,-0.453838,-0.402585,3.746556,4.144325,-1.002165,0.002000,0.628919,0.683961
682.000000,0.002000,-0.183263,0.479660,-0.005240,0.189895,-0.753767,0.099745,6.368836,-17.603742,-0.430287,0.002000,0.240701,0.065383
683.000000,0.002000,-1.388701,-1.509741,3.026446,-0.399893,-0.014747,0.251357,0.528276,0.561160,-1.114222,0.002000,-0.539106,0.087221
684.000000,0.002000,1.132813,-1.212481,0.336234,-0.902759,1.291964,-0.351756,-3.238846,3.376495,-0.935729,0.002000,0.024494,-0.378993
685.000000,0.002000,-0.488369,-0.131884,-0.044341,1.788819,-2.976572,-0.375850,18.640543,6.104356,-0.118175,0.002000,-0.407584,-0.277783
686.000000,0.002000,0.031800,0.816002,-0.150212,-0.304962,-0.172988,1.882592,-1.643604,-13.189991,1.651808,0.002000,-0.816042,-0.328723
687.000000,0.002000,-0.341988,-3.800076,0.430889,0.073549,0.774094,0.765510,0.084088,1.212289,-0.127317,0.002000,-1.059470,0.727727
688.000000,0.002000,-0.001408,0.787453,-0.847239,1.045493,2.454212,-0.053939,0.321759,-5.955877,6.549724,0.002000,-0.183263,-1.153541
689.000000,0.002000,-0.610351,2.819571,0.783084,-0.296046,-1.193353,-0.769500,0.383438,-1.783817,-0.516735,0.002000,-1.388701,0.304783
690.000000,0.002000,0.553588,-1.604965,-2.007498,0.302298,0.723050,1.507412,-0.568667,1.508358,1.762365,0.002000,1.132813,-0.135575
691.000000,0.002000,-1.323653,-1.796843,0.594279,1.638241,1.374384,-0.185388,1.614860,2.314321,-0.818527,0.002000,-0.488369,-0.822915
692.000000,0.002000,-0.100255,0.214821,-0.245190,-0.851309,3.810134,-0.315250,2.618014,-3.512385,12.447076,0.002000,0.031800,-0.000275
693.000000,0.002000,-0.007951,0.341598,0.785358,1.121026,1.744135,-0.207759,-0.597860,-4.493837,-12.397117,0.002000,-0.341988,-3.811583
694.000000,0.002000,0.265977,-0.150706,0.194098,-4.479135,-1.463229,-1.169937,-16.006586,6.709717,-9.648693,0.002000,-0.001408,1.750001
695.000000,0.002000,1.113869,1.629720,-0.378034,-1.044783,0.971646,0.253821,-2.125328,-3.021425,0.758465,0.002000,-0.610351,-1.434841
696.000000,0.002000,3.751701,-0.270815,-0.986392,-0.495829,-0.145207,0.339785,-1.169954,0.123250,0.309490,0.002000,0.553588,0.154623
697.000000,0.002000,2.321724,2.514768,0.609494,0.999850,-0.336811,0.594908,-1.001096,-1.052446,-0.289333,0.002000,-1.323653,-0.074071
698.000000,0.002000,-0.050659,-0.026411,0.251468,0.572771,-1.335807,1.060513,-1.460166,0.100444,-14.152242,0.002000,-0.100255,-0.210951
699.000000,0.002000,-0.029782,-0.817305,0.244158,-0.585857,-2.135361,1.058694,-0.097906,11.961570,-4.194743,0.002000,-0.007951,0.949607
700.000000,0.002000,-1.054207,-0.045664,0.197480,1.178140,1.577116,2.717694,9.776933,1.325814,-1.457161,0.002000,0.265977,-1.587631
701.000000,0.002000,0.029295,-0.262888,-0.158532,-2.156424,0.438506,-0.729699,-3.211864,15.308300,12.143271,0.002000,1.113869,-1.098578
702.000000,0.002000,-0.399465,0.726425,0.803480,3.444186,-2.041392,0.323076,2.806440,-5.670998,-6.609022,0.002000,3.751701,0.479660
703.000000,0.002000,0.812831,-0.607749,0.565769,-0.040079,-1.151745,1.950469,-5.710839,4.275894,-4.300886,0.002000,2.321724,-1.509741
704.000000,0.002000,3.184828,1.096626,-1.084887,-0.828544,0.353208,0.711877,-1.300562,-0.426486,0.462526,0.002000,-0.050659,-1.212481
705.000000,0.002000,1.871211,-1.005624,6.431223,0.441448,-0.441922,1.172938,-0.118854,0.064126,-0.407279,0.002000,-0.029782,-0.131884
706.000000,0.002000,-0.297046,-0.069947,0.396672,5.517365,0.381286,1.681540,10.922429,1.632183,-16.611271,0.002000,-1.054207,0.816002
707.000000,0.002000,-0.295058,0.387731,0.909151,-2.104103,-0.726665,-3.599007,3.006497,-3.694087,-9.539100,0.002000,0.029295,-3.800076
708.000000,0.002000,-0.089051,-0.062925,0.820532,1.444990,1.206356,1.874147,0.870995,1.527591,-13.739899,0.002000,-0.399465,0.787453
709.000000,0.002000,0.032604,0.289665,0.198885,-0.868151,3.880875,0.865324,-2.864374,-14.545777,-7.267847,0.002000,0.812831,2.819571
710.000000,0.002000,0.112203,-0.410920,-0.455057,0.150334,0.257225,-1.517440,-3.739411,9.549970,11.143268,0.002000,3.184828,-1.604965
711.000000,0.002000,-2.854553,0.364875,1.028788,0.306519,-0.481026,1.746675,1.737701,-0.183756,-0.607234,0.002000,1.871211,-1.796843
712.000000,0.002000,-0.326929,0.243650,0.059904,-0.822517,1.385702,1.390814,14.892293,-11.213661,-4.732407,0.002000,-0.297046,0.214821
713.000000,0.002000,-1.540513,-0.851779,0.219447,-0.854226,1.157255,-0.829885,3.974642,2.263394,-0.699890,0.002000,-0.295058,0.341598
714.000000,0.002000,0.087499,0.821034,0.316300,-0.955972,-1.478847,0.462251,-1.585202,-11.720542,-3.857054,0.002000,-0.089051,-0.150706
715.000000,0.002000,-2.609192,-3.996788,3.589617,-0.663384,-0.796043,0.113689,0.237738,0.371144,-0.338062,0.002000,0.032604,1.629720
716.000000,0.002000,0.792893,1.728397,0.559615,1.410716,1.101608,-0.107564,-1.547903,-3.386348,-1.107218,0.002000,0.112203,-0.270815
717.000000,0.002000,1.242756,1.587920,0.157963,0.049289,0.740638,0.876141,-2.315625,-3.005230,-0.272689,0.002000,-2.854553,2.514768
718.000000,0.002000,1.936601,-0.281751,2.075779,-0.611145,-1.084676,-0.108795,-1.418673,0.268382,-1.526279,0.002000,-0.326929,-0.026411
719.000000,0.002000,0.619162,0.571464,0.177151,-1.372574,3.613231,2.350009,-9.175365,-7.674337,-2.821900,0.002000,-1.540513,-0.817305
720.000000,0.002000,0.208712,-0.101192,-0.742431,-3.828194,-0.735776,2.889552,-4.703494,3.045797,13.347322,0.002000,0.087499,-0.045664
721.000000,0.002000,0.330347,0.062209,0.297213,-1.056903,-2.387113,-1.109410,-14.158752,-3.352022,-12.156755,0.002000,-2.609192,-0.262888
722.000000,0.002000,0.648862,-0.157737,0.762828,-0.796887,0.163186,-0.142016,-6.690327,1.629405,-7.559801,0.002000,0.792893,0.726425
723.000000,0.002000,0.066866,0.542646,0.157020,-1.414578,0.959688,-0.224407,-2.338146,-17.313312,-4.839256,0.002000,1.242756,-0.607749
724.000000,0.002000,4.347561,0.135775,-1.031203,0.665949,0.089188,0.737210,-0.944323,-0.032482,0.212165,0.002000,1.936601,1.096626
725.000000,0.002000,-0.117767,-0.335287,-0.088213,1.063082,-1.816712,4.072307,3.174388,18.891292,2.938020,0.002000,0.619162,-1.005624
726.000000,0.002000,0.368640,0.894111,1.630763,-0.221942,0.189739,1.742511,-0.644046,-1.865071,-3.481797,0.002000,0.208712,-0.069947
727.000000,0.002000,0.377139,-0.975272,0.937434,0.871307,0.560740,-2.242504,-1.800933,4.390386,-4.240640,0.002000,0.330347,0.387731
728.000000,0.002000,0.561675,0.557823,-0.017229,2.230354,-0.555488,-1.975684,-10.217701,-9.069324,0.100949,0.002000,0.648862,-0.062925
729.000000,0.002000,-0.664465,0.018775,-0.237834,1.218615,-2.108575,0.886964,12.854339,0.207817,8.441417,0.002000,0.066866,0.289665
730.000000,0.002000,0.620104,0.313098,-0.117266,-2.819869,2.563562,0.353688,-13.739391,-4.530424,8.669922,0.002000,4.347561,-0.410920
731.000000,0.002000,-0.503084,-0.335815,-0.159992,-0.785440,-1.617102,-1.068147,13.286955,14.037032,5.492092,0.002000,-0.117767,0.364875
732.000000,0.002000,-0.510100,0.026968,0.168720,-0.078840,-3.533806,1.105525,17.178091,0.421263,-5.831270,0.002000,0.368640,0.243650
733.000000,0.002000,0.540762,3.201248,1.011504,-0.696691,0.116369,-1.154849,-0.270685,-1.436561,-0.489887,0.002000,0.377139,-0.851779
734.000000,0.002000,0.197381,-0.225729,-0.224250,-2.597344,0.107954,-0.405025,-9.776831,10.786138,9.657138,0.002000,0.561675,0.821034
735.000000,0.002000,-0.778803,0.372199,-0.036428,2.743556,-0.260309,2.906977,12.606248,-5.957255,0.399357,0.002000,-0.664465,-3.996788
736.000000,0.002000,-0.297152,0.120089,0.185875,-1.354230,-2.297960,3.174007,16.349439,-5.642068,-13.987521,0.002000,0.620104,1.728397
737.000000,0.002000,-0.062608,-0.051252,-0.105139,1.483614,2.546330,-2.197946,2.149430,-0.244273,13.751452,0.002000,-0.503084,1.587920
738.000000,0.002000,-2.004036,0.334490,1.557840,1.640971,-0.376888,-0.970508,1.913093,-0.267755,-1.572914,0.002000,-0.510100,-0.281751
739.000000,0.002000,0.471350,0.579027,0.092560,-1.969426,0.095941,-4.981176,-8.510923,-9.846706,-2.185196,0.002000,0.540762,0.571464
740.000000,0.002000,-0.105775,0.157305,-0.183101,0.078027,2.675878,2.141237,0.777349,-7.289324,15.341048,0.002000,0.197381,-0.101192
741.000000,0.002000,0.376386,0.009512,-0.296641,2.534522,-0.840074,3.280126,-14.782333,1.302916,12.394622,0.002000,-0.778803,0.062209
742.000000,0.002000,0.021655,0.367303,-0.115481,0.176709,-2.108042,3.026887,-2.256048,-17.641983,3.770182,0.002000,-0.297152,-0.157737
743.000000,0.002000,0.374969,-0.372352,-0.045599,2.841153,-0.601004,-3.444250,-12.982498,13.476760,2.677484,0.002000,-0.062608,0.542646
744.000000,0.002000,-0.628508,0.686943,-0.165787,-0.010813,-1.182900,-1.194229,7.811926,-10.190791,2.413541,0.002000,-2.004036,0.135775
745.000000,0.002000,4.457970,-0.759481,-1.891394,-0.001437,0.628122,-1.221432,-0.737459,0.134387,0.311886,0.002000,0.471350,-0.335287
746.000000,0.002000,1.749603,1.202175,0.018790,0.180464,0.375105,-0.165198,-2.844033,-1.898217,-0.015123,0.002000,-0.105775,0.894111
747.000000,0.002000,-0.414840,-1.241902,-2.774001,-0.685166,1.313071,-0.365055,0.270760,0.759884,1.639888,0.002000,0.376386,-0.975272
748.000000,0.002000,0.675124,-1.569490,-0.097353,-0.556884,2.811826,0.621543,-1.666352,4.118729,0.480205,0.002000,0.021655,0.557823
749.000000,0.002000,2.617336,0.937071,1.283159,-1.203081,-0.431813,-0.400662,-1.618423,-0.428686,-0.733100,0.002000,0.374969,0.018775
750.000000,0.002000,-0.240491,0.040937,0.271628,-0.975422,-1.167628,-0.762481,8.975786,-2.063198,-14.910582,0.002000,-0.628508,0.313098
751.000000,0.002000,0.070918,-0.194141,0.229521,-3.292284,-3.844580,-1.123912,-5.347952,10.425228,-12.160163,0.002000,4.457970,-0.335815
752.000000,0.002000,-1.211558,0.654036,-0.672443,-1.671205,-2.010244,-2.563587,5.061508,-2.480737,2.827495,0.002000,1.749603,0.026968
753.000000,0.002000,0.213041,0.840505,-0.765557,0.308797,1.698135,-1.496090,-1.507497,-6.278049,5.909272,0.002000,-0.414840,3.201248
754.000000,0.002000,-0.726109,-1.139399,0.280321,0.089873,-0.420582,0.007030,3.431053,5.577038,-1.345017,0.002000,0.675124,-0.225729
755.000000,0.002000,1.002333,-0.633773,0.829369,0.531701,0.924858,2.754777,-4.271576,2.666177,-3.498344,0.002000,2.617336,0.372199
756.000000,0.002000,-0.217210,1.187216,-0.054117,-1.080787,3.274915,1.233492,1.355946,-8.555127,0.375965,0.002000,-0.240491,0.120089
757.000000,0.002000,1.183245,-0.204701,0.273713,1.323100,-0.138698,0.575930,-7.406831,1.450355,-1.552622,0.002000,0.070918,-0.051252
758.000000,0.002000,0.055297,-0.301140,0.129070,-0.397089,0.273081,-1.163998,-2.439272,16.655316,-4.818346,0.002000,-1.211558,0.334490
759.000000,0.002000,-0.252622,0.556758,0.199308,-3.322386,-0.336258,0.808977,4.953379,-15.832059,-5.794911,0.002000,0.213041,0.579027
760.000000,0.002000,0.799387,-0.194789,-0.367546,-1.427417,-3.194496,-0.182996,-10.648531,3.123366,5.034253,0.002000,-0.726109,0.157305
761.000000,0.002000,0.165560,0.065165,-0.419553,-4.059639,0.876948,-1.200036,-8.943576,-0.369767,14.101406,0.002000,1.002333,0.009512
762.000000,0.002000,-0.487612,0.559163,-0.137902,0.003725,3.829107,1.880056,8.961218,-12.001552,2.383608,0.002000,-0.217210,0.367303
763.000000,0.002000,0.812523,0.034134,-0.009126,-1.692703,-1.640511,-0.093189,-13.952703,0.061030,0.773615,0.002000,1.183245,-0.372352
764.000000,0.002000,0.201814,-0.126592,0.406700,-2.259275,0.526768,0.238419,-8.328358,6.350657,-16.461191,0.002000,0.055297,0.686943
765.000000,0.002000,2.705849,1.013868,1.124194,0.184041,-0.194052,1.669212,-1.606677,-0.533995,-0.640498,0.002000,-0.252622,-0.759481
766.000000,0.002000,-0.006985,0.617918,-0.035367,0.629272,1.816004,2.968599,-1.040871,-17.078808,-0.521572,0.002000,0.799387,1.202175
767.000000,0.002000,0.758557,0.252695,0.035106,-0.972232,2.524153,1.910639,-14.118992,-3.584547,-0.272823,0.002000,0.165560,-1.241902
768.000000,0.002000,-0.164010,0.461318,-0.172539,-2.036647,0.693483,-2.963578,5.521862,-19.626698,4.627644,0.002000,-0.487612,-1.569490
769.000000,0.002000,-0.236239,0.123327,-0.130316,1.003096,0.082679,-1.075977,14.155775,-3.450088,8.533072,0.002000,0.812523,0.937071
770.000000,0.002000,0.410996,-0.668772,0.466961,2.029610,0.564695,-0.448769,-5.164269,8.366739,-5.976349,0.002000,0.201814,0.040937
771.000000,0.002000,0.311008,3.245119,0.401611,0.193949,-0.978659,-0.238822,-0.032209,-1.711853,-0.271218,0.002000,2.705849,-0.194141
772.000000,0.002000,-0.038364,0.245759,-1.714073,0.329334,1.993101,-0.748532,0.028466,-0.570378,4.714738,0.002000,-0.006985,0.654036
773.000000,0.002000,-0.106459,1.090435,-0.707187,-1.083847,2.784197,0.572442,0.718178,-6.242827,4.135028,0.002000,0.758557,0.840505
774.000000,0.002000,0.390374,-0.209464,0.193205,-2.045718,-0.262655,0.623438,-15.479003,8.153952,-6.006811,0.002000,-0.164010,-1.139399
775.000000,0.002000,3.039946,-2.415950,1.663354,-0.471984,0.128274,0.125279,-0.747248,0.613023,-0.411907,0.002000,-0.236239,-0.633773
776.000000,0.002000,2.503662,-1.967195,-2.484007,0.297284,0.665948,-0.452352,-0.714954,0.551660,0.709278,0.002000,0.410996,1.187216
777.000000,0.002000,0.600364,-0.020808,0.245902,-0.239577,1.546920,-2.464248,-13.366502,1.795288,-7.299521,0.002000,0.311008,-0.204701
778.000000,0.002000,-0.563783,-0.619543,0.189657,0.123781,0.600313,-2.221527,8.491198,10.880540,-2.610067,0.002000,-0.038364,-0.301140
779.000000,0.002000,0.008455,0.702069,0.328799,-2.590782,-2.423244,0.090150,-0.710311,-13.339885,-4.150144,0.002000,-0.106459,0.556758
780.000000,0.002000,0.273796,-2.049925,0.508578,0.558651,-0.553468,0.145325,-0.523823,3.268560,-0.614043,0.002000,0.390374,-0.194789
781.000000,0.002000,0.073935,0.739781,1.605303,1.154102,0.902024,-0.959579,-0.232805,-1.910893,-4.253188,0.002000,3.039946,0.065165
782.000000,0.002000,0.674387,0.276906,0.094235,-0.782731,-2.071191,1.077819,-15.294179,-4.863205,-1.053450,0.002000,2.503662,0.559163
783.000000,0.002000,0.660949,-1.108450,-3.652846,0.109974,0.393764,0.774111,-0.215355,0.368929,1.157065,0.002000,0.600364,0.034134
784.000000,0.002000,0.804161,-0.130518,0.314044,1.377159,0.649360,-1.431884,-11.116649,2.290063,-4.705362,0.002000,-0.563783,-0.126592
785.000000,0.002000,1.667926,-2.346171,0.711574,0.653163,-0.691802,-1.135597,-1.059834,1.489043,-0.451593,0.002000,0.008455,1.013868
786.000000,0.002000,-0.776208,0.608263,-0.919428,-2.996831,1.095287,0.062580,3.867688,-3.217922,5.299376,0.002000,0.273796,0.617918
787.000000,0.002000,0.074822,3.330073,-2.085317,0.163484,0.176488,-1.224515,-0.031449,-1.045420,0.654476,0.002000,0.073935,0.252695
788.000000,0.002000,0.002045,0.692840,0.069411,-2.314974,0.122283,-2.591714,-1.141876,-15.356388,-3.023493,0.002000,0.674387,0.461318
789.000000,0.002000,0.320245,-0.244418,0.403696,0.821721,0.840708,-1.067392,-10.495905,9.236899,-13.042596,0.002000,0.660949,0.123327
790.000000,0.002000,-0.029901,-0.589304,1.025412,0.363766,0.574260,2.057019,0.090448,4.230419,-7.059781,0.002000,0.804161,-0.668772
791.000000,0.002000,-1.697640,1.680780,-0.410308,1.831607,-0.986717,-0.466442,1.924889,-1.932459,0.448978,0.002000,1.667926,3.245119
792.000000,0.002000,0.461354,0.689033,-0.044652,-1.918502,0.693307,-1.418186,-7.617925,-11.091383,0.421816,0.002000,-0.776208,0.245759
793.000000,0.002000,0.214803,-0.107709,0.144963,3.677485,-0.185220,2.946950,-16.939477,4.072570,-6.914158,0.002000,0.074822,1.090435
794.000000,0.002000,-0.546620,0.423877,-0.867000,-1.226634,-1.050772,-0.727251,4.756785,-3.752640,8.121314,0.002000,0.002045,-0.209464
795.000000,0.002000,-0.310127,0.448682,0.993850,0.254636,0.697981,-3.966681,2.343523,-3.522208,-8.272370,0.002000,0.320245,-2.415950
796.000000,0.002000,-0.591858,1.628627,1.398379,0.726030,0.404434,-0.452131,0.814027,-2.387652,-1.961154,0.002000,-0.029901,-1.967195
797.000000,0.002000,-0.046359,0.162937,-0.074973,0.586399,-1.010085,-3.317221,-4.774701,-12.896088,8.142170,0.002000,-1.697640,-0.020808
798.000000,0.002000,-0.399928,0.487169,-0.098678,2.722077,1.532897,-1.269079,10.018221,-13.830621,3.171580,0.002000,0.461354,-0.619543
799.000000,0.002000,-1.447193,0.511184,-1.920817,-0.565087,1.377332,-0.076710,1.562078,-0.532652,2.096613,0.002000,0.214803,0.702069
800.000000,0.002000,-0.563807,-0.166957,0.659027,-0.962431,1.839389,0.602019,7.688536,3.522338,-9.637248,0.002000,-0.546620,-2.049925
801.000000,0.002000,0.052508,-0.204421,0.671179,-0.035956,1.243678,0.990431,-1.602786,5.012295,-14.659986,0.002000,-0.310127,0.739781
802.000000,0.002000,0.144659,0.019431,0.019716,-0.518711,3.495277,-0.763320,-12.268543,-2.562562,2.202802,0.002000,-0.591858,0.276906
803.000000,0.002000,1.014870,-0.435986,-0.517889,-2.530971,-0.254169,0.435567,-6.461117,2.926818,3.148554,0.002000,-0.046359,-1.108450
804.000000,0.002000,-0.340405,0.194584,-0.023333,1.576139,-0.707434,3.609831,16.458384,-8.419737,2.364222,0.002000,-0.399928,-0.130518
805.000000,0.002000,-0.355403,-0.307706,-0.432776,2.991457,-1.205666,1.212005,8.027688,8.256756,11.808800,0.002000,-1.447193,-2.346171
806.000000,0.002000,-1.894497,-2.429573,-4.241662,-0.039597,-0.176699,-0.528303,0.257636,0.332987,0.576565,0.002000,-0.563807,0.608263
807.000000,0.002000,0.585406,-0.426110,0.130010,0.583100,1.606270,-1.474411,-11.267796,8.852504,-2.752768,0.002000,0.052508,3.330073
808.000000,0.002000,0.006677,0.560905,-0.118335,-1.014277,-1.180238,-2.217603,-2.575376,-17.119756,2.878735,0.002000,0.144659,0.692840
809.000000,0.002000,-0.275145,-0.127011,-0.390666,-3.085501,2.241316,1.330713,8.507617,6.838244,17.448131,0.002000,1.014870,-0.244418
810.000000,0.002000,-0.145259,0.338977,0.048631,-0.870986,-1.467835,-0.634225,3.505743,-19.269158,-1.638733,0.002000,-0.340405,-0.589304
811.000000,0.002000,-0.009869,-0.163181,0.678024,-0.165841,-2.530923,-3.592334,-0.604827,4.031624,-15.238033,0.002000,-0.355403,1.680780
812.000000,0.002000,-0.636617,0.321627,0.889862,0.840475,0.616376,1.152754,5.068546,-2.323371,-7.551899,0.002000,-1.894497,0.689033
813.000000,0.002000,1.037088,0.598730,-0.789308,0.747696,0.165970,-0.359320,-4.833461,-2.573631,3.573776,0.002000,0.585406,-0.107709
814.000000,0.002000,-0.069899,-0.261781,-0.771796,0.801664,2.009946,2.649195,0.013814,5.498434,12.204375,0.002000,0.006677,0.423877
815.000000,0.002000,-0.490353,1.183078,-0.009025,-0.239509,-1.481320,0.351446,3.090983,-7.484365,-0.157894,0.002000,-0.275145,0.448682
816.000000,0.002000,-0.061566,0.385160,-0.227344,-3.495364,2.099838,-0.580643,0.637739,-16.356488,10.277480,0.002000,-0.145259,1.628627
817.000000,0.002000,0.827906,-0.548522,0.258216,-2.309350,1.317424,-1.687035,-7.791052,5.426504,-2.550632,0.002000,-0.009869,0.162937
818.000000,0.002000,-0.108876,3.008401,-1.829900,1.232292,-0.557707,-0.268336,0.050716,-1.261885,0.768989,0.002000,-0.636617,0.487169
819.000000,0.002000,-0.133804,-0.153641,0.432934,-3.471499,0.733965,1.732813,5.412671,7.467623,-17.494554,0.002000,1.037088,0.511184
820.000000,0.002000,0.241422,0.589864,1.823632,0.708625,-0.017057,0.614197,-0.464336,-1.218689,-3.818273,0.002000,-0.069899,-0.166957
821.000000,0.002000,1.142292,-1.343711,-1.058784,0.413367,1.001329,0.055002,-1.974364,2.252999,1.688032,0.002000,-0.490353,-0.204421
822.000000,0.002000,3.114743,-1.884667,0.604266,0.452190,-0.139019,-0.269711,-1.104560,0.698000,-0.224574,0.002000,-0.061566,0.019431
823.000000,0.002000,-0.034160,1.367274,1.266610,-0.314836,-0.941787,-2.329434,-0.005000,-3.056736,-2.939053,0.002000,0.827906,-0.435986
824.000000,0.002000,0.018572,-0.195503,0.092003,-0.537764,-2.023604,4.490512,-0.411993,15.031567,-4.333452,0.002000,-0.108876,0.194584
825.000000,0.002000,3.564199,-0.428799,-1.282242,-0.073509,-0.809321,-1.778554,-1.165639,0.176867,0.429006,0.002000,-0.133804,-0.307706
826.000000,0.002000,-0.195817,-0.088250,-0.282535,3.078690,-2.215279,-2.446116,6.915783,8.131540,14.931224,0.002000,0.241422,-2.429573
827.000000,0.002000,-0.943262,0.364323,-0.407147,0.981442,0.906305,0.355883,9.014172,-2.826921,4.398865,0.002000,1.142292,-0.426110
828.000000,0.002000,0.302978,0.285385,-0.333733,2.860904,-1.919051,-1.886985,-9.558476,-7.116167,10.635974,0.002000,3.114743,0.560905
829.000000,0.002000,-1.801634,-1.058131,-1.486538,0.259085,0.290074,1.739816,1.704569,1.025961,1.505204,0.002000,-0.034160,-0.127011
830.000000,0.002000,0.137600,0.836651,-0.224651,0.258409,2.557524,-1.151566,-3.432730,-12.311670,3.299305,0.002000,0.018572,0.338977
831.000000,0.002000,0.586364,-0.851387,0.324796,-0.319161,-0.545206,-2.390089,-4.963413,7.442047,-2.979469,0.002000,3.564199,-0.163181
832.000000,0.002000,-0.258739,0.717790,-0.321886,0.105153,1.171481,-0.476795,4.544753,-12.888507,5.208880,0.002000,-0.195817,0.321627
833.000000,0.002000,0.259974,0.732905,-0.388384,0.751236,0.865513,0.897712,-4.489127,-10.787792,4.919100,0.002000,-0.943262,0.598730
834.000000,0.002000,0.233578,0.487057,-0.251714,0.570774,-3.607882,0.441536,-5.560924,-13.428568,6.738723,0.002000,0.302978,-0.261781
835.000000,0.002000,1.579702,0.368333,0.368520,-1.577114,-2.130580,-1.524523,-4.767673,-1.100111,-1.192952,0.002000,-1.801634,1.183078
836.000000,0.002000,-0.974670,-2.811762,1.270984,-0.696911,-0.870086,-0.007143,0.455320,1.405816,-0.624086,0.002000,0.137600,0.385160
837.000000,0.002000,-0.858579,-0.082794,-0.054179,2.680971,0.422048,-2.115865,12.880370,2.156783,0.383760,0.002000,0.586364,-0.548522
838.000000,0.002000,0.485475,-0.193320,0.633968,-1.012348,-0.646873,1.434437,-7.283296,4.061978,-9.760250,0.002000,-0.258739,3.008401
839.000000,0.002000,0.178493,0.181529,0.048982,4.408564,1.006484,0.440988,-15.596547,-13.350624,-1.693854,0.002000,0.259974,-0.153641
840.000000,0.002000,0.206731,0.274943,-1.244305,1.064078,-0.986824,-0.974326,-1.016449,-1.222980,7.704684,0.002000,0.233578,0.589864
841.000000,0.002000,-0.579280,0.424297,0.814154,-1.281555,-0.426890,-1.797660,5.012109,-3.623013,-7.638044,0.002000,1.579702,-1.343711
842.000000,0.002000,-0.033953,0.141932,-0.100847,1.763590,2.379915,0.646102,1.398550,-6.912176,10.884185,0.002000,-0.974670,-1.884667
843.000000,0.002000,-0.336907,0.077067,-0.007679,-1.546488,-0.864802,-0.260080,16.477843,-0.933707,2.751920,0.002000,-0.858579,1.367274
844.000000,0.002000,-0.515822,-0.088782,-0.910270,0.532161,0.766465,0.080882,4.797661,1.731493,8.824119,0.002000,0.485475,-0.195503
845.000000,0.002000,-0.320194,-3.098546,-0.635349,-1.164106,0.046190,-0.841150,0.154569,1.637114,0.355768,0.002000,0.178493,-0.428799
846.000000,0.002000,0.267800,-0.095893,0.283778,1.256578,1.266795,-0.247914,-12.682283,3.446395,-12.137610,0.002000,0.206731,-0.088250
847.000000,0.002000,-2.484295,1.034785,0.273627,1.201155,-1.109825,0.408848,2.120194,-0.871637,-0.209106,0.002000,-0.579280,0.364323
848.000000,0.002000,-0.038136,-0.618277,-0.681568,-0.799199,1.552216,-0.833261,0.083576,7.405283,8.618942,0.002000,-0.033953,0.285385
849.000000,0.002000,2.177037,1.952783,-1.425263,0.820382,-0.436693,0.696671,-1.108950,-1.016021,0.788538,0.002000,-0.336907,-1.058131
850.000000,0.002000,0.460875,0.376213,0.089955,0.407823,0.904527,-0.124041,-13.055500,-10.857903,-2.663335,0.002000,-0.515822,0.836651
851.000000,0.002000,0.753391,0.524780,0.578814,0.132419,0.163215,-1.538863,-6.294796,-3.898475,-5.157938,0.002000,-0.320194,-0.851387
852.000000,0.002000,0.007718,-0.274458,-0.486196,2.597573,0.710161,-0.149588,-1.354354,10.186397,14.770822,0.002000,0.267800,0.717790
853.000000,0.002000,-0.469461,-0.273016,0.057471,-0.785787,3.010505,0.805268,15.171955,10.372290,-2.024593,0.002000,-2.484295,0.732905
854.000000,0.002000,-0.555572,-0.242980,-0.158563,0.320396,-0.717654,-2.829719,15.122783,7.727499,5.550129,0.002000,-0.038136,0.487057
855.000000,0.002000,-0.145658,-0.940436,-0.501106,-2.678923,1.178212,0.333485,0.592854,8.523334,4.375790,0.002000,2.177037,0.368333
856.000000,0.002000,-0.320288,0.316280,-0.115639,-1.228925,2.232210,2.255295,7.715847,-14.498581,9.306425,0.002000,0.460875,-2.811762
857.000000,0.002000,0.691113,0.004894,0.346582,-1.728355,-0.288126,-2.439266,-12.206402,1.610390,-7.002761,0.002000,0.753391,-0.082794
858.000000,0.002000,-0.245984,0.041677,-0.595337,0.692687,0.891613,-2.670255,4.271463,0.524153,14.031421,0.002000,0.007718,-0.193320
859.000000,0.002000,-0.537365,-0.081936,0.311821,3.945681,-3.485885,1.026830,14.577940,2.563548,-7.870394,0.002000,-0.469461,0.181529
860.000000,0.002000,-0.117490,0.410254,0.253470,-1.902887,0.974159,-2.524675,1.276415,-16.367347,-8.565569,0.002000,-0.555572,0.274943
861.000000,0.002000,2.619095,-1.012707,1.202665,-0.539776,-2.012974,0.617010,-1.561138,0.595678,-0.741212,0.002000,-0.145658,0.424297
862.000000,0.002000,0.086596,-0.122118,0.184569,1.472391,1.608035,-2.415896,-6.520724,4.824412,-13.276920,0.002000,-0.320288,0.141932
863.000000,0.002000,1.591856,0.056165,-0.441685,2.057480,-1.470313,0.071928,-4.822378,0.082693,1.198434,0.002000,0.691113,0.077067
864.000000,0.002000,-0.578223,-5.190691,-0.702510,0.360254,-0.308363,-0.488262,0.081574,0.693884,0.098329,0.002000,-0.245984,-0.088782
865.000000,0.002000,0.795360,-1.014982,-1.828708,-0.110733,-0.669186,2.051160,-1.099998,1.416348,2.574885,0.002000,-0.537365,-3.098546
866.000000,0.002000,-0.206958,-0.369046,0.064401,2.551093,2.688088,-3.172014,6.494476,17.933256,-2.282271,0.002000,-0.117490,-0.095893
867.000000,0.002000,-0.051714,-0.051101,0.120122,-5.540430,-3.433332,-1.002409,1.718973,2.401609,-5.937115,0.002000,2.619095,1.034785
868.000000,0.002000,0.501515,-0.906450,0.501998,0.003858,0.169447,-2.970786,-3.608879,6.552617,-3.598956,0.002000,0.086596,-0.618277
869.000000,0.002000,0.101633,0.102939,0.609918,-0.889763,1.163223,-2.982114,-3.397076,-2.461385,-16.253892,0.002000,1.591856,1.952783
870.000000,0.002000,0.617822,-0.119157,-0.719038,-0.955900,2.471236,1.237819,-6.836810,1.225773,8.179267,0.002000,-0.578223,0.376213
871.000000,0.002000,-0.110097,0.328474,-0.100518,0.118488,-1.461966,-2.915283,2.522532,-17.071046,1.277027,0.002000,0.795360,0.524780
872.000000,0.002000,-1.217859,-2.741123,-0.851241,0.335572,0.610316,-0.174493,0.645652,1.595789,0.434605,0.002000,-0.206958,-0.274458
873.000000,0.002000,0.697305,1.718079,2.870329,-0.105501,-0.436461,-0.788509,-0.278766,-0.739461,-1.296607,0.002000,-0.051714,-0.273016
874.000000,0.002000,-1.971715,-2.303926,-3.436708,-0.048951,0.058213,0.256227,0.392471,0.461663,0.680929,0.002000,0.501515,-0.242980
875.000000,0.002000,-0.006610,0.927052,0.474941,0.860225,3.412001,1.544990,0.167207,-9.131711,-5.103902,0.002000,0.101633,-0.940436
876.000000,0.002000,-1.239843,0.348656,0.109286,0.763425,-0.080694,0.697970,7.823599,-2.122325,-0.920009,0.002000,0.617822,0.316280
877.000000,0.002000,-0.121416,-0.282752,2.839498,0.790739,0.277662,-1.165053,0.116849,0.172687,-2.066801,0.002000,-0.110097,0.004894
878.000000,0.002000,1.432288,0.104505,0.242112,2.599146,0.113286,-0.965704,-6.261006,-0.128988,-1.191686,0.002000,-1.217859,0.041677
879.000000,0.002000,0.183054,-0.140642,-0.380191,1.216956,-0.210883,-2.753602,-9.712522,6.993719,14.853719,0.002000,0.697305,-0.081936
880.000000,0.002000,-0.724688,0.131716,-0.106265,4.581428,-0.837519,-2.108261,14.831185,-1.627958,-1.332944,0.002000,-1.971715,0.410254
881.000000,0.002000,0.010208,-0.076022,-0.068447,1.231217,3.320360,0.515876,-3.643821,6.045682,5.111233,0.002000,-0.006610,-1.012707
882.000000,0.002000,-0.013309,-1.275296,0.072062,1.175449,2.363729,2.448153,-0.087885,7.523140,-0.766396,0.002000,-1.239843,-0.122118
883.000000,0.002000,-0.440703,0.275722,0.477509,2.710582,-1.538824,-0.342614,9.259331,-5.150219,-10.554971,0.002000,-0.121416,0.056165
884.000000,0.002000,-0.268840,0.233923,-0.531594,1.541500,-0.810829,1.560657,4.452456,-4.831185,14.649502,0.002000,1.432288,-5.190691
885.000000,0.002000,-1.739390,-0.895861,-1.098515,1.995456,0.757636,0.125962,2.425479,1.296517,1.618898,0.002000,0.183054,-1.014982
886.000000,0.002000,-0.309390,1.181279,0.390880,1.612930,-0.102137,0.202141,2.048936,-7.223596,-2.685970,0.002000,-0.724688,-0.369046
887.000000,0.002000,0.355648,0.373595,-0.291340,-0.084276,1.700467,-1.956267,-10.986961,-10.902782,5.040762,0.002000,0.010208,-0.051101
888.000000,0.002000,-1.015301,-0.229154,0.411982,3.012819,2.501465,-1.194500,8.207349,2.286680,-3.586885,0.002000,-0.013309,-0.906450
889.000000,0.002000,-0.088273,-0.027401,0.139558,-0.061476,1.458250,-0.188786,3.577383,0.367956,-7.018383,0.002000,-0.440703,0.102939
890.000000,0.002000,3.543676,1.430423,2.270771,-0.257150,0.323202,0.612875,-0.779116,-0.297763,-0.501407,0.002000,-0.268840,-0.119157
