# 
#                 columns are tag, mass, x, y, z, vx, vy, vz, ax, ay, az
#                 Time=0.200000
# 
1.000000,0.002000,1.774292,0.448136,1.042362,-0.265204,0.174281,0.116680,-2.960139,-0.696597,-2.467970
2.000000,0.002000,2.238834,1.973495,-0.984106,-0.152970,0.405593,0.030722,-1.403054,-1.248091,0.638505
3.000000,0.002000,0.709270,-0.295919,-0.259104,-1.538159,-0.702711,-0.681745,-3.120434,0.808904,0.737547
4.000000,0.002000,0.382477,-0.164241,0.990746,-0.306992,-1.471678,-2.737985,-1.645458,0.762801,-4.288985
5.000000,0.002000,0.781036,0.245133,0.317794,-0.294937,0.497169,-0.801359,-4.217650,-1.389875,-1.631921
6.000000,0.002000,0.197768,1.394276,-0.058803,-0.736591,-0.950257,0.777917,-0.448616,-4.758783,0.301273
7.000000,0.002000,0.048184,-0.687339,-2.480000,-1.340641,0.906099,0.625955,-0.083066,0.746289,2.707425
8.000000,0.002000,0.692494,0.990249,-0.675970,0.049652,0.297908,0.627076,-2.744685,-3.513321,3.513047
9.000000,0.002000,2.561440,-1.335436,0.185217,1.257725,0.712639,0.678882,-1.950856,1.075661,-0.237730
10.000000,0.002000,-0.604382,1.671663,1.702368,-2.023603,0.476985,0.943636,0.732624,-2.048595,-2.087717
11.000000,0.002000,-0.150454,0.407204,-0.562187,-1.504286,-0.061887,1.968936,0.716920,-2.263887,3.194458
12.000000,0.002000,-1.927372,-0.625594,-0.289100,0.619865,-1.279124,-2.215980,3.368919,1.271579,0.299718
13.000000,0.002000,0.971041,1.141021,-0.278740,-1.582915,-0.613336,0.630681,-3.009875,-3.274788,0.854182
14.000000,0.002000,-0.297502,-0.584608,-1.604719,0.114677,2.501183,-0.527518,0.483683,0.822617,4.244072
15.000000,0.002000,-1.738522,1.943771,-0.702159,0.005736,-0.217880,-0.899352,1.650561,-1.814191,0.671519
16.000000,0.002000,-0.294229,-1.246977,0.610780,0.843209,0.389125,-1.037195,1.556568,3.752249,-2.195105
17.000000,0.002000,-1.691540,-0.088817,-0.843765,-0.045270,0.633780,0.461059,3.406740,0.118571,2.035831
18.000000,0.002000,0.291638,-0.423969,-1.577453,-0.591618,0.527722,-1.553986,-0.794518,0.745923,4.242545
19.000000,0.002000,0.348953,0.655640,0.003171,1.728008,0.870692,-0.296701,-1.596274,-3.139869,0.297165
20.000000,0.002000,0.200474,-0.573157,-0.251239,-0.633255,0.577144,0.725258,-0.541338,3.367961,1.674629
21.000000,0.002000,-0.903764,-0.479489,-0.942354,-0.875285,-0.433275,-0.324880,3.037302,1.330620,3.172147
22.000000,0.002000,-1.672179,0.107297,-0.798993,0.627100,-0.389014,-1.818609,3.555587,-0.308325,2.117568
23.000000,0.002000,-1.667206,0.317188,-0.961820,0.128595,-0.799948,-0.064832,3.431712,-0.651065,2.194582
24.000000,0.002000,0.239558,0.629259,0.403107,0.902763,-0.866879,1.187853,-0.801377,-3.675038,-1.952777
25.000000,0.002000,1.215223,-1.236255,0.240763,0.112746,0.286210,-0.855581,-2.635476,2.909986,-0.231001
26.000000,0.002000,-0.564502,-0.781784,-0.534324,0.869331,0.756366,0.466145,2.781323,3.799918,3.310069
27.000000,0.002000,0.162688,0.168707,-0.973735,2.357838,0.485260,1.387095,-0.739486,-0.390794,4.907911
28.000000,0.002000,0.905998,0.280645,-1.580902,-0.138488,-1.006707,0.127283,-2.147502,-0.405412,3.521181
29.000000,0.002000,1.539284,2.045108,1.205345,0.127064,0.569958,0.026464,-1.252982,-1.736354,-1.048143
30.000000,0.002000,0.022411,-0.901504,1.051092,1.015844,1.142596,-0.361000,0.101598,3.109734,-3.799323
31.000000,0.002000,-0.382264,0.968442,0.276221,0.262551,-1.680855,0.255244,1.605650,-4.125887,-0.736803
32.000000,0.002000,1.020186,0.357560,0.611024,-0.159677,-0.059123,-0.718799,-3.977145,-0.712112,-2.328855
33.000000,0.002000,0.238098,1.492635,-0.081338,1.099055,-2.017295,-1.023028,-1.543330,-4.998133,0.476885
34.000000,0.002000,0.608430,1.672357,-0.972564,0.931570,-1.347570,2.051784,-1.070973,-2.973538,1.690787
35.000000,0.002000,-1.194494,0.945916,-0.834773,0.628296,-0.321446,1.916410,2.565504,-2.101980,2.052565
36.000000,0.002000,2.013760,-0.388937,-0.303127,0.003647,0.193587,2.288952,-3.607120,0.766335,0.494256
37.000000,0.002000,1.818957,1.676783,1.903021,-0.637911,0.878036,0.051212,-1.131174,-1.064918,-1.247446
38.000000,0.002000,1.179694,-0.701520,1.960212,1.227254,0.888610,0.002116,-1.492772,0.886709,-2.395948
39.000000,0.002000,-0.406597,1.152886,1.283679,-0.652250,1.439214,1.344234,0.921912,-3.113984,-3.164900
40.000000,0.002000,-0.242876,0.486789,0.867290,-0.354132,-0.853041,-0.655409,0.978477,-2.505320,-4.067765
41.000000,0.002000,0.487709,-0.792741,0.457373,0.380656,1.905410,0.568982,-2.403104,3.967942,-3.222050
42.000000,0.002000,1.178520,-0.581392,-0.259174,-1.151116,0.761490,-0.489951,-4.140378,1.953846,0.904648
43.000000,0.002000,-0.308275,1.529014,0.827729,0.720359,-1.964243,0.610782,0.903787,-3.836341,-1.999423
44.000000,0.002000,0.453246,-0.638261,0.652588,0.015266,0.916696,0.232284,-2.745558,2.578735,-3.572585
45.000000,0.002000,-0.437128,0.289636,-0.533489,1.462864,1.103530,0.834502,2.502942,-3.145558,3.244484
46.000000,0.002000,1.042404,0.317763,-0.279369,1.457450,-1.495378,-0.254442,-3.789165,-1.684531,1.033471
47.000000,0.002000,0.220579,-1.146396,-1.137204,-0.913194,0.043513,2.099968,-0.004432,3.408423,3.144351
48.000000,0.002000,0.194442,0.094465,0.430648,-1.378857,-0.362622,-1.338130,-1.166038,0.220761,-3.203039
49.000000,0.002000,2.227464,0.867138,-0.396660,-1.037707,-0.488602,2.658346,-2.843280,-1.016368,0.595114
50.000000,0.002000,1.413085,-1.180014,-0.556445,1.192684,0.943495,-0.379380,-2.968264,2.511575,0.944832
51.000000,0.002000,-0.346943,1.650936,-0.450969,-1.346337,-0.687005,1.585859,0.697642,-3.691540,0.906573
52.000000,0.002000,-0.944125,-0.326883,-0.426652,-0.300858,-1.014868,1.397655,4.023427,1.391148,1.460474
53.000000,0.002000,0.964904,-1.235351,-1.228991,-0.999892,-0.522390,-0.178609,-1.528257,2.339358,2.170106
54.000000,0.002000,-0.352938,-0.397646,1.824546,0.495057,0.581298,-0.881053,0.716240,0.803347,-3.750948
55.000000,0.002000,0.776591,0.522313,-1.022149,-1.076471,2.055577,1.340361,-2.134997,-1.920675,4.207185
56.000000,0.002000,0.703384,-1.127906,-1.532966,-0.853592,-0.404205,0.357787,-1.423422,2.102519,2.946828
57.000000,0.002000,0.930299,0.382120,0.663528,-1.604162,0.207624,-1.603279,-2.933364,-1.283926,-2.939034
58.000000,0.002000,0.445723,0.809189,-0.633068,0.470164,-0.548589,0.349137,-1.770540,-3.359044,2.790165
59.000000,0.002000,-1.031534,0.852766,-0.812546,0.255860,0.629783,0.181326,2.496237,-2.265667,2.443812
60.000000,0.002000,-0.455448,-0.585234,0.130027,1.450770,-0.369702,0.523305,2.462468,2.746495,-0.146825
61.000000,0.002000,-0.555159,-1.181213,-0.762513,-0.840216,1.339836,-0.378042,1.807361,3.771448,2.453740
62.000000,0.002000,-2.185533,0.797586,-1.575766,0.374441,0.801416,0.264646,1.842024,-0.650287,1.357206
63.000000,0.002000,-1.107037,0.005204,-0.742428,0.321770,-0.247277,0.150483,4.285536,-1.008842,2.052176
64.000000,0.002000,1.605851,-1.189340,-0.135446,0.036673,0.748528,-2.006653,-2.908889,2.300301,0.307759
65.000000,0.002000,-0.143451,-1.296582,0.217607,-0.533884,-0.166232,-1.634622,0.329768,4.855351,-0.270959
66.000000,0.002000,-0.321346,1.070790,1.071303,-0.642449,1.171217,0.991508,1.101804,-3.392688,-2.848084
67.000000,0.002000,2.343948,0.596317,-0.546733,0.634970,-3.793957,-0.825566,-2.805650,-0.719929,0.690365
68.000000,0.002000,-0.345605,0.627842,0.520564,-0.384644,-2.685911,-0.949584,1.780420,-3.597442,-2.593163
69.000000,0.002000,0.212777,-1.324366,0.248694,-2.259112,1.896485,1.307195,-0.878276,4.285475,-0.376598
70.000000,0.002000,-0.831301,0.204662,0.086644,-0.072478,-0.473554,0.929287,4.437773,-0.615138,0.018748
71.000000,0.002000,0.929518,0.115213,0.825752,-0.255138,-1.057360,-0.183795,-3.640984,-0.631394,-4.652657
72.000000,0.002000,-0.488141,-0.917322,-0.337910,0.211986,0.586499,0.500169,2.307477,3.710524,1.729333
73.000000,0.002000,-0.006328,0.509434,1.716974,0.053470,0.551894,-3.091723,-0.198871,-1.232742,-4.148502
74.000000,0.002000,-0.068344,-0.930857,-0.653170,-0.128402,0.501824,-1.322133,0.292813,3.856613,3.544686
75.000000,0.002000,-0.893810,0.651912,-1.651621,-1.990243,0.721712,-0.239867,1.769899,-1.399875,2.918471
76.000000,0.002000,0.167038,0.427933,0.045161,0.436138,1.173025,-0.988573,-1.266231,-2.676012,-0.060802
77.000000,0.002000,-0.476302,-0.146460,-1.129163,0.798537,0.511116,1.864051,2.085682,0.663361,4.098889
78.000000,0.002000,-0.297216,-0.316159,0.029629,1.165679,1.333554,-2.035195,1.749336,1.716204,-0.912954
79.000000,0.002000,-1.455216,0.972581,2.028887,-1.325453,0.845395,2.458703,1.496097,-0.874623,-1.921197
80.000000,0.002000,-2.125808,0.199059,0.441583,0.074272,-1.207083,-1.250958,3.578474,-0.518344,-0.508951
81.000000,0.002000,-0.316679,-0.381310,-0.044012,1.891376,0.296275,0.369388,2.423316,4.435563,3.738327
82.000000,0.002000,-0.329475,-0.633045,-1.619747,-0.074366,-1.507185,0.712806,1.100761,1.804685,4.467822
83.000000,0.002000,1.376411,0.861415,-0.884232,0.835241,-1.277498,-0.171708,-3.090224,-1.914051,1.959612
84.000000,0.002000,-1.953571,0.694378,-0.545926,-2.098999,0.742006,0.251528,3.239116,-1.189349,0.893296
85.000000,0.002000,0.138294,-0.249070,0.719747,-0.175295,0.614989,-0.202127,-0.571412,2.061024,-4.517785
86.000000,0.002000,0.649494,-0.737180,-1.571789,-0.389916,0.104299,-0.582320,-1.518119,1.482718,3.703361
87.000000,0.002000,-1.127195,0.722817,-1.434828,2.492019,0.431565,-0.970582,2.040659,-1.568762,2.719963
88.000000,0.002000,-0.553026,-0.367719,-0.191687,0.109473,1.405643,-0.648650,3.661314,2.949561,1.049105
89.000000,0.002000,-1.512764,0.330054,0.720625,2.473307,0.659156,0.833177,3.673746,-0.987424,-1.901682
90.000000,0.002000,-0.111245,-0.348716,-0.253797,-1.020488,-0.085257,-1.646490,0.590278,1.728716,1.486775
91.000000,0.002000,0.321600,-2.669274,1.863383,-0.407635,0.660048,-0.564383,-0.198786,1.483331,-1.051922
92.000000,0.002000,0.564029,-0.410937,-0.168165,0.657161,1.430242,1.243032,-2.405054,1.429791,0.754340
93.000000,0.002000,0.564396,-0.466611,-1.737005,0.229263,-1.693421,1.841892,-1.472979,1.080432,3.984335
94.000000,0.002000,1.917300,-0.145737,1.132593,-1.020581,-0.160356,0.398020,-2.920131,0.209682,-1.674710
95.000000,0.002000,-0.688094,1.484635,0.185591,0.187874,-0.647407,-0.575546,1.648258,-3.990582,-0.553630
96.000000,0.002000,0.933139,-0.910894,0.921605,1.402974,0.910029,-1.721494,-2.510232,2.427732,-2.391020
97.000000,0.002000,0.680579,1.284815,-1.164211,-0.212561,-0.415431,-2.437866,-1.321440,-2.896442,2.502263
98.000000,0.002000,-0.417920,2.206936,-0.748707,0.365311,-0.756036,1.661858,0.510074,-2.905497,0.961303
99.000000,0.002000,0.030713,1.182266,0.055246,0.879430,-0.273915,-0.258812,0.513450,-5.156309,-0.236355
100.000000,0.002000,0.308855,-0.206055,0.238757,-1.586226,1.065677,-0.824689,-1.721385,1.244738,-1.893604
101.000000,0.002000,-1.377957,1.396786,-0.328054,-0.098663,-1.565552,-0.987027,2.636408,-2.598441,0.709382
102.000000,0.002000,-0.615156,0.621375,-0.305529,0.566898,-0.452309,1.035456,2.490537,-2.610660,2.668960
103.000000,0.002000,-1.361681,-1.247166,0.467005,0.135118,0.767306,-1.225454,2.995144,2.703916,-1.196816
104.000000,0.002000,-0.203002,0.026501,0.860403,-0.144182,0.828798,-1.554510,-2.199805,1.626328,-6.760803
105.000000,0.002000,-1.024227,-0.663089,-0.316902,0.824004,0.668005,0.496261,3.893435,2.524948,1.337349
106.000000,0.002000,0.058529,-0.052784,0.381307,-0.367777,0.031549,3.221930,-0.628028,0.903514,-2.926083
107.000000,0.002000,0.090555,-0.242372,-0.798849,0.834529,-0.521424,-0.137105,1.270573,-0.939259,0.224405
108.000000,0.002000,-0.627814,0.413471,-0.790207,1.199298,0.525517,0.846274,2.867630,-1.931177,3.468994
109.000000,0.002000,-1.042314,-0.182864,-0.334220,0.954994,0.752915,-0.791113,4.012951,0.985305,1.406989
110.000000,0.002000,2.126141,-0.526721,1.388068,-0.886717,0.963431,2.088934,-2.257941,0.704864,-1.438574
111.000000,0.002000,0.709789,-1.104244,0.834023,-0.380339,0.733890,0.117720,-2.111946,2.909564,-2.139813
112.000000,0.002000,-1.205028,-2.343726,0.786625,-0.008373,1.783386,0.837514,1.033814,2.117634,-0.743408
113.000000,0.002000,-1.748322,0.051734,-0.665524,0.430479,-2.057379,0.242269,3.747959,-0.095056,1.391093
114.000000,0.002000,1.843315,1.131455,-0.029231,0.631587,0.136157,2.165462,-3.070807,-1.559087,0.265056
115.000000,0.002000,-0.848351,-1.391915,-0.741183,-0.587930,-0.589118,-1.345085,2.107445,3.158442,1.891115
116.000000,0.002000,-0.612496,-0.769478,0.421418,-1.429441,-1.684870,1.123702,2.758006,3.837152,-1.984138
117.000000,0.002000,0.639658,0.348995,-0.756437,0.099355,-0.164225,0.371512,-2.077253,-1.529778,3.528819
118.000000,0.002000,-1.330686,1.365519,-0.834383,0.772377,-0.222193,-0.591674,2.524399,-1.832496,1.255670
119.000000,0.002000,-0.489358,-0.450460,-1.858232,0.913877,0.438892,0.281253,0.954911,0.831842,3.675088
120.000000,0.002000,-0.679506,-0.424820,0.407302,-0.667332,0.396628,-1.286830,4.361736,1.648828,-1.566469
121.000000,0.002000,0.670276,-0.065465,0.909811,-0.360128,-0.309946,-0.492421,-2.022390,-0.257784,-3.972512
122.000000,0.002000,0.151739,0.238258,-0.030938,-1.125164,1.215184,-0.957070,-1.301453,-1.433800,0.856978
123.000000,0.002000,0.033851,-0.317468,0.018293,1.116032,0.474330,1.477149,0.334356,1.258520,-0.971518
124.000000,0.002000,-1.254821,0.378371,-0.813923,-0.313463,0.385896,1.161860,3.400730,-1.189763,2.574659
125.000000,0.002000,0.865640,-0.477279,-0.158036,-0.260558,-0.914802,-1.066599,-3.902240,2.631950,0.312687
126.000000,0.002000,0.397936,0.549563,-1.481602,-0.552169,-0.615655,0.813753,-0.822584,-1.470733,3.967462
127.000000,0.002000,-0.339988,0.413215,-1.678132,-0.611303,-2.467482,0.467427,0.697951,-1.322310,3.793332
128.000000,0.002000,0.483238,-2.078699,-1.569845,0.430966,1.110038,-2.589913,-0.501831,2.077369,1.572657
129.000000,0.002000,0.042320,-1.574243,-0.836385,0.011547,0.760306,0.939148,-0.230261,3.786404,1.850095
130.000000,0.002000,-1.595141,1.388502,0.591312,-0.370511,-1.528063,2.064672,2.569687,-2.347659,-1.037306
131.000000,0.002000,0.668837,0.122163,-0.138694,0.185718,1.671526,1.199489,-3.578385,-0.862115,0.544122
132.000000,0.002000,-1.801970,-0.543553,-0.786083,-0.625861,-1.158849,0.025248,3.234201,0.894416,0.852536
133.000000,0.002000,0.712110,1.335364,1.357410,-0.866588,0.754968,-0.777958,-1.327171,-2.325083,-2.381211
134.000000,0.002000,0.641456,-0.135589,-1.053213,-1.294758,2.392348,0.700461,-2.378990,0.589072,4.289409
135.000000,0.002000,0.485456,0.480972,-1.560949,-1.511793,0.510742,1.403178,-1.026059,-1.236564,3.795896
136.000000,0.002000,0.121930,0.788374,0.320380,-1.288903,-0.497705,1.111962,0.074226,-4.242355,-2.892893
137.000000,0.002000,-0.001471,-0.785926,-1.441965,0.930550,0.319036,0.403450,-0.043658,2.079444,3.947708
138.000000,0.002000,0.478583,-0.275899,-0.711694,-1.851629,0.270587,-2.163485,-2.137538,1.307876,3.479936
139.000000,0.002000,1.766650,0.433672,0.393819,-0.195554,-1.330851,0.042352,-3.734082,-0.337892,-0.986842
140.000000,0.002000,0.600592,1.276089,1.486574,2.211995,-1.429732,-1.424186,-1.022926,-2.160246,-2.579977
141.000000,0.002000,1.153546,0.600074,-1.987383,0.947770,0.009952,0.789965,-1.492449,-0.643351,2.565844
142.000000,0.002000,-0.065995,0.154481,0.153909,-0.933661,1.356812,0.163287,0.659732,-1.316326,-1.825783
143.000000,0.002000,0.882504,-2.702802,-0.460266,-0.378739,0.393644,0.582992,-0.772082,2.134569,0.369084
144.000000,0.002000,0.103272,-0.517695,-1.480242,-0.869931,-0.141868,0.086390,-0.291382,1.406797,4.272051
145.000000,0.002000,0.918828,0.242166,-0.708420,-0.111707,-0.254403,1.599320,-3.760186,-1.085125,2.549354
146.000000,0.002000,0.207247,0.812653,0.220367,-0.641809,-0.524257,1.015737,-1.206745,-4.581298,-0.970395
147.000000,0.002000,0.764109,0.081746,-0.329063,-0.497827,-0.059815,0.509119,-3.161574,-0.880604,1.977707
148.000000,0.002000,-0.928129,0.206778,0.350599,1.546848,1.456439,0.601247,3.988989,-0.811507,-1.936026
149.000000,0.002000,0.759538,-0.499808,0.336868,-0.943051,-1.720543,-0.830917,-3.616575,2.176259,-2.704301
150.000000,0.002000,-0.950076,-0.723949,0.016106,0.402721,0.579314,0.655555,2.996221,3.211009,-0.315681
151.000000,0.002000,-1.269788,0.532867,-0.002866,-0.667786,-1.642948,-2.376174,4.514740,-1.980319,0.362226
152.000000,0.002000,0.305374,0.528240,2.285335,0.097029,0.870377,1.003487,-0.363066,-0.735938,-2.966544
153.000000,0.002000,-0.350858,-2.173163,0.553901,0.652480,0.457385,1.711695,0.625576,3.154638,-0.695238
154.000000,0.002000,-0.328503,-0.672341,-1.013764,-1.315088,-0.518253,0.174344,1.464808,2.408055,3.509163
155.000000,0.002000,-0.346352,-0.162914,-0.382297,0.632784,-1.727297,0.817143,1.974873,0.518353,2.178702
156.000000,0.002000,2.179929,-0.704161,-1.112397,-1.398104,1.363311,-1.494862,-2.437265,0.743927,1.204385
157.000000,0.002000,-2.417020,0.080922,-1.496887,-0.456523,-0.862191,2.727524,2.004954,-0.086520,1.254750
158.000000,0.002000,-0.434097,-0.534484,-0.513994,0.748618,-1.096260,1.285323,2.334764,2.547958,2.630080
159.000000,0.002000,2.147606,1.104245,1.481987,1.849625,0.447412,0.672933,-1.794184,-0.919439,-1.271837
160.000000,0.002000,-1.001101,0.943024,0.669727,-0.334364,-1.210418,0.700531,2.649944,-2.695884,-1.807987
161.000000,0.002000,1.091199,0.823031,-0.978079,1.340664,-1.250388,-0.106649,-2.657838,-1.820832,2.226088
162.000000,0.002000,-0.218857,0.499154,-2.495510,1.037267,-1.892763,1.055741,0.032230,-0.567901,2.703688
163.000000,0.002000,1.242679,0.732753,0.005758,-1.761018,0.675154,0.267373,-3.990238,-2.396141,0.190462
164.000000,0.002000,-0.003213,-1.090885,-0.397501,-1.200780,0.170489,-0.097537,-0.361788,5.045383,1.536201
165.000000,0.002000,1.287276,1.638603,2.716130,0.870411,1.623316,-0.042130,-0.635288,-0.802261,-1.327536
166.000000,0.002000,-0.063561,-0.443857,-0.379324,0.126144,1.324926,0.876964,0.253076,2.469819,2.033584
167.000000,0.002000,-1.488549,0.000538,0.116501,-1.899487,0.443887,-1.416686,4.537154,0.041089,-0.433945
168.000000,0.002000,-0.170151,0.683163,-0.641679,-0.600485,-2.405672,-1.777300,1.086210,-3.061771,3.159129
169.000000,0.002000,-0.641663,-0.983052,-1.429731,-1.328559,-1.818336,1.352016,1.484217,2.533761,2.687673
170.000000,0.002000,-1.574415,-1.406831,1.586503,0.196795,-0.999408,1.259309,1.090111,1.974507,-2.880071
171.000000,0.002000,0.851548,1.403191,-1.596417,-0.343138,-0.064699,-1.089235,-1.164591,-1.989515,2.304931
172.000000,0.002000,-1.451358,-0.648392,-0.021236,2.958686,0.199627,-0.968504,4.009124,1.582674,0.543456
173.000000,0.002000,0.361440,1.085395,0.007758,-0.850573,-0.234547,-1.392320,-1.457852,-4.861383,0.737106
174.000000,0.002000,1.535920,-0.261410,-1.050956,-1.360618,-0.143483,-0.484175,-3.358611,0.454345,2.459673
175.000000,0.002000,-1.685229,-0.698764,0.285020,0.329180,1.078568,0.158269,4.114753,1.250599,-0.450090
176.000000,0.002000,-0.565702,1.055770,1.478337,1.749934,0.363479,0.022177,1.202714,-2.328369,-3.299310
177.000000,0.002000,-2.195719,0.655206,-2.146883,1.000250,-1.087332,0.594419,1.373146,-0.405774,1.386258
178.000000,0.002000,0.903564,0.932599,0.081717,2.238898,-1.856598,0.028590,-3.525126,-3.857902,-1.112690
179.000000,0.002000,-1.138778,-0.679180,-0.171578,1.117801,-0.256230,0.506639,4.894176,2.773398,0.520011
180.000000,0.002000,-0.315048,-0.374860,-0.029431,-0.535856,-0.682342,0.391990,1.516589,0.657260,-4.770355
181.000000,0.002000,0.374263,-1.481195,-0.173442,0.693840,-0.946772,0.385655,-1.538144,4.265000,-0.328199
182.000000,0.002000,1.264517,-0.008668,-0.229261,-1.679281,1.924274,1.180891,-4.597178,0.161314,1.004493
183.000000,0.002000,1.003663,-2.389680,1.172608,-0.448186,1.039781,-0.140723,-0.812725,1.967095,-0.996822
184.000000,0.002000,-0.474237,-0.098480,0.123886,1.042595,-1.304147,0.009712,1.715537,0.353551,-2.695433
185.000000,0.002000,0.586217,-0.473461,-0.422273,-2.175130,-0.849480,1.477407,-3.561081,3.541129,0.247629
186.000000,0.002000,1.466632,-1.957460,-0.389029,0.685742,2.262071,-2.021246,-1.717950,2.289596,0.434168
187.000000,0.002000,-1.443435,-0.783571,1.784576,-0.309857,-0.010493,-1.357584,1.788789,1.007933,-2.278338
188.000000,0.002000,-0.308890,0.144382,-1.820291,-1.286687,-0.278663,0.223840,0.936452,-0.214862,4.101542
189.000000,0.002000,-0.851432,0.329934,0.188982,-0.255443,0.521547,-1.014769,4.777400,-2.318174,-1.670043
190.000000,0.002000,0.573721,0.088814,0.586472,-0.428965,0.338666,0.118960,-2.352833,0.126605,0.737301
191.000000,0.002000,0.308934,-1.712782,0.057626,-0.812935,0.996997,0.083556,-0.873580,4.333263,-0.249523
192.000000,0.002000,0.829994,0.582619,-0.401371,-0.009143,-0.282002,-0.040311,-3.376383,-2.539411,1.472855
193.000000,0.002000,-0.763656,-1.000099,0.239667,0.471410,0.892415,1.792549,2.804899,3.790595,-1.296784
194.000000,0.002000,1.019580,-1.973854,-0.811223,-0.714398,0.150878,-0.668374,-1.275065,2.703846,0.946902
195.000000,0.002000,-0.865953,0.427692,-0.252673,1.739969,-2.003813,1.714153,4.160372,-1.997226,2.400416
196.000000,0.002000,-0.704393,-0.226166,0.443739,-0.861843,0.102577,-0.209312,3.645094,1.655834,-2.121134
197.000000,0.002000,-0.398353,-3.207482,0.649366,-0.009057,-0.622787,0.493142,0.205244,1.778264,-0.372439
198.000000,0.002000,0.252648,0.202936,-0.801754,-1.096308,2.061427,1.829874,-1.977301,-1.145552,5.243020
199.000000,0.002000,0.277475,-0.150547,-0.451504,-0.533972,-2.680389,0.335408,-1.760889,0.178185,2.119751
200.000000,0.002000,-0.318939,-1.265639,-0.467400,-0.428967,-1.217970,-1.308644,1.156630,4.492492,1.420416
201.000000,0.002000,-1.885481,0.331471,-0.696980,-1.335089,-0.498735,1.378026,3.499062,-0.653223,1.307781
202.000000,0.002000,0.103276,-1.360230,-0.271631,-0.722788,0.660682,1.689184,-0.476016,4.620959,0.717762
203.000000,0.002000,-0.144868,-1.511045,-0.139711,-0.129809,1.156525,-1.273045,0.373751,4.564449,0.224623
204.000000,0.002000,-0.460320,-1.802059,-1.393854,-0.330904,-0.049915,-0.260217,0.738495,2.484113,1.891926
205.000000,0.002000,0.559029,0.552429,0.190980,-0.548386,-2.003371,1.593746,-3.438410,-2.733815,-1.444880
206.000000,0.002000,0.544918,0.357380,0.118597,0.382656,0.489297,-1.124337,-3.959021,-2.196523,-0.414312
207.000000,0.002000,1.367131,-1.368780,0.436919,0.151747,0.949446,-1.296023,-2.619628,2.654111,-0.865969
208.000000,0.002000,-0.024875,-0.237550,0.116396,1.917504,0.131005,2.074059,-0.046308,2.090274,-1.648409
209.000000,0.002000,-0.167809,-1.296770,0.276660,1.164435,0.102471,0.355612,1.228567,5.064427,-1.152825
210.000000,0.002000,1.775343,0.086813,0.012512,0.051360,0.743764,0.108429,-4.428084,-0.176663,-0.226987
211.000000,0.002000,-0.592099,-0.253475,0.565394,0.834095,-0.600519,0.169593,3.170723,1.462803,-3.254876
212.000000,0.002000,-0.559385,-0.455197,0.438653,-0.660328,0.205910,-0.117150,3.072281,2.174884,-2.464588
213.000000,0.002000,-0.740542,0.098148,0.461982,1.269497,-0.849981,-2.017023,4.084171,-0.921645,-2.114914
214.000000,0.002000,0.911691,-0.403957,1.308000,-2.481580,-1.474344,-0.607488,-2.441434,1.006646,-3.595754
215.000000,0.002000,0.886424,-0.491689,-1.076001,-0.965218,2.704969,1.054290,-2.824930,1.727199,4.023774
216.000000,0.002000,-0.351412,0.661479,-0.145839,-0.075304,-2.223688,-0.306049,1.426291,-3.197625,0.805236
217.000000,0.002000,-0.559725,1.332891,0.592092,0.356331,-1.538572,1.382900,1.383953,-4.703156,-2.356660
218.000000,0.002000,-2.527162,0.116903,0.333185,-0.748614,-1.025920,-0.990036,2.801976,-0.171389,-0.445032
219.000000,0.002000,-0.175613,0.546571,-0.030631,-1.965340,0.197661,0.265195,1.112494,-2.720388,0.208942
220.000000,0.002000,-1.507380,-0.292954,-0.837406,-0.648066,0.454139,0.726718,2.983973,0.123769,1.865733
221.000000,0.002000,-0.888587,-1.296297,0.605399,0.475653,0.159605,0.645524,3.232057,3.338489,-1.114973
222.000000,0.002000,-0.257739,-0.676434,-0.618434,-1.696377,-0.899007,0.479559,1.223204,1.943639,2.758871
223.000000,0.002000,0.017472,1.045380,-1.905823,0.224692,-0.338430,0.783805,0.140313,-1.703887,3.327921
224.000000,0.002000,0.360158,-0.268931,-1.840212,-0.150584,1.430811,0.617860,-0.849798,0.405430,3.977215
225.000000,0.002000,-1.568752,-0.767813,0.005149,2.246448,0.892061,-1.051263,3.850129,1.767214,0.381057
226.000000,0.002000,0.555278,-1.360097,0.624038,0.667550,-1.786972,-2.167814,-1.423835,3.679135,-1.641997
227.000000,0.002000,1.270709,0.243142,-0.644548,-1.223703,-0.845270,-0.013506,-3.838865,-0.027435,3.383583
228.000000,0.002000,1.042921,1.157194,0.694701,-0.663871,1.754654,-1.058308,-2.387178,-2.877079,-1.793165
229.000000,0.002000,-0.789835,-2.756678,2.113526,-0.636119,0.509701,-0.108836,0.328648,1.207214,-0.934854
230.000000,0.002000,-1.632051,0.055523,2.019774,0.050920,0.454862,-2.019708,1.758616,-0.015731,-2.211831
231.000000,0.002000,0.906535,1.136160,-1.402539,2.728844,0.740146,0.822394,-1.615175,-1.893499,2.928275
232.000000,0.002000,-1.679437,-0.629880,1.097342,0.780853,-0.355233,-0.151368,2.718538,1.357744,-1.796166
233.000000,0.002000,-0.367199,-0.975088,-0.252246,0.021598,-0.509530,-2.245262,1.316872,3.718538,1.124647
234.000000,0.002000,1.019687,-1.274042,-1.257113,-0.494836,1.112873,-0.023231,-1.955769,2.588385,2.151590
235.000000,0.002000,-1.267543,0.991348,0.402719,-2.075811,-0.799864,0.747530,3.264304,-2.437026,-0.931946
236.000000,0.002000,1.875622,0.678678,0.025537,-1.610235,-1.411902,0.297036,-3.589271,-1.232691,-0.046908
237.000000,0.002000,1.214109,0.184176,-0.637288,-0.699908,-0.169231,0.597367,-4.288445,-0.013437,2.254473
238.000000,0.002000,0.946773,-0.722141,-0.179950,0.976554,0.187508,0.592480,-3.888305,2.751508,0.412391
239.000000,0.002000,1.276759,0.065522,-0.849339,-0.651333,0.793439,0.023770,-3.958474,-0.505733,2.637339
240.000000,0.002000,-0.164566,1.340014,-0.813852,1.570366,1.190807,-1.103474,-0.085437,-4.196692,2.585180
241.000000,0.002000,-0.325828,-0.278528,0.198347,0.443524,1.311850,-0.052152,1.889459,1.828379,-1.953482
242.000000,0.002000,-0.494421,-1.473484,-0.813321,-0.439402,0.976996,0.561417,1.080095,3.462990,1.976806
243.000000,0.002000,-0.857605,1.126269,0.691715,0.617781,-0.880717,-0.799570,2.361290,-2.870271,-2.141222
244.000000,0.002000,0.428729,-0.716675,-0.668983,-1.018906,-0.783228,1.029763,-2.126896,2.638118,2.585379
245.000000,0.002000,-0.631383,-1.209682,2.456773,-0.573418,-0.686380,-0.417447,0.485344,1.046321,-2.123501
246.000000,0.002000,-2.466385,0.260022,-1.019180,-0.869206,-1.556518,1.435915,2.414053,-0.273151,0.998526
247.000000,0.002000,-0.267016,-1.143225,-0.606891,-0.730778,-0.376268,3.130012,0.880075,4.416482,1.983752
248.000000,0.002000,-1.375120,1.515404,-0.111564,-0.963339,-1.501400,0.157394,3.097890,-2.886892,0.868008
249.000000,0.002000,-0.883512,0.126166,-0.257994,-0.146007,-2.274619,-1.313398,4.718162,-1.008232,1.069081
250.000000,0.002000,0.683752,-1.636384,0.436909,-0.337861,1.284158,0.588180,-1.653443,3.766010,-0.841216
251.000000,0.002000,0.643897,-1.230144,0.631391,-0.824515,2.486890,0.793369,-2.033571,3.285278,-1.708842
252.000000,0.002000,1.569447,0.046352,0.720141,-1.010717,0.303576,-0.674456,-3.927576,-0.005834,-1.724472
253.000000,0.002000,0.885419,-0.667526,0.009492,0.739247,0.511453,-0.178475,-3.849341,3.048947,-0.177954
254.000000,0.002000,-1.637090,-0.363223,0.281788,0.050115,0.527618,0.036000,4.026199,0.845032,-0.608212
255.000000,0.002000,0.500477,-0.183075,0.484866,-1.381349,-0.914143,-1.457172,-3.032815,1.568310,-2.609785
256.000000,0.002000,-0.841739,0.059894,0.115659,1.679006,0.856948,0.441554,4.346597,0.188751,-0.587376
257.000000,0.002000,2.258649,-0.189354,-0.544138,1.707863,0.173772,-0.155752,-3.171388,0.352034,0.754175
258.000000,0.002000,0.361026,-0.716939,0.188632,1.580102,1.368185,-0.129188,-1.556357,3.831087,-1.489336
259.000000,0.002000,0.042396,-1.516578,0.177525,2.053084,1.803108,1.142454,-0.224594,4.627836,-0.560275
260.000000,0.002000,0.226241,-2.147207,-0.111376,2.703516,-2.197636,-0.216128,-0.479437,3.421094,0.167304
261.000000,0.002000,1.591832,0.005751,0.347209,0.099834,-2.608512,-1.439912,-4.369392,0.049255,-1.055536
262.000000,0.002000,-1.146006,0.559909,0.325094,1.440799,0.237119,0.767327,4.903634,-3.133719,-2.337954
263.000000,0.002000,0.500896,0.361592,-1.118957,-0.269112,-0.449815,1.620925,-1.636492,-1.486221,4.350891
264.000000,0.002000,-0.065393,-0.513262,-0.146808,-0.079880,1.560429,-0.420667,0.885695,3.368479,1.018469
265.000000,0.002000,-0.722756,1.515728,-0.371159,1.053443,0.681405,2.559545,1.811020,-3.470458,0.359503
266.000000,0.002000,-1.036830,0.313592,-1.175039,-0.377626,1.114659,-0.228387,2.774567,-1.277199,2.861420
267.000000,0.002000,0.095925,-0.777413,1.203551,2.611738,0.503200,-1.423025,-0.391241,2.212795,-4.006670
268.000000,0.002000,0.811527,0.103705,-0.657657,-0.195318,0.795950,-1.107520,-3.170148,-0.060362,2.436151
269.000000,0.002000,1.076415,0.561214,0.464850,0.310707,0.567325,-0.325126,-3.548423,-2.350317,-1.645961
270.000000,0.002000,-0.153125,-1.552454,0.017543,-0.630206,1.104602,0.614831,0.572089,4.411675,-0.466351
271.000000,0.002000,-0.714551,0.466316,1.176603,-0.703080,-1.060476,0.455593,2.251804,-1.562517,-3.911206
272.000000,0.002000,-0.429108,0.224388,1.784266,1.237171,-1.268425,-0.147969,0.934233,-0.387739,-4.034459
273.000000,0.002000,-0.429604,1.078107,-0.593953,1.291377,-3.374455,1.536667,1.436261,-3.741322,3.067885
274.000000,0.002000,-0.057943,0.071920,0.069557,-0.363828,0.351463,0.218844,0.532062,-0.046571,-0.862257
275.000000,0.002000,-1.072130,-0.496722,-0.536622,-0.839188,0.672784,0.866220,3.750071,1.526996,1.768447
276.000000,0.002000,0.264345,0.175549,2.244967,-0.357539,-0.796380,-0.226756,-0.460615,-0.186439,-3.226237
277.000000,0.002000,1.279205,-0.656185,0.645555,-0.805084,-0.548482,1.429187,-3.282162,2.038493,-2.206974
278.000000,0.002000,0.700288,0.272002,-0.241307,-1.892015,1.089000,-0.752273,-7.746088,-3.502512,2.549517
279.000000,0.002000,-0.061961,1.111634,-0.933079,-0.541437,0.905280,-0.110228,0.413656,-3.600664,3.427519
280.000000,0.002000,-0.001936,0.624562,0.176318,1.686292,0.478251,-0.851064,0.438870,-4.370156,-1.085020
281.000000,0.002000,-0.302847,-0.437884,0.976126,-2.651365,-0.210146,-0.393696,1.461818,1.465739,-3.775054
282.000000,0.002000,2.097435,0.640893,-0.149160,-0.502410,1.090975,0.237341,-3.242630,-0.987953,0.169125
283.000000,0.002000,0.849207,-0.245818,-0.664989,0.181525,1.601728,0.705689,-3.192425,0.590356,2.751048
284.000000,0.002000,0.073002,-2.621691,-1.250448,0.195081,0.014920,-0.386856,-0.047008,2.058841,0.954548
285.000000,0.002000,-0.982518,-1.429728,-1.153798,-3.019658,-0.092777,-0.393863,1.778996,2.707501,1.751631
286.000000,0.002000,-0.627981,-1.358551,-0.314233,-0.808285,1.818664,0.548310,1.877013,4.340507,0.953494
287.000000,0.002000,-0.494480,0.021566,1.066361,0.374206,0.010904,-0.859951,1.526857,0.576504,-4.185791
288.000000,0.002000,0.230535,0.376942,0.437728,0.081288,1.534063,1.516953,1.088539,-2.329716,-3.735254
289.000000,0.002000,0.375675,-0.535700,-0.416918,0.586750,2.774770,-1.362726,-1.717146,2.402466,2.034342
290.000000,0.002000,0.618563,-1.142361,0.780942,1.391261,1.457422,-0.676834,-1.689656,3.252878,-2.023442
291.000000,0.002000,0.923311,-0.768173,-0.261673,-1.158765,-0.405372,-0.022947,-3.593903,3.180047,0.918274
292.000000,0.002000,-1.020208,0.456707,-0.934596,-0.441686,-1.379470,0.918678,2.982616,-1.431533,2.945660
293.000000,0.002000,-0.222803,-0.957032,0.045469,0.134954,-0.084926,-0.048246,1.221165,4.319292,0.115617
294.000000,0.002000,-1.658154,1.112531,-0.806965,0.917181,-1.256465,0.903795,2.645357,-1.857779,1.226575
295.000000,0.002000,0.282814,0.103476,-0.721588,1.007795,1.597258,0.491036,-2.041365,0.148485,4.162223
296.000000,0.002000,-0.875764,0.999766,-0.568032,0.278828,-0.006690,-0.079824,2.555111,-3.345661,1.960325
297.000000,0.002000,0.083294,-0.773516,-0.931535,-0.988267,0.447946,-1.087221,-0.453425,3.234169,3.711351
298.000000,0.002000,0.280767,0.768683,0.252464,-1.167018,-1.183946,2.112505,-1.771300,-4.668208,-0.532002
299.000000,0.002000,-1.638073,2.001132,-1.205147,-0.939191,-0.150421,-1.664525,1.368294,-1.444104,0.996484
300.000000,0.002000,-1.483016,2.724713,-0.367041,0.393550,0.473982,0.209451,0.964976,-1.762147,0.233959
301.000000,0.002000,-1.362539,-0.545851,0.411941,0.870449,0.866141,0.111228,3.966203,1.659794,-1.231482
302.000000,0.002000,0.198234,-0.599493,1.982484,0.003055,1.384256,0.488482,-0.259138,0.962626,-2.737158
303.000000,0.002000,-0.787400,-1.499599,1.013216,-1.147881,-1.296048,0.053502,1.590921,2.843952,-1.894510
304.000000,0.002000,1.221732,-0.960655,-1.585266,-0.738591,-0.595889,-0.675565,-1.798867,1.294720,2.418274
305.000000,0.002000,1.548953,-2.179582,-1.244913,2.472976,-0.482902,0.002839,-1.191038,1.602046,0.853147
306.000000,0.002000,0.959932,0.244172,-0.225730,-0.460988,1.392129,0.255754,-4.410618,-1.164944,0.439011
307.000000,0.002000,0.278973,-0.625761,-1.465334,-0.446463,-2.271750,-0.426923,-0.614696,1.629640,4.392154
308.000000,0.002000,1.259840,1.455023,0.628089,-0.378081,0.370981,2.023745,-2.534688,-2.933259,-1.548087
309.000000,0.002000,0.255397,2.385187,-0.358012,1.040611,-0.066597,-0.367162,-0.232059,-2.886051,0.441112
310.000000,0.002000,-0.238203,0.258505,1.217728,0.164128,-0.578467,-1.701188,0.690364,-0.388204,-4.736790
311.000000,0.002000,1.592185,-0.206813,0.573323,-0.381397,0.327438,1.181982,-3.854454,0.410647,-1.389302
312.000000,0.002000,-1.185435,-0.312930,-0.648414,1.337147,0.072449,1.209785,4.682993,0.592044,2.870444
313.000000,0.002000,-0.891930,1.685120,-0.512214,0.748083,-0.303424,1.521164,1.772883,-3.491679,1.039026
314.000000,0.002000,-0.204091,0.318223,1.093588,1.736824,-0.309952,-1.439166,0.873121,-0.039658,-3.637446
315.000000,0.002000,0.627968,2.471209,-0.410224,0.677705,-1.700855,-1.642563,-0.673291,-2.695389,0.490608
316.000000,0.002000,0.450475,0.399966,1.350575,0.827607,0.514118,-0.830461,-1.505068,-1.000400,-4.153305
317.000000,0.002000,0.421007,-0.348043,-0.994264,-0.622655,-1.084401,0.160348,-1.243323,0.833071,4.912547
318.000000,0.002000,0.338156,1.448783,-0.335294,0.397044,-0.176941,0.497602,-1.022868,-4.128711,0.931442
319.000000,0.002000,0.331813,0.262957,0.769049,-1.187918,0.068896,-0.899532,-2.101925,-0.611796,-4.869350
320.000000,0.002000,-1.380938,2.296367,-1.254009,-2.788517,-0.436252,0.233856,1.008573,-1.782910,0.966328
321.000000,0.002000,-0.472506,0.984651,0.444723,-0.398168,-0.165165,0.546111,1.094516,-4.622711,-1.506507
322.000000,0.002000,0.545026,-0.517205,-0.135654,-1.706200,0.192870,-0.334953,-2.615643,3.059512,0.365123
323.000000,0.002000,-0.124906,1.825434,0.855803,-0.673092,0.929855,0.668798,0.291884,-3.456213,-1.632671
324.000000,0.002000,0.890826,-0.621188,0.496115,0.182350,0.411590,-2.604085,-3.197965,2.679232,-2.389919
325.000000,0.002000,0.388091,1.373050,1.956307,0.774120,-0.243867,-0.532090,-0.436821,-1.680484,-2.459743
326.000000,0.002000,-0.529556,-0.446397,-0.649847,-0.907640,-0.006974,1.371847,3.548214,2.709029,3.497315
327.000000,0.002000,0.231884,-0.242882,0.572389,1.811926,0.861528,0.770639,-1.340339,1.439470,-2.398570
328.000000,0.002000,-0.443661,-0.326676,1.197692,-1.367704,0.282149,0.281023,1.778869,0.883060,-4.119110
329.000000,0.002000,-1.099105,0.551347,-0.252296,-0.405678,0.406329,0.909947,4.051673,-2.106135,1.096858
330.000000,0.002000,0.579260,0.846628,-0.238630,-0.969282,-3.049829,0.452869,-2.505597,-3.553176,1.027455
331.000000,0.002000,0.408994,0.102967,-0.837908,-0.319313,-0.480209,0.154329,-1.638849,-0.933259,3.789980
332.000000,0.002000,0.044636,0.485720,0.309001,-0.947184,0.742118,-0.707333,0.501651,-3.272849,-1.810155
333.000000,0.002000,-0.303670,0.252424,-0.933397,-0.394860,0.660380,1.449349,1.578031,-1.448505,3.747493
334.000000,0.002000,-0.750056,0.346528,1.176966,-1.731395,-1.189762,1.032384,2.729859,-1.123711,-3.880804
335.000000,0.002000,-0.128469,0.231369,0.377867,1.609564,0.506127,0.554588,1.122029,-1.425163,-2.196111
336.000000,0.002000,0.279213,0.558539,-1.881508,0.336662,-0.021184,0.034097,-0.552898,-1.097641,3.507349
337.000000,0.002000,-0.159900,0.245563,-0.822106,-0.519458,-0.075766,1.288332,1.129598,-1.250681,4.125759
338.000000,0.002000,1.514027,0.109098,1.575690,-1.049607,-0.294127,-0.189403,-2.519525,-0.303160,-2.558580
339.000000,0.002000,-0.683559,-0.886225,-0.175135,0.847796,0.443718,-1.970818,3.156110,3.807948,0.932033
340.000000,0.002000,-1.521183,0.012347,-0.006083,1.228590,-1.048090,-0.531452,4.522183,-0.061420,-0.020345
341.000000,0.002000,1.173872,0.615708,-0.400832,0.394318,-0.650642,0.242625,-3.822766,-2.333518,1.278715
342.000000,0.002000,-1.374890,1.698315,-0.584954,-1.195324,-0.323231,1.143383,2.111607,-2.329469,1.049528
343.000000,0.002000,-1.146319,-1.402476,1.154995,-0.300265,-1.371038,0.006293,1.894804,2.274247,-1.762937
344.000000,0.002000,-0.298416,-0.996968,0.216986,1.267283,-0.832069,0.280185,1.969175,3.932197,-1.454957
345.000000,0.002000,0.056682,-0.561172,0.835845,1.315417,0.836153,0.069994,-0.434704,2.531594,-3.864078
346.000000,0.002000,0.764643,0.820323,0.801795,-1.757180,-1.080857,-0.091149,-2.445370,-2.611768,-2.939561
347.000000,0.002000,0.712397,-1.569671,1.541462,1.467995,1.237721,-0.848960,-0.986546,2.110139,-2.173925
348.000000,0.002000,0.173329,0.940695,1.344629,-0.717871,1.412632,0.806826,-0.985468,-2.514996,-3.580809
349.000000,0.002000,1.261773,0.270583,0.373968,-1.280495,-0.856171,-0.424570,-5.376711,-1.780944,-1.899299
350.000000,0.002000,-0.205428,0.175520,-0.688923,2.132412,0.629590,1.194984,1.218683,-1.229565,4.054653
351.000000,0.002000,-0.871362,-0.710017,0.342648,-0.445423,1.166918,2.443515,3.529742,2.689239,-1.402444
352.000000,0.002000,0.986954,3.136698,0.124680,-0.366803,-0.342602,-0.334190,-0.565316,-1.738261,-0.088529
353.000000,0.002000,-1.344954,1.779545,-0.509929,0.249606,2.315403,-0.972762,2.428273,-2.473192,0.649572
354.000000,0.002000,-0.983227,0.138753,-1.053889,-1.381275,-0.408497,1.240150,2.852261,-0.538428,2.710352
355.000000,0.002000,0.183539,0.344822,-0.127121,-0.300677,2.065885,-1.017476,-1.129727,-2.024660,0.738894
356.000000,0.002000,0.131859,0.422988,0.321357,-1.354993,1.593272,1.449245,0.267138,-3.188087,-2.324807
357.000000,0.002000,0.308852,0.241055,-0.830497,-0.037427,-1.029209,1.404954,-2.084824,-1.717347,4.316977
358.000000,0.002000,-1.325565,0.004302,-1.325552,0.813832,0.317532,0.800442,3.621135,0.039135,2.656085
359.000000,0.002000,0.212473,0.649965,1.196242,0.542911,-1.702007,2.590817,-0.794512,-2.392722,-3.645233
360.000000,0.002000,-0.844482,-0.739570,0.310338,1.330789,0.918211,-0.225236,2.990986,3.525243,-0.562080
361.000000,0.002000,-0.359738,-0.093982,0.740419,0.415098,1.207883,0.372229,1.996237,0.670335,-3.443086
362.000000,0.002000,-1.034112,-0.110832,-0.918924,0.089094,1.485981,-0.318700,3.344627,0.431716,2.684205
363.000000,0.002000,-1.046986,-0.732045,0.712307,0.269232,0.875077,-0.016089,3.241879,2.274905,-2.340051
364.000000,0.002000,0.125158,-0.942082,-0.262568,0.307082,0.047612,-0.070592,0.213326,3.644941,0.809134
365.000000,0.002000,-1.584873,-0.390951,2.373696,0.405349,1.756719,0.924526,1.315542,0.339538,-1.993324
366.000000,0.002000,0.195069,0.269268,0.062450,1.340938,-2.508537,0.654533,-1.358672,-1.740403,-0.513831
367.000000,0.002000,0.119646,0.325885,-1.102461,-1.194730,-1.858666,0.437579,-0.448587,-1.562308,4.672887
368.000000,0.002000,-0.384871,1.583165,-0.645992,-1.712111,-0.352080,0.942669,0.826422,-3.527799,1.805579
369.000000,0.002000,-0.582795,-0.116124,0.530361,0.211050,1.034099,1.112402,2.307279,0.952931,-3.424047
370.000000,0.002000,0.546068,1.265724,0.228560,-0.092127,-0.391311,-1.489813,-1.955917,-3.741668,-2.105737
371.000000,0.002000,-0.234359,1.200757,0.896366,-0.827881,-0.653286,0.717614,0.574025,-3.427891,-2.689883
372.000000,0.002000,-1.607994,2.368827,1.710934,-0.482805,-0.912893,-0.385320,0.833766,-1.254880,-0.916593
373.000000,0.002000,-0.264995,0.062979,1.305394,-0.422319,-1.607427,-0.542583,0.878437,-0.232341,-4.783004
374.000000,0.002000,-0.182828,0.539285,1.287022,-0.021323,-1.127652,0.517366,0.314828,-1.587187,-3.877186
375.000000,0.002000,-0.976916,-0.607022,0.663710,0.480627,0.147858,-1.550841,3.225728,1.985853,-2.622864
376.000000,0.002000,0.604366,1.159349,-0.096546,0.474794,0.778803,0.240939,-2.511885,-4.017227,0.505022
377.000000,0.002000,-0.136881,-1.903005,-1.404020,0.792829,0.745526,-1.118968,0.201871,2.720828,1.703773
378.000000,0.002000,-0.286028,0.832845,0.547590,-1.611583,-0.320858,-0.192763,1.102942,-3.756263,-2.989683
379.000000,0.002000,0.095618,0.086492,0.354077,1.145780,1.794048,0.459354,-0.387436,-0.206119,-2.541790
380.000000,0.002000,-0.239243,1.208737,0.279674,-1.540375,-1.445381,0.558046,0.982014,-4.834248,-1.105969
381.000000,0.002000,-1.585780,-1.394160,1.556529,-0.413995,-0.458267,0.032178,2.110401,0.887567,-0.286803
382.000000,0.002000,-0.773291,0.532687,-0.092735,2.385770,-1.392327,0.899980,3.774857,-2.898851,0.210942
383.000000,0.002000,-0.166021,-0.103267,1.094338,0.105402,0.197140,-1.079321,0.658868,0.494133,-4.712274
384.000000,0.002000,-0.255867,-0.013551,-1.345871,-0.204598,0.110815,1.380455,1.115258,1.081192,3.834773
385.000000,0.002000,0.417380,0.408040,-0.078477,0.939422,-0.876953,-1.527970,-1.564917,-1.501963,3.392154
386.000000,0.002000,1.337457,0.096768,0.491393,-0.764682,0.227769,0.799364,-4.454434,0.055542,-1.782342
387.000000,0.002000,1.578382,-1.567262,-0.474786,-0.611790,0.124403,0.010637,-3.740326,2.817244,1.398206
388.000000,0.002000,1.331593,0.780027,0.412493,-0.791312,-0.998051,-1.466299,-3.321440,-2.259565,-1.272907
389.000000,0.002000,0.593170,0.582781,1.443014,-1.364663,1.140224,-1.301232,-1.684315,-1.711011,-3.651225
390.000000,0.002000,0.078149,0.136185,0.237145,-1.633680,-0.580085,0.330768,-0.307832,-0.735741,-1.819417
391.000000,0.002000,0.084857,-0.720663,0.935902,-0.617408,2.462207,0.500695,-0.853033,2.613275,-3.524346
392.000000,0.002000,-0.248736,1.651235,0.001316,-0.544028,-1.286184,0.391063,0.570921,-4.462927,-0.040550
393.000000,0.002000,0.441206,0.489078,-0.677971,-0.085990,1.066799,0.046718,-1.973025,-1.843173,3.346470
394.000000,0.002000,0.946097,1.918651,0.070181,-0.376390,-0.237106,0.415680,-1.575349,-3.032990,-0.131625
395.000000,0.002000,-0.396277,-0.122489,-1.345322,-0.403779,1.211153,3.172901,0.478722,0.670869,4.781926
396.000000,0.002000,-0.091156,0.124894,1.030277,0.405782,-0.667833,-0.570521,-1.067524,0.233081,-4.680971
397.000000,0.002000,0.890096,-0.076749,-0.491615,-0.736412,1.793454,-0.864135,-3.767721,0.365949,2.837059
398.000000,0.002000,1.138900,0.039391,-0.529100,-0.324284,1.061951,0.107883,-4.412390,-0.454507,2.429994
399.000000,0.002000,1.189239,0.969277,0.007125,-1.367749,-0.616445,-0.038012,-3.505530,-3.090918,0.253629
400.000000,0.002000,-0.731457,-1.718251,0.453062,-0.568037,1.807912,-0.778729,1.227983,3.589551,-0.878235
401.000000,0.002000,-1.022965,-1.759159,1.157809,-0.515509,1.237011,-2.287178,1.343930,2.344664,-1.485513
402.000000,0.002000,0.823279,-1.117456,-1.258021,0.683968,0.363448,0.056113,-2.027537,2.589819,2.651611
403.000000,0.002000,0.530564,-0.829848,0.851637,-1.900876,0.469075,-2.530307,-1.935278,2.755306,-3.343970
404.000000,0.002000,0.414141,0.482098,-0.197242,-1.303211,-0.477104,-2.966681,-2.111940,-2.273913,2.066195
405.000000,0.002000,-0.087853,0.666431,-0.374890,-1.403471,-1.370466,0.669770,0.806371,-3.099553,2.485479
406.000000,0.002000,-0.274119,0.521152,0.521167,-1.726699,-1.458337,-0.451837,1.077849,-3.137743,-2.225346
407.000000,0.002000,-0.965084,-0.693421,0.447150,1.505577,-0.764037,0.859866,4.147274,2.785254,-2.404492
408.000000,0.002000,-0.080817,1.654765,-0.447750,1.677333,-1.004778,-0.164085,0.191436,-4.201547,1.364155
409.000000,0.002000,-0.356834,0.781765,0.317415,-0.809117,-0.313185,-0.148430,1.983652,-4.919921,-1.422451
410.000000,0.002000,0.058732,-0.593969,0.432066,1.029455,1.072045,0.399762,0.059498,2.920016,-3.228277
411.000000,0.002000,0.809652,0.201095,-0.755904,-1.475657,-1.530150,0.396234,-2.233176,-1.607288,3.837962
412.000000,0.002000,1.540584,-1.163567,-1.376530,-1.165801,1.564737,1.189574,-2.056781,1.553615,1.723951
413.000000,0.002000,1.058049,0.547177,-0.546759,0.116814,1.421114,0.248003,-3.923433,-2.199074,2.182127
414.000000,0.002000,-1.165299,1.867005,-0.145272,-0.180396,-2.548694,-1.303164,1.780143,-2.940176,0.192275
415.000000,0.002000,0.547058,0.351991,0.586589,-0.272837,0.052991,0.492238,-4.428043,-1.109596,-2.669771
416.000000,0.002000,0.064788,0.317393,-0.497515,-2.492586,-2.270049,-0.345618,-0.929957,-1.259543,2.831159
417.000000,0.002000,-0.300087,-1.720282,-0.731745,0.022180,0.469018,0.399359,0.632904,3.843322,1.590485
418.000000,0.002000,-0.092931,0.964787,0.558687,-1.838537,-0.786656,-0.448560,0.069374,-4.376766,-2.348145
419.000000,0.002000,-0.679614,-1.036854,-2.543678,-1.641874,1.220815,1.358800,0.564791,0.857783,2.123951
420.000000,0.002000,1.245907,-0.469175,-0.600296,0.079816,0.747205,-0.588401,-3.956967,1.206577,1.997561
421.000000,0.002000,0.159399,-0.953696,-0.270759,0.046391,2.684630,0.509913,-2.332984,4.534266,1.408765
422.000000,0.002000,1.862367,0.738501,0.447766,-1.136687,1.057824,0.423464,-3.325412,-1.647189,-0.832667
423.000000,0.002000,-1.619574,2.142647,-1.207911,-0.064510,-0.672637,1.174201,1.477014,-1.880188,0.863278
424.000000,0.002000,1.777924,-2.165314,1.343822,-0.836802,-0.119509,-0.393420,-1.152583,1.359973,-0.868854
425.000000,0.002000,1.704170,-1.065052,0.787178,0.137647,-1.016330,1.701780,-2.749669,1.794782,-1.292063
426.000000,0.002000,0.323362,-1.096818,-1.117825,-1.239654,-1.144868,1.976998,-1.506151,3.073534,2.920353
427.000000,0.002000,-1.323005,0.384968,0.073101,0.371359,-0.925604,0.752511,4.626812,-1.570581,-0.638507
428.000000,0.002000,-0.461230,0.990154,0.552936,0.689570,-0.237364,-0.009373,1.576545,-3.750360,-2.465811
429.000000,0.002000,-0.937731,-0.958825,0.580065,-0.655604,1.524220,0.104084,2.933855,3.166920,-2.115173
430.000000,0.002000,-0.624359,0.111951,1.377871,-0.245634,0.023757,-1.400733,1.827644,-0.206833,-4.070035
431.000000,0.002000,0.461330,-0.605946,0.261762,-0.397638,1.584599,0.358772,-2.560558,2.976708,-1.797436
432.000000,0.002000,-0.687925,1.465333,-0.712315,1.489590,-1.060999,-0.567500,1.394033,-3.457453,1.995617
433.000000,0.002000,0.101984,0.213905,0.284838,-0.545942,-0.630633,0.569596,-0.823311,-0.882365,-1.231671
434.000000,0.002000,-2.110230,-1.523415,-0.516682,-0.547154,-0.227096,-0.273464,2.049209,1.539443,0.480445
435.000000,0.002000,0.240736,0.117240,-0.709757,-0.509203,1.203796,1.609389,-0.305615,-0.444569,3.392729
436.000000,0.002000,-1.316727,-0.573390,-0.362093,0.546488,-0.698703,0.658879,4.080943,1.840481,1.220696
437.000000,0.002000,0.217011,-0.558165,0.464805,-1.524831,-0.934545,-1.040654,0.758349,6.336219,-2.855541
438.000000,0.002000,-0.498847,-0.150227,-0.392703,0.737979,0.684546,-0.064219,2.800309,0.723476,2.426245
439.000000,0.002000,-0.760634,0.756589,-0.861228,0.368392,0.422386,0.069403,2.348200,-2.572735,3.138616
440.000000,0.002000,-0.308228,0.051479,-1.036288,1.197125,0.544687,1.776770,0.324057,-1.233714,2.953388
441.000000,0.002000,-0.620612,-0.471007,-0.195576,-1.174069,1.483787,1.088594,3.618272,2.616681,0.747420
442.000000,0.002000,-0.218746,-0.753968,-0.187961,-0.710344,0.607580,0.231022,1.837019,3.501980,1.046191
443.000000,0.002000,0.760477,-0.412330,1.122832,-2.998850,-1.841001,-0.430601,-2.512158,1.552103,-3.616292
444.000000,0.002000,0.487174,1.058956,-0.955572,0.606354,1.096650,-0.643217,-1.012104,-3.190437,2.622900
445.000000,0.002000,0.274224,0.163647,-0.653285,0.700382,0.061000,0.110536,-1.675687,-1.347475,2.641754
446.000000,0.002000,-1.072500,-1.213026,1.212815,-1.076835,1.624052,-1.638331,2.248192,2.645441,-2.025805
447.000000,0.002000,-0.934753,1.497842,-0.572499,0.417039,0.418535,-0.402625,2.233996,-3.457190,1.260804
448.000000,0.002000,-1.148867,0.572614,-0.386123,-1.082787,-0.454999,1.430801,3.911816,-2.561492,2.095557
449.000000,0.002000,0.595401,-0.499404,0.437861,-0.136058,-0.642802,-0.463604,-3.011375,2.444442,-2.853725
450.000000,0.002000,-1.004822,0.709126,0.238435,0.182773,-0.864892,-1.352121,3.771091,-2.591522,-0.895235
451.000000,0.002000,-0.899292,2.699155,0.486005,0.173692,0.067779,-0.313103,0.708348,-2.132358,-0.415472
452.000000,0.002000,1.979808,1.653146,-0.148859,-1.759106,0.093759,0.225252,-2.112465,-1.887089,0.191810
453.000000,0.002000,-0.236086,-0.362906,-1.696859,0.949008,0.278481,1.070609,0.531869,0.807882,4.163781
454.000000,0.002000,-0.706775,0.101207,1.491338,0.129188,-0.751612,-0.568861,1.884570,-0.194792,-4.139526
455.000000,0.002000,-0.844915,0.865193,-1.248197,-0.179307,-0.283399,0.308276,1.905884,-2.027415,2.876924
456.000000,0.002000,-0.773939,-0.285254,0.045772,-0.582616,1.040152,-1.676906,4.659945,2.036605,0.093197
457.000000,0.002000,0.528008,0.920531,0.974859,0.202971,-0.513019,0.693922,-1.236395,-3.206370,-3.422756
458.000000,0.002000,0.037617,0.712814,1.653882,-1.069219,1.460837,-0.065434,-0.317153,-1.776668,-3.916055
459.000000,0.002000,-0.407051,0.676161,-1.773009,0.568793,-0.623860,0.522360,0.548143,-1.311412,3.564792
460.000000,0.002000,0.714974,-0.143032,-0.043660,1.212532,1.810746,-0.280875,-3.964322,0.870286,-0.190945
461.000000,0.002000,0.916773,0.283001,1.217608,-0.890796,0.525102,1.323004,-2.528087,-0.857997,-3.583407
462.000000,0.002000,1.509512,0.549226,1.089027,-0.124571,0.704254,-0.637905,-3.036240,-1.073400,-2.241815
463.000000,0.002000,-0.533840,-0.108009,-0.623216,-0.824587,-0.429550,-0.144664,1.464881,1.792044,3.260618
464.000000,0.002000,0.967416,0.344703,-0.507087,-0.735116,-0.495012,0.162297,-3.981720,-1.632436,2.226620
465.000000,0.002000,-0.109475,0.835493,-0.111836,-1.270686,-1.466982,-0.287101,0.848248,-4.311109,0.903799
466.000000,0.002000,-0.903400,0.265993,-2.074740,0.372690,0.622528,-0.174895,1.330209,-0.452527,2.970246
467.000000,0.002000,0.583627,-0.455156,-0.447796,-1.190111,0.025638,0.333705,-3.592441,1.337663,3.406865
468.000000,0.002000,0.642785,-1.003918,1.675810,-1.266268,1.981133,-1.615587,-1.131231,1.803561,-2.907154
469.000000,0.002000,-0.606739,-0.468679,0.954807,-0.413955,0.436902,-0.651401,2.914282,2.712430,-2.627942
470.000000,0.002000,0.599589,2.343271,-0.091465,-0.618077,-0.808488,0.618763,-0.693970,-2.779442,0.147575
471.000000,0.002000,0.076278,-1.335829,-0.420588,0.967342,1.155130,-0.324655,-0.477700,4.525286,1.186310
472.000000,0.002000,-0.792825,-0.483714,-2.067130,-0.241377,-0.102991,-1.294074,1.103817,0.690338,3.010852
473.000000,0.002000,1.516822,-1.456784,-2.931720,-0.787593,-0.139056,-0.520703,-0.665283,0.608746,1.289633
474.000000,0.002000,-0.966920,-0.076488,-1.160846,1.362556,2.699768,0.272908,2.615937,0.089342,3.422034
475.000000,0.002000,1.133766,0.078316,-0.205396,-0.245950,1.079777,-1.092210,-4.595934,-0.119009,0.841396
476.000000,0.002000,0.578000,0.071615,0.834429,-0.403387,-1.135860,-1.158542,-2.299059,-0.351000,-3.887280
477.000000,0.002000,-1.036605,-0.713933,1.109593,0.648571,-0.670067,1.937461,2.600871,1.823369,-2.897936
478.000000,0.002000,-2.086625,-1.592927,0.473190,2.438786,-0.950844,-0.186903,2.108254,1.584358,-0.485025
479.000000,0.002000,-0.263939,1.047163,0.353023,1.159831,0.138071,-2.504360,0.325921,-3.929183,-1.641426
480.000000,0.002000,-1.098434,0.004796,1.373881,0.735636,-2.059159,0.520687,2.316965,0.393234,-3.738890
481.000000,0.002000,0.235823,-0.560592,0.512793,0.370605,2.364384,-2.154642,-0.704436,3.417905,-5.322927
482.000000,0.002000,0.531859,0.401032,0.520452,-0.835512,-0.913905,-1.265510,-3.121548,-2.242243,-2.351962
483.000000,0.002000,-2.801422,0.944822,1.698809,1.102356,0.275482,-0.627402,1.418244,-0.474960,-0.836424
484.000000,0.002000,0.645459,0.614553,0.432775,0.752291,1.891105,-1.574223,-3.280232,-3.269936,-2.004737
485.000000,0.002000,0.289231,0.744645,0.290977,-0.469723,0.121072,1.309705,-2.365001,-3.855833,-2.210264
486.000000,0.002000,-0.911263,-0.805511,-1.411387,-0.506857,1.192536,-1.800221,2.264598,1.931618,2.778717
487.000000,0.002000,-1.286978,-0.982029,1.529470,0.609591,0.584643,-1.362850,2.062788,1.364418,-1.880501
488.000000,0.002000,0.738029,-0.746641,-0.083068,-0.390269,-0.290017,1.584263,-3.626999,3.098103,0.271470
489.000000,0.002000,-0.100859,-0.257568,0.294898,-1.050373,2.215486,1.004577,0.554131,1.523393,-1.657322
490.000000,0.002000,0.760083,-0.136313,0.265116,-0.405360,-0.462739,-0.520390,-3.535803,1.217896,-1.932449
491.000000,0.002000,0.772445,-0.349968,0.114033,-0.938203,-0.232143,-1.008507,-3.584106,1.822596,-1.634769
492.000000,0.002000,-0.383296,0.032543,-0.076381,-0.162036,0.276466,1.316031,3.004861,-0.177411,0.271973
493.000000,0.002000,-0.597873,0.220674,0.725414,-0.066299,0.195947,0.524443,3.931447,-0.294811,-3.249493
494.000000,0.002000,0.218856,0.191460,-0.727529,0.284248,-1.684817,0.383375,-0.435090,-1.286185,2.997742
495.000000,0.002000,-1.128966,0.538252,0.753029,0.712622,0.453538,0.089491,3.536382,-1.598733,-2.642810
496.000000,0.002000,0.123569,1.265428,0.896359,0.318055,-0.750314,-0.286456,-0.444475,-3.449597,-2.556699
497.000000,0.002000,2.349696,-0.294377,-1.113767,-1.883734,-0.440861,-0.470805,-2.315254,0.250879,1.256958
498.000000,0.002000,-0.792112,-0.295249,0.191111,0.139797,1.531259,-1.586397,4.637920,1.952676,-1.291364
499.000000,0.002000,-1.998721,0.976769,-0.353574,1.077415,-1.852870,-0.530056,3.111934,-1.328075,0.487891
500.000000,0.002000,0.147446,-0.664126,0.130904,1.913209,2.481002,1.174167,-0.548209,3.985768,-0.541551
501.000000,0.002000,-0.107012,-0.060865,0.601919,-0.575762,0.354923,1.031757,0.579353,-0.299462,-3.411106
502.000000,0.002000,-0.567332,-0.733896,0.595848,0.317445,1.168398,-0.008566,2.024936,3.733702,-2.628307
503.000000,0.002000,0.168344,0.026665,1.241797,0.304188,-0.875404,0.487841,-0.497259,0.497076,-4.153608
504.000000,0.002000,-0.494110,-0.865528,1.099884,2.832586,0.198718,-1.095582,1.830657,2.812673,-3.460779
505.000000,0.002000,-1.628360,-1.474140,0.640196,-0.493998,-0.624334,-1.000307,2.360165,2.025241,-1.025878
506.000000,0.002000,0.734274,0.026529,-0.114622,2.191664,-0.468032,-0.068205,-3.131138,-0.051979,0.027471
507.000000,0.002000,-0.100653,0.002465,1.026491,-0.655105,0.439932,-2.092667,-0.255344,-0.240478,-4.881683
508.000000,0.002000,-0.204211,0.363771,1.743475,1.031268,2.594152,-0.653362,0.561889,-0.678496,-4.230316
509.000000,0.002000,0.217234,2.383141,0.049775,0.935608,0.450811,0.769187,-0.202025,-2.980758,-0.099420
510.000000,0.002000,0.963956,-2.013843,0.199229,-2.191535,-1.504013,0.203372,-1.449703,2.896341,-0.129201
511.000000,0.002000,-1.405006,1.096607,-1.065505,1.136846,1.086801,0.944152,2.351312,-1.951673,2.145127
512.000000,0.002000,0.345580,-0.493034,-0.837803,0.128476,-0.888510,1.996742,-1.520965,2.567924,3.972299
513.000000,0.002000,-1.456862,-0.201509,2.205235,0.979171,1.573966,2.100509,1.451927,0.124099,-2.269588
514.000000,0.002000,-0.470052,0.616939,0.032690,-0.695056,-1.794673,0.461350,0.777189,-2.679095,-0.182061
515.000000,0.002000,0.603186,-1.450322,-0.740609,-1.558872,2.235631,-1.553065,-2.409068,3.728895,2.774260
516.000000,0.002000,0.916774,-0.487213,-0.219593,-0.571492,-1.428113,-0.566320,-3.882745,3.058903,0.790111
517.000000,0.002000,-0.347802,1.025709,0.407748,0.553063,-1.078725,0.377851,0.742278,-4.302203,-1.826551
518.000000,0.002000,0.134985,0.660836,0.483998,0.421861,-0.290563,-0.765714,-0.439316,-4.122450,-1.510199
519.000000,0.002000,0.181231,1.626837,-0.286013,-0.181310,-0.026368,-1.068882,-0.251687,-4.348335,0.831535
520.000000,0.002000,0.591395,-0.124149,0.163217,1.332929,2.738657,-0.083144,-3.377739,0.876957,-1.499047
521.000000,0.002000,1.763881,-0.771322,-0.876248,0.575462,-0.506492,1.402326,-3.220180,1.305702,1.359063
522.000000,0.002000,0.484072,0.051952,0.235845,-2.864518,1.023557,0.578762,-2.765408,0.135395,-1.611204
523.000000,0.002000,0.190670,0.018575,0.774603,1.096116,-0.261026,-0.796490,-1.117467,0.183737,-4.328557
524.000000,0.002000,-0.761327,-1.057206,0.190229,0.669832,0.190503,0.409211,2.828364,4.251811,-0.701651
525.000000,0.002000,-1.853651,-1.420881,1.722916,-1.085239,-0.125461,-0.863260,1.505600,1.135243,-1.362389
526.000000,0.002000,0.480964,0.153131,1.090519,-1.612877,0.791581,-1.102596,-2.633994,-0.362960,-3.182595
527.000000,0.002000,-1.105581,-0.619594,0.325120,0.080155,-1.390530,-1.623679,4.244187,1.707166,-1.090328
528.000000,0.002000,1.033965,0.307675,-2.198412,0.610357,-1.073175,1.963142,-1.246720,-0.540361,2.603191
529.000000,0.002000,-0.998814,0.495824,-0.540324,0.208339,-0.102170,-0.679322,3.474498,-1.763377,2.371904
530.000000,0.002000,2.648239,0.912736,0.553108,0.312978,-0.141347,-0.063310,-2.320355,-0.690898,-0.321980
531.000000,0.002000,-0.931399,-0.039652,-0.085479,1.324309,0.049395,-1.649274,4.553025,0.480766,0.376821
532.000000,0.002000,1.106929,1.028101,1.109770,-0.336567,0.503178,0.146654,-2.335001,-2.523901,-2.504311
533.000000,0.002000,-0.959084,1.459815,-1.448153,-0.054134,0.048613,-0.131957,1.199698,-1.901881,2.018305
534.000000,0.002000,-0.309970,0.618084,0.114561,1.318486,0.658433,1.303952,1.693062,-3.378829,-0.221138
535.000000,0.002000,-1.265474,-0.778486,-1.383200,-1.099219,0.362334,1.085941,1.894795,1.441173,2.584204
536.000000,0.002000,0.449317,0.892106,-0.056637,-0.643083,-2.222550,0.231382,-2.561131,-3.610480,0.282155
537.000000,0.002000,-0.446586,-1.427520,0.971916,-0.140136,0.544546,0.130458,1.172263,3.146047,-2.076078
538.000000,0.002000,2.152170,-2.296042,-0.984773,-0.422534,-2.366855,0.450225,-1.166366,1.251987,0.508323
539.000000,0.002000,-0.760742,-0.621908,0.347580,-0.070954,-0.034814,0.489804,3.238541,2.400459,-1.423707
540.000000,0.002000,1.754870,1.042966,0.497045,0.399395,-0.025102,-0.240262,-2.872659,-1.838106,-0.786156
541.000000,0.002000,-0.576315,-0.860456,-0.798244,0.981639,1.594138,0.334559,2.697314,2.558183,3.245533
542.000000,0.002000,1.588889,0.148160,-0.460190,-0.208909,1.012509,0.075028,-6.996488,0.391744,3.835216
543.000000,0.002000,-0.407476,0.653640,-1.248806,-0.981933,-1.065158,0.693891,1.525206,-1.994214,3.803499
544.000000,0.002000,1.804433,0.076419,-0.368103,1.520251,-0.425235,-0.680815,-3.985800,-0.210563,0.832038
545.000000,0.002000,0.626987,-0.196861,-0.359127,0.624188,-2.088674,0.146876,-2.796824,0.703482,2.146556
546.000000,0.002000,-0.284190,-0.659989,0.552555,-0.057955,1.385929,-0.762820,0.255168,3.229634,-2.628516
547.000000,0.002000,-0.703301,-0.817820,-0.034713,-0.595148,1.007605,-1.066063,2.999971,3.199960,-0.508289
548.000000,0.002000,1.360540,-0.119861,-0.548851,-0.252652,-0.342484,0.465863,-4.105515,0.442958,1.755513
549.000000,0.002000,0.134054,1.807912,-1.585080,-1.373918,-0.866462,-0.469643,-0.177694,-2.210836,2.006625
550.000000,0.002000,0.341207,-0.007124,1.118947,-0.360773,-1.067989,-0.577612,-1.574582,0.496808,-4.072300
551.000000,0.002000,0.700445,-0.089750,-1.675632,-1.618013,0.489799,0.402522,-1.616980,-0.020301,3.695712
552.000000,0.002000,0.741818,-0.741524,-0.904300,-0.576642,0.722764,0.471590,-2.789232,2.735777,2.910771
553.000000,0.002000,1.316862,-1.136604,1.183685,0.633499,-0.946787,-1.307885,-2.146950,1.912313,-1.992263
554.000000,0.002000,0.289468,0.460696,0.444979,-0.368347,0.449809,0.494587,-1.793937,-2.957723,-2.643279
555.000000,0.002000,-1.215101,-1.303251,0.145189,2.359839,2.646813,-0.366433,2.654306,3.120070,-0.070920
556.000000,0.002000,0.678978,0.045644,-0.900879,0.319214,-0.240897,-0.015257,-3.049140,-1.152175,4.182493
557.000000,0.002000,0.101761,-0.093571,-0.811444,0.365329,-0.119633,1.101489,-0.072285,-0.451189,4.020239
558.000000,0.002000,1.107672,-1.859647,0.118673,0.285556,-0.361760,-2.399642,-1.803612,2.834220,-0.194222
559.000000,0.002000,0.466928,0.676903,-0.801631,0.280929,-1.954070,1.344685,-1.434254,-2.673784,3.300959
560.000000,0.002000,0.276843,2.327726,0.403154,0.852260,0.474529,-1.355030,-0.345094,-3.025498,-0.514084
561.000000,0.002000,0.353177,0.750658,0.220562,1.048682,0.772626,0.615254,-2.409856,-3.718678,-0.793367
562.000000,0.002000,1.848952,0.869605,-0.337373,-2.010682,-0.718286,-1.212116,-3.268576,-1.566600,0.633268
563.000000,0.002000,0.610420,-0.233947,0.814410,1.571445,0.905871,-2.367326,-2.773189,1.429592,-3.748898
564.000000,0.002000,-1.286720,-1.732508,1.339640,0.736842,-0.453373,-0.743556,1.313184,1.829549,-1.438495
565.000000,0.002000,2.353142,0.397677,0.151288,0.646901,-0.412494,0.118729,-3.744175,-0.131879,-0.010539
566.000000,0.002000,0.397272,-0.492274,0.086813,-1.510337,1.019726,-0.544349,-1.937492,2.784958,-0.645902
567.000000,0.002000,-0.049091,0.374412,-1.298865,-0.439179,-1.406561,1.712716,0.155301,-1.539948,4.423191
568.000000,0.002000,-0.766214,0.603899,-0.139839,-1.043318,-1.502928,2.824834,3.693637,-2.972133,0.284699
569.000000,0.002000,-0.914353,2.149430,0.102592,0.521308,0.245623,0.311523,1.283676,-2.894073,-0.157031
570.000000,0.002000,-0.588892,-1.497076,0.706192,0.089720,1.321705,-0.253399,1.468734,3.554094,-1.585370
571.000000,0.002000,0.550012,-0.733321,-0.840807,-0.960872,-1.993192,1.673112,-2.415231,2.414110,4.069499
572.000000,0.002000,-0.053154,-0.922222,-0.954771,-0.156364,-0.084693,0.275947,0.106838,3.429810,3.505214
573.000000,0.002000,0.117594,-0.887791,0.222523,1.108815,1.236941,-0.231263,-0.387864,4.402819,-0.975724
574.000000,0.002000,0.797324,-0.993951,-1.317833,0.767980,-0.530832,0.519766,-1.771687,3.236841,2.975582
575.000000,0.002000,1.734257,-1.006173,-0.915683,0.578062,-0.140006,-1.156688,-2.817919,1.720011,1.337446
576.000000,0.002000,0.250394,0.774186,-0.271385,0.086728,0.476131,0.090201,-2.098574,-3.803931,2.416950
577.000000,0.002000,0.508981,-0.228536,-0.704722,0.040702,0.960202,1.698703,-3.419982,0.718969,3.684769
578.000000,0.002000,1.540848,2.723641,1.690171,0.503845,1.052961,-0.109315,-0.667053,-1.192040,-0.756330
579.000000,0.002000,0.114426,1.809089,0.340207,-0.159542,-0.541154,-0.145226,-0.239233,-4.307391,-0.701608
580.000000,0.002000,-0.886494,0.289749,-0.113697,-1.692248,-0.990912,-0.067245,5.443736,-0.701815,0.320265
581.000000,0.002000,-0.608558,-1.078880,0.662462,2.075066,-0.606651,-0.932108,2.005664,3.396722,-2.371060
582.000000,0.002000,-1.803852,0.841600,-1.508860,0.415782,1.103830,0.779271,2.133192,-0.895385,1.695123
583.000000,0.002000,-2.063741,-1.734229,2.037129,0.392752,0.612776,0.249154,1.063801,0.896797,-1.058165
584.000000,0.002000,-0.038454,0.397246,1.537681,0.794372,1.476971,0.176194,-0.146544,-1.159423,-4.276706
585.000000,0.002000,0.845194,-1.540141,0.516054,-0.649786,-0.415062,-1.901058,-2.095369,3.437988,-1.183166
586.000000,0.002000,0.194490,-0.484700,-0.136314,-0.088049,-0.486698,-0.798963,-1.246255,2.469818,0.456173
587.000000,0.002000,1.208703,-0.715052,0.122439,-0.704792,1.092153,-1.461460,-4.296429,2.209814,-0.317314
588.000000,0.002000,-0.184392,-1.617403,-0.817316,-0.807544,1.288294,0.064461,0.313341,3.872840,1.512405
589.000000,0.002000,-0.059468,1.034901,0.770114,-1.298663,-1.680887,-1.418553,0.339237,-3.879256,-2.939187
590.000000,0.002000,0.756273,-1.005467,1.738724,0.679699,-0.801768,-0.588330,-1.191492,1.692873,-2.713421
591.000000,0.002000,-0.086084,-0.729163,-0.043190,-1.462244,1.854396,0.736220,0.917650,3.772392,-0.199933
592.000000,0.002000,1.103971,-0.187823,0.663807,0.685287,-0.909046,-1.384674,-3.801938,0.888541,-2.443244
593.000000,0.002000,0.827641,0.433114,-0.901140,-1.689630,-0.000043,0.067985,-2.931928,-1.350511,3.149861
594.000000,0.002000,0.426253,-0.221116,1.712602,1.358914,-1.294559,-1.114433,-1.259903,0.650880,-3.973959
595.000000,0.002000,-1.809714,-0.023570,-0.580852,-0.558505,0.569225,0.130864,3.710389,0.052954,1.163322
596.000000,0.002000,-0.177528,-2.217675,0.930208,-2.565582,1.369795,-1.041618,0.174586,2.934205,-1.185685
597.000000,0.002000,0.083368,-1.562119,-0.188687,0.331314,1.830343,0.914327,-0.240772,4.210843,0.429179
598.000000,0.002000,0.631184,-1.673057,-0.196679,-0.066411,-0.016422,-0.959567,-1.806909,3.916428,0.503078
599.000000,0.002000,-0.787473,-0.704809,0.069827,1.707900,-0.509946,0.191761,3.480242,0.704480,0.029619
600.000000,0.002000,0.505671,-0.214678,0.192637,1.417178,1.416238,-0.584338,-2.958282,0.989936,-1.994088
601.000000,0.002000,0.897403,-0.205989,1.176684,0.176068,0.432196,-1.622654,-2.762139,1.007954,-3.477892
602.000000,0.002000,1.241616,-0.270336,-0.830176,-1.480178,0.895173,-0.802110,-3.879851,0.996793,2.338782
603.000000,0.002000,-1.132505,-0.059607,-0.322558,3.102432,0.345720,0.290475,4.895421,-0.358473,1.033940
604.000000,0.002000,0.585055,-1.252419,-0.326408,-1.162507,1.673002,-0.173958,-2.051559,4.234231,0.967395
605.000000,0.002000,0.942007,-0.694885,-0.524112,-0.494026,0.459411,1.378452,-4.152080,2.985315,1.615220
606.000000,0.002000,-1.251588,2.378067,-0.596911,1.083592,-1.411671,0.807496,1.124575,-2.134271,0.558314
607.000000,0.002000,-1.142641,-0.808322,-0.966259,1.054302,0.200179,-0.740166,2.925764,2.003326,2.445861
608.000000,0.002000,-0.547557,0.645474,-0.122660,-1.240073,-1.322400,1.018489,2.185294,-5.018029,0.539825
609.000000,0.002000,-0.769138,-0.921991,0.138813,1.054265,3.020034,0.556900,3.094788,3.945112,-0.376772
610.000000,0.002000,0.084610,1.276204,-0.103956,0.346473,-1.771869,-0.870584,1.715286,-5.207309,-0.746735
611.000000,0.002000,-0.084637,-0.837639,-0.081175,0.095081,1.514892,1.180891,0.580533,5.258953,0.242613
612.000000,0.002000,-0.145977,-0.424964,-1.048488,1.607019,-0.211869,-0.071195,0.186478,-0.718416,4.319252
613.000000,0.002000,0.529113,0.023835,-0.056610,-0.284146,0.824833,0.800598,-2.795105,-0.311316,0.556167
614.000000,0.002000,-1.749999,0.420499,0.255591,0.221678,-0.457712,-1.270416,6.090250,-0.508782,-0.508362
615.000000,0.002000,-1.076959,1.293226,-1.260037,-1.029273,1.306728,0.750231,1.663745,-2.074635,2.129249
616.000000,0.002000,0.190494,-0.184372,-0.878057,1.052693,0.470617,2.592609,-1.199474,0.449725,4.724276
617.000000,0.002000,0.201678,1.486639,-0.070447,0.048137,-1.452528,-0.681314,0.835323,-4.821878,-0.048521
618.000000,0.002000,-0.476474,0.362178,0.429227,0.250127,-0.618437,1.454127,3.093548,-1.727647,-2.115708
619.000000,0.002000,0.207723,-0.377435,1.554819,0.843817,0.352752,0.239848,-0.789772,0.975292,-4.313798
620.000000,0.002000,0.354740,-0.634282,-0.021512,-0.711103,-0.176944,0.492167,-2.767538,3.915940,0.019078
621.000000,0.002000,-0.437323,-0.286298,-0.412069,1.770512,1.803101,1.401474,2.572472,1.254207,2.883638
622.000000,0.002000,-1.265154,0.998456,-0.333208,-0.321981,0.843140,-0.116616,3.227412,-2.872858,0.740390
623.000000,0.002000,0.736146,-0.243037,-0.389019,0.606552,2.301568,-1.469213,-4.065775,0.991613,2.656288
624.000000,0.002000,-0.675549,0.777948,-0.189943,0.647575,-0.043074,0.384789,7.024496,-5.700663,4.745913
625.000000,0.002000,-1.006579,-1.731848,0.041904,-1.225389,-0.129145,-1.188407,1.080555,3.132826,0.233011
626.000000,0.002000,-0.754713,-0.092768,-0.645786,0.118707,-0.360909,-0.451484,3.654358,0.264998,3.515908
627.000000,0.002000,0.802049,0.176491,0.686909,-1.110609,-2.031409,0.940119,-3.849702,-0.767144,-2.762679
628.000000,0.002000,-0.330002,-0.049161,1.428820,1.536562,-2.580428,-1.851498,1.290001,0.440073,-4.200705
629.000000,0.002000,-0.732888,-0.345935,-1.571220,0.642924,-2.578504,0.755440,1.302184,0.727325,3.789826
630.000000,0.002000,1.282224,-0.509425,0.959099,-0.910358,-0.415570,0.663427,-3.159720,1.453287,-2.287514
631.000000,0.002000,-1.918720,2.031114,-0.402406,-0.803106,0.986149,-0.194165,1.644401,-1.726573,0.314907
632.000000,0.002000,0.524069,0.045243,0.004198,-0.347016,-0.637722,1.318971,-2.989383,-0.438441,-0.545851
633.000000,0.002000,1.838884,-1.928819,0.382004,0.583816,-1.211728,0.383144,-1.666308,1.836722,-0.366768
634.000000,0.002000,0.886880,-0.045999,0.225426,-0.498003,-0.073633,1.642187,-2.625243,-1.805808,-3.986377
635.000000,0.002000,0.211374,-0.758179,0.083448,1.736130,2.739260,0.205949,-1.242452,3.686117,-0.334641
636.000000,0.002000,0.273945,-0.229194,-0.127326,-1.384811,-1.423452,0.852797,-1.527025,2.227203,0.977258
637.000000,0.002000,-0.679870,-0.032720,1.187842,-0.775801,1.272537,-0.746503,2.033215,0.332167,-4.368306
638.000000,0.002000,-1.927582,-0.190578,-0.451201,1.168269,-1.128436,-0.548948,3.959217,0.538399,0.766156
639.000000,0.002000,1.344115,0.117305,1.585484,-0.762506,0.297085,0.238215,-2.000787,-0.079126,-2.716785
640.000000,0.002000,-2.418776,0.178373,-0.007821,-1.156481,-1.456173,-1.447296,3.151433,-0.443114,0.194022
641.000000,0.002000,1.368526,-1.554984,0.234931,-0.328997,0.689798,1.922381,-2.288749,2.624994,-0.456871
642.000000,0.002000,-0.043775,-0.344594,1.265634,-0.551866,0.918037,-0.179649,-0.047781,1.303939,-4.409965
643.000000,0.002000,-0.139319,2.197501,1.266069,1.026707,0.554947,0.917724,0.181831,-2.498934,-1.426789
644.000000,0.002000,1.042405,0.417970,-1.347778,0.182975,-0.836392,-1.102268,-2.527901,-0.901248,3.226458
645.000000,0.002000,-0.271479,0.260412,0.531827,0.967011,-1.706213,-0.964722,1.411840,-0.741999,-3.077554
646.000000,0.002000,1.528562,-0.554648,-0.906875,0.767478,-0.302995,-0.034746,-3.302436,1.162396,2.020190
647.000000,0.002000,1.114459,-0.850318,0.479911,1.004370,0.060600,-2.167155,-2.708790,2.985590,-1.852335
648.000000,0.002000,1.341926,0.260060,-0.170381,0.229780,-1.091100,1.018856,-5.439017,-0.320039,-1.866876
649.000000,0.002000,-0.073956,0.741564,-0.030184,-0.507046,0.348014,-0.138523,0.876883,-3.839057,0.969650
650.000000,0.002000,2.629554,-0.940306,-0.864028,1.945273,0.334469,0.767569,-2.013216,0.711215,0.636920
651.000000,0.002000,-0.918330,-0.323836,-2.127896,0.410390,1.376749,0.534189,1.184813,0.408286,2.876547
652.000000,0.002000,-0.352434,-0.693386,0.010990,1.616774,0.105618,-0.351243,2.841217,3.345197,-1.077214
653.000000,0.002000,0.664134,-0.949102,0.980167,1.086753,1.723436,0.096672,-1.649771,2.721450,-3.182262
654.000000,0.002000,1.715353,-0.262031,1.656323,-0.652492,-0.228926,0.182564,-2.187354,0.444229,-2.255750
655.000000,0.002000,-0.017179,2.092426,1.029514,-1.104701,0.194308,-0.570505,0.152073,-3.003418,-1.367077
656.000000,0.002000,-1.449742,0.100104,1.413086,0.852938,0.391743,1.548199,2.617087,-0.205904,-2.611282
657.000000,0.002000,0.326835,0.009845,1.163162,1.418246,0.228947,-1.009434,-0.988270,-0.067447,-5.082403
658.000000,0.002000,-0.638049,-0.051301,0.287973,0.654912,-0.318533,-0.315747,2.969711,0.547997,-1.289095
659.000000,0.002000,-0.360752,0.266749,1.050445,-0.017830,1.411766,0.957140,0.715244,-1.124167,-3.835194
660.000000,0.002000,0.543221,-0.472865,-1.279342,0.388361,1.838700,-0.501586,-1.498112,1.903304,3.751488
661.000000,0.002000,-0.536029,-0.065133,-0.534747,1.619087,-0.248422,-1.622896,2.643917,0.626348,3.186905
662.000000,0.002000,-0.773786,-0.634749,-1.413414,0.477966,-0.079195,0.879774,2.027063,1.141217,3.482263
663.000000,0.002000,0.422220,0.162652,-1.301589,-0.085158,0.962088,0.208463,-1.035417,-0.654271,4.459354
664.000000,0.002000,0.120729,1.250173,-1.014851,0.446357,-0.822149,-1.110904,-0.237788,-3.433448,2.768008
665.000000,0.002000,1.090127,-0.485386,0.135407,-1.547584,-0.653852,-0.373490,-4.533538,2.050325,-0.732953
666.000000,0.002000,0.142376,1.179733,0.192686,0.196233,-1.551608,0.063327,-0.587364,-4.662591,-1.186884
667.000000,0.002000,-1.146876,-1.384769,-1.407796,0.137104,-0.169737,0.830625,1.641961,2.123524,2.051002
668.000000,0.002000,-1.317167,-0.198292,-0.773632,2.316643,-1.203850,1.148460,3.695632,0.521158,2.435423
669.000000,0.002000,-0.526426,-0.793392,-0.587523,-2.031790,-0.154345,1.189227,2.086358,3.350619,3.077631
670.000000,0.002000,-0.270299,0.707977,1.008350,1.153464,-0.198731,0.060658,1.047842,-2.348410,-3.662477
671.000000,0.002000,0.372548,-0.873061,0.771276,-0.119966,0.909123,0.358184,-1.365960,2.803599,-3.015809
672.000000,0.002000,0.805896,0.326204,-0.702504,0.269568,0.069449,-0.117548,-5.034505,-3.714447,1.530394
673.000000,0.002000,0.450750,0.545913,-2.746787,-1.325732,0.574375,2.060886,-0.339701,-0.485399,2.261283
674.000000,0.002000,0.475161,-1.898684,0.888525,-0.936620,0.403801,0.976422,-0.774545,3.008461,-1.524352
675.000000,0.002000,-0.287320,1.146954,-0.186857,-0.576430,-0.645823,-0.374844,0.710937,-4.428343,1.204090
676.000000,0.002000,-0.874309,-0.237132,1.012595,0.303183,-0.396183,-0.460459,2.899604,1.124333,-2.781725
677.000000,0.002000,0.266118,0.030024,0.621927,1.103348,0.791063,-0.928696,-1.696431,0.362090,-3.402590
678.000000,0.002000,-0.125747,-0.160011,1.192340,-1.701616,-0.753351,-1.328577,0.036762,0.488523,-4.311734
679.000000,0.002000,1.693092,0.714489,-0.180913,0.325853,0.338982,0.562617,-3.763366,-1.722898,0.461942
680.000000,0.002000,1.383730,1.227469,0.618139,-0.827284,-0.016342,-0.626104,-2.810758,-2.446628,-1.203037
681.000000,0.002000,-1.083984,-0.015481,-0.762608,1.018869,-0.803369,0.284143,2.578214,0.605856,3.575170
682.000000,0.002000,-0.148576,0.320564,0.210580,0.117108,0.251323,0.428894,0.850989,-1.775872,-1.407649
683.000000,0.002000,-0.349997,0.998532,-1.414539,0.716991,-1.600212,1.685794,1.042491,-2.393266,3.046520
684.000000,0.002000,0.552321,-1.876033,0.198682,-1.018865,0.252890,-0.971451,-1.426645,3.777789,-0.610256
685.000000,0.002000,-0.869365,0.731688,0.049986,0.453681,-1.009820,-0.218976,3.731381,-2.929517,-0.378555
686.000000,0.002000,0.189679,-1.285451,-0.665937,-0.384120,-0.922230,0.157621,-0.605082,4.194656,1.746998
687.000000,0.002000,0.106236,0.535246,3.077821,-0.521700,-0.267811,0.542823,-0.095399,-0.224555,-1.954264
688.000000,0.002000,0.186009,1.273417,-1.504367,-0.207257,1.235096,0.563738,-0.415337,-2.494091,2.911830
689.000000,0.002000,-1.537386,-0.335059,-0.839155,-0.734672,0.198411,2.015132,3.804222,1.337161,1.808358
690.000000,0.002000,1.670608,-0.207570,1.505100,0.698665,1.067908,0.389892,-2.308593,0.451619,-2.194405
691.000000,0.002000,1.340151,-0.296097,0.640086,-1.132444,-1.643199,0.529485,-4.110446,0.753474,-1.744428
692.000000,0.002000,0.056958,0.519058,0.529103,0.560603,-0.371299,0.008345,-0.984069,-2.342031,-3.314811
693.000000,0.002000,-0.209979,0.653913,1.727499,-0.343036,0.691551,-0.291588,1.030717,-2.225583,-1.764529
694.000000,0.002000,0.550421,0.393279,-0.189956,-1.146502,0.126886,-1.511660,-3.524101,-2.258452,1.436258
695.000000,0.002000,-0.785375,-0.732227,0.073939,1.444813,1.781796,-1.276025,3.151091,4.999422,-0.573395
696.000000,0.002000,-1.339025,-0.958896,1.613166,0.360132,-0.836808,1.437653,2.017932,1.224418,-2.320154
697.000000,0.002000,1.893037,-1.846173,1.802126,-0.223717,-0.790388,0.767816,-1.110168,1.079415,-1.064370
698.000000,0.002000,-0.137384,-0.126143,0.219903,0.500735,-0.392162,1.601571,1.738717,2.055109,-2.162052
699.000000,0.002000,1.477503,-1.302802,0.215001,1.729389,1.792141,-1.256763,-2.749891,2.535998,-0.411104
700.000000,0.002000,-1.169097,0.583481,1.798431,-0.930518,-0.026432,0.996753,1.837724,-0.852734,-2.650155
701.000000,0.002000,-0.442418,0.428107,0.834790,-2.120763,0.099665,1.755292,2.317721,-2.407632,-4.240097
702.000000,0.002000,-1.095869,1.422435,1.806436,-1.348283,-0.599609,0.299300,1.357904,-1.563280,-1.981539
703.000000,0.002000,0.228985,0.370120,-0.411157,-2.533053,1.385694,0.506974,-1.927149,-1.718982,2.906870
704.000000,0.002000,-0.733086,1.695786,1.466587,-0.424626,-0.303714,0.073214,1.100529,-2.263100,-1.893421
705.000000,0.002000,-0.640567,-1.602423,-2.545101,-2.853354,-0.003733,1.610113,0.497574,1.106742,1.712681
706.000000,0.002000,-0.836346,-0.099386,1.208682,1.536912,0.190474,-1.284450,2.719234,0.489038,-3.660661
707.000000,0.002000,-0.579234,0.229908,1.054003,0.538083,-1.468834,-1.638885,1.977359,-0.537963,-4.412699
708.000000,0.002000,0.121720,0.035227,-1.152940,-0.075375,0.840679,1.168702,-0.453365,-0.544477,4.583179
709.000000,0.002000,-1.744769,0.455896,-0.621492,-2.346608,0.075084,-1.974108,3.532314,-1.038773,1.291914
710.000000,0.002000,0.408477,-0.038828,0.359941,1.231893,0.059761,-1.783012,-2.241768,0.412445,-2.469118
711.000000,0.002000,-0.866965,-0.500406,2.103399,-0.297578,-0.762228,0.737994,1.051301,0.635664,-2.869634
712.000000,0.002000,-0.703084,-0.404749,-0.719904,0.810303,-0.470518,-0.334754,2.759302,1.625382,3.186033
713.000000,0.002000,0.340930,0.560611,-0.172492,-0.689692,-2.640720,1.827334,-1.436513,-3.250803,1.461114
714.000000,0.002000,-0.037563,-0.393358,0.481319,2.075667,-0.404904,-0.515058,1.171104,3.189024,-3.732747
715.000000,0.002000,-0.443896,-0.543386,-2.490302,1.531937,-0.786046,-0.329028,0.457091,0.593826,2.655896
716.000000,0.002000,-1.357423,0.050860,0.923355,0.474536,0.840550,-0.099024,3.554523,-0.064647,-2.415448
717.000000,0.002000,0.119594,-0.885039,-1.277194,-0.902387,1.318794,0.960231,-0.149348,2.295154,3.784285
718.000000,0.002000,0.200595,-1.463327,1.342314,0.065555,1.201327,1.147206,-0.435787,2.563268,-2.760685
719.000000,0.002000,0.124220,-1.612306,-1.150461,0.279102,0.285299,-0.694193,-0.245496,3.115146,2.307422
720.000000,0.002000,-0.538179,-0.747272,-1.428501,1.028110,0.301213,0.684304,1.185614,1.884075,3.533280
721.000000,0.002000,-0.625666,-0.824403,-0.628533,1.523282,-0.436783,0.648457,2.900066,3.090382,2.603135
722.000000,0.002000,0.842115,0.344963,-0.808023,-1.766925,1.104700,1.226082,-3.432030,-1.510805,3.640002
723.000000,0.002000,-0.354700,-1.113874,-0.294601,0.062994,-0.691831,0.110626,1.605473,5.464602,1.277176
724.000000,0.002000,0.729607,0.310539,2.002641,-0.847035,0.253893,-1.709522,-1.236458,-0.489395,-3.203353
725.000000,0.002000,0.430251,-0.703548,0.628051,0.072281,1.328057,-1.252824,-3.080960,3.798791,-3.645405
726.000000,0.002000,0.971309,1.334964,-1.382949,-0.723290,0.982878,-1.213922,-1.562433,-2.127488,2.450458
727.000000,0.002000,-0.180654,1.164018,-1.540686,-0.134748,-0.025424,1.042338,0.565579,-1.836454,3.615032
728.000000,0.002000,-0.730849,-1.172477,-0.801557,-0.996536,1.562162,0.877047,2.217918,3.037176,2.202278
729.000000,0.002000,-1.005403,1.174884,-0.264336,0.314854,-0.704591,-0.105673,3.062867,-3.455401,0.432402
730.000000,0.002000,-0.961477,-0.789165,0.355090,-0.194917,1.556321,0.930309,3.832524,3.473887,-1.410278
731.000000,0.002000,-0.185300,1.111259,0.327329,-0.785153,-1.613119,-1.023732,0.601352,-4.611434,-1.478501
732.000000,0.002000,-1.534988,-0.452705,0.884558,-0.227526,1.010601,-1.116943,3.307524,1.155749,-1.891538
733.000000,0.002000,-0.492376,1.525058,-0.959203,0.733244,-1.332800,0.904218,0.847977,-3.176829,2.144884
734.000000,0.002000,0.350225,-0.736017,-0.701541,-1.249915,0.940385,-0.745471,-0.553632,3.269451,2.978237
735.000000,0.002000,1.119138,-0.263226,0.869798,-0.220679,-0.597614,0.015326,-3.436613,0.911479,-2.831550
736.000000,0.002000,0.041525,0.733828,-0.583892,-2.183673,-0.412125,1.828067,0.308427,-3.502135,2.956686
737.000000,0.002000,-0.315606,-0.030246,-0.847215,-0.341264,-2.365894,0.430008,1.635845,-0.133993,3.922213
738.000000,0.002000,1.684113,-0.489336,-0.572697,-0.064988,1.587498,-1.249396,-3.765327,1.261908,1.377995
739.000000,0.002000,-1.006372,-1.859748,1.519679,0.089255,1.600535,-1.541493,0.963595,1.942012,-1.608891
740.000000,0.002000,-0.302337,-0.286525,-0.549831,-0.308566,0.974992,-1.461008,1.997903,0.804117,3.256329
741.000000,0.002000,1.541541,-0.944039,0.314579,0.276019,0.337774,-1.944615,-3.367765,2.219424,-0.822387
742.000000,0.002000,-0.331603,-0.674633,0.586736,0.586219,-0.090736,-0.197615,1.417767,3.678770,-3.280713
743.000000,0.002000,1.245394,-0.122513,-0.690102,0.905998,2.012459,0.622359,-4.052505,0.196995,2.129981
744.000000,0.002000,-1.110786,0.910333,-0.965932,0.526566,-1.183562,-1.736150,2.220618,-2.418870,2.652529
745.000000,0.002000,-1.777798,1.266207,-1.572139,0.526393,-0.847311,-0.867543,1.681676,-1.277329,1.494795
746.000000,0.002000,0.669148,0.213625,0.222618,-0.937449,0.056358,-0.452433,-4.202570,-1.634358,-1.432632
747.000000,0.002000,-0.355683,0.352458,-1.766595,1.237514,-0.152360,-0.117997,0.791970,-1.118326,3.979225
748.000000,0.002000,0.414976,1.245104,0.945071,-0.993485,-1.869964,0.067551,-1.330234,-3.140541,-2.642288
749.000000,0.002000,-1.721089,-1.142633,-0.118535,1.797247,-0.614885,0.387152,3.295414,1.934806,0.485226
750.000000,0.002000,0.235007,-0.099793,-0.590228,-1.409140,0.056132,-0.190032,-1.848309,-0.116616,3.030885
751.000000,0.002000,0.509343,1.286655,-0.081191,-0.621261,0.218007,0.809440,-1.952476,-4.358506,0.186614
752.000000,0.002000,0.952449,-2.673582,-1.069662,1.050979,-0.277194,-0.588792,-0.680042,1.858539,0.709993
753.000000,0.002000,-0.378536,-0.208498,0.330592,-0.161188,1.523561,-0.169678,1.116654,0.457861,-1.778729
754.000000,0.002000,0.575583,0.432150,-0.568652,-2.459223,-0.611356,0.519380,-2.320744,-2.103302,2.673169
755.000000,0.002000,-1.730986,0.720760,-1.635449,-0.854404,0.743984,1.218772,1.935901,-0.748913,1.974392
756.000000,0.002000,0.490404,-0.571288,-1.175756,-0.923027,-1.807582,0.328900,-1.393725,2.159134,4.122361
757.000000,0.002000,0.133345,0.265290,0.054022,-0.879405,1.198162,0.428422,-0.614438,-1.459580,-0.783562
758.000000,0.002000,-0.114796,0.361818,0.770087,-0.115382,-0.412401,-1.186243,0.121790,-1.433630,-4.902360
759.000000,0.002000,0.651703,0.827811,0.117229,0.468572,-1.293712,0.780566,-5.695378,-6.788024,-0.452259
760.000000,0.002000,1.586436,0.649322,-0.529882,-0.519420,0.256086,0.201083,-3.638231,-1.543569,1.214119
761.000000,0.002000,-0.912161,0.084626,-1.444947,1.132578,-0.656968,-0.359221,2.169340,-0.454304,3.465577
762.000000,0.002000,-0.822213,0.044074,-0.426954,1.097906,-1.037389,1.156705,3.445155,-0.225641,2.606032
763.000000,0.002000,-1.192005,0.133417,0.136009,-0.843584,0.811819,0.137090,5.289911,-1.012400,-1.468652
764.000000,0.002000,-0.082834,-0.520449,0.713315,0.655539,-0.499316,-1.041616,0.152879,2.679491,-3.553266
765.000000,0.002000,0.181513,-0.268689,2.406552,-0.840315,-0.191788,-0.571833,-0.297346,0.370675,-2.898234
766.000000,0.002000,0.218730,0.796955,-0.620534,0.083292,-2.003721,-0.019679,-0.520176,-3.871265,2.883729
767.000000,0.002000,-1.287611,-0.800882,-0.187041,0.755757,0.184821,0.475057,3.889624,2.278350,0.738282
768.000000,0.002000,-0.264499,1.297128,-0.333888,1.257156,-0.639000,-0.970810,0.699092,-4.476151,1.581862
769.000000,0.002000,0.491433,0.113547,-0.206576,-0.087932,0.793516,1.298121,-2.768903,-0.415569,3.171402
770.000000,0.002000,0.333894,1.929793,-0.886702,1.419959,0.800944,-0.472763,-2.858468,-1.116411,-0.382223
771.000000,0.002000,0.996804,-1.001306,-0.639530,0.886638,0.451851,-0.713413,-2.912735,3.069533,1.809231
772.000000,0.002000,0.052674,0.327275,1.447937,0.215586,-0.082152,-0.584367,-0.408271,-0.933530,-4.141923
773.000000,0.002000,0.170497,-0.897912,0.439803,1.019924,0.117762,-1.316318,-1.006889,3.752822,-2.169113
774.000000,0.002000,-0.284297,0.364205,0.091247,0.541730,0.433578,0.980269,1.868633,-2.275034,-0.503521
775.000000,0.002000,-1.642664,0.674988,0.395324,1.842309,0.688194,-1.050396,3.519980,-1.666476,-0.865779
776.000000,0.002000,0.999412,1.398453,-1.305187,0.216056,-2.248131,-0.357903,-1.684351,-2.519344,2.041413
777.000000,0.002000,0.150838,0.393766,-0.286848,-1.969496,-0.265619,0.877371,-0.526265,-2.367107,1.950822
778.000000,0.002000,0.365402,0.599354,-1.009906,-0.275154,0.301903,1.432872,-1.107913,-2.341631,3.863079
779.000000,0.002000,0.296377,-0.794636,-0.507657,0.123292,0.995855,0.915359,-0.660494,4.189439,2.598306
780.000000,0.002000,-1.571393,-0.232288,-0.026682,1.406870,1.335265,0.914394,3.460153,1.196661,0.404282
781.000000,0.002000,0.766736,0.193567,-1.425501,0.926274,0.920174,0.988244,-1.668575,-0.602880,4.012841
782.000000,0.002000,0.814552,-0.264348,0.812031,-0.562783,-0.603768,1.301894,-3.085916,1.353925,-3.241138
783.000000,0.002000,0.825692,1.302805,2.021368,-0.795856,-0.744814,0.088684,-0.964873,-1.475367,-2.239942
784.000000,0.002000,-0.089079,0.442959,-0.810570,-0.038670,0.433502,1.724688,0.698351,-2.209558,4.010923
785.000000,0.002000,0.989775,-0.644671,-1.569666,-0.545184,2.831436,1.470004,-2.063468,1.082099,3.181275
786.000000,0.002000,0.529450,-0.393372,0.963180,-1.745878,0.813641,0.577416,-2.258971,1.626218,-3.850549
787.000000,0.002000,0.522786,-1.694116,-2.748487,0.545029,-0.223440,0.016064,-0.296608,0.961104,1.569496
788.000000,0.002000,-1.028698,0.276884,-0.893177,0.627088,1.219956,1.943937,3.079728,-1.207291,3.106511
789.000000,0.002000,-0.452832,-1.114880,0.142688,1.208000,2.116909,-0.243592,2.252534,3.284918,-1.381212
790.000000,0.002000,-0.057858,-0.281706,0.998304,-0.781909,1.151484,-2.465227,-0.178862,1.342155,-4.500310
791.000000,0.002000,1.411982,0.305425,-1.653652,-0.637746,-1.357380,0.973465,-2.216372,-0.531961,2.567161
792.000000,0.002000,-1.375392,0.163871,-0.577038,-0.958683,-1.305631,0.462898,4.239838,-0.482343,1.913766
793.000000,0.002000,-0.553143,1.172768,0.488579,-0.173125,0.957410,-0.279360,1.799475,-4.314612,-1.458370
794.000000,0.002000,0.935875,-0.203257,1.396180,-2.107150,1.212120,-0.248522,-2.262130,0.722301,-3.729244
795.000000,0.002000,-0.712048,1.354633,0.093074,-0.606286,-1.123887,-0.096230,2.198961,-4.072710,-0.183333
796.000000,0.002000,-1.290106,-1.827701,-0.266425,-1.970953,-0.683367,0.269748,1.780560,5.406741,3.241595
797.000000,0.002000,-0.562064,0.615902,-0.132843,-1.289757,-1.532943,-0.072104,4.026416,-2.565839,1.339169
798.000000,0.002000,-0.923527,0.968484,0.156843,-2.193883,-0.929160,1.908187,2.945420,-2.745643,1.140564
799.000000,0.002000,-0.449766,0.330045,-0.289445,0.855401,-1.466916,1.251112,2.217919,-3.041844,2.141884
800.000000,0.002000,0.472683,-0.658187,-0.252239,-1.185049,0.075242,0.003186,-1.996981,4.189840,1.252095
801.000000,0.002000,-0.202225,-0.294415,0.088579,-1.678033,0.610501,0.413673,1.632937,1.912862,-1.238102
802.000000,0.002000,1.059351,0.380895,0.667550,0.802379,-0.311393,0.745671,-5.266319,-0.987120,-2.351463
803.000000,0.002000,-0.397387,0.714797,0.352784,1.414406,-1.015779,-1.792916,2.510075,-4.127713,-2.479980
804.000000,0.002000,0.683623,-0.405716,-0.504241,-1.989441,1.815760,-1.498987,-3.312720,1.470955,2.307372
805.000000,0.002000,0.515251,-0.590745,-0.166106,-0.825464,0.405137,0.329818,-2.566834,3.244489,0.449649
806.000000,0.002000,1.594785,1.910771,1.011801,-1.801087,-0.371806,-1.234193,-1.503005,-1.820401,-0.982038
807.000000,0.002000,1.069445,-1.064613,0.608691,0.383322,0.057084,0.318174,-2.803532,2.774906,-1.631687
808.000000,0.002000,-0.067771,-0.984281,-0.659012,1.530251,0.747120,-0.520307,1.124634,5.111460,3.802282
809.000000,0.002000,0.268631,-0.254257,-0.666640,0.647357,1.582930,-0.287641,-1.459849,0.802445,3.149439
810.000000,0.002000,0.576829,-0.027168,0.265526,-1.411836,-0.836178,-0.005277,-3.837885,0.390876,-2.188820
811.000000,0.002000,-0.165387,-1.117909,-1.345174,-1.350705,-1.947052,0.463561,0.400608,2.851794,3.293570
812.000000,0.002000,0.263580,-0.481001,-1.769546,-0.295169,0.199020,1.577213,-0.584944,0.740018,4.047160
813.000000,0.002000,-0.429048,-1.033038,0.828377,-0.035898,0.626303,0.397600,1.566627,3.312136,-2.793508
814.000000,0.002000,0.078967,0.838561,-0.704775,-2.291786,1.431429,0.103316,-0.319902,-3.493639,2.999503
815.000000,0.002000,0.857613,0.262070,-0.583476,0.292905,-0.401718,-0.673262,-3.628737,-0.971339,2.086748
816.000000,0.002000,-0.623670,0.635032,-0.594069,-0.641564,-1.567840,-0.345426,2.532549,-2.728311,2.924519
817.000000,0.002000,0.557286,0.941880,1.779571,1.187878,-0.621134,-0.938898,-0.996131,-1.566314,-2.963669
818.000000,0.002000,1.386197,0.884982,-1.454659,-1.613825,-0.195200,0.471522,-2.285018,-1.281303,2.347056
819.000000,0.002000,-0.545290,-0.809075,1.454960,0.878398,-1.126079,-1.363101,0.860779,2.300647,-3.523983
820.000000,0.002000,-0.520065,0.206287,0.180415,1.216881,-1.018901,0.291505,3.213955,-0.765821,-1.038164
821.000000,0.002000,-1.023568,0.173746,0.299550,-0.119379,-1.199999,-0.633159,3.068444,0.432787,-3.553757
822.000000,0.002000,-1.190699,1.448664,-1.704864,0.451534,0.986689,2.099514,1.323113,-1.561309,1.928845
823.000000,0.002000,-0.427285,1.109135,-1.019909,0.975232,0.388857,1.162645,3.006962,-3.374086,3.405200
824.000000,0.002000,0.357619,-1.190062,-0.007177,-0.073812,0.955097,0.457538,-1.665681,4.555503,0.012535
825.000000,0.002000,-2.169332,-0.530165,-1.652189,0.914781,1.613498,-0.404968,1.958521,0.436779,1.513152
826.000000,0.002000,-0.139026,-0.329385,-1.005686,1.404677,0.517025,-1.322166,0.767830,0.612333,4.102334
827.000000,0.002000,0.638286,-0.753888,0.552462,-1.074433,0.944056,-0.644853,-3.038622,2.912502,-2.551761
828.000000,0.002000,1.982185,0.003316,-1.012877,1.461840,-0.692768,-0.614505,-2.959188,-0.106545,1.484339
829.000000,0.002000,-1.201841,-0.415005,0.486198,0.599252,1.630779,-1.238429,3.796830,1.278983,-1.513255
830.000000,0.002000,0.123516,1.022529,0.729567,-0.230464,0.091206,-0.477194,-0.524272,-3.462476,-2.919240
831.000000,0.002000,-0.044699,0.331686,1.727369,-0.923538,-0.776814,-1.031913,0.087406,-0.654239,-4.395381
832.000000,0.002000,1.446331,-0.348848,1.144653,-0.151991,-0.159102,0.515456,-3.134947,0.785972,-2.573300
833.000000,0.002000,0.498114,0.692320,0.810284,-0.649911,-2.519651,0.410787,-2.755773,-3.371052,-3.062488
834.000000,0.002000,-0.895841,-1.344085,0.282990,0.607484,1.700363,-1.524993,2.276547,3.554200,-0.697239
835.000000,0.002000,2.144620,-0.759033,0.124554,0.891462,0.195857,1.565288,-2.967333,0.975079,-0.209669
836.000000,0.002000,-1.148160,1.336079,-2.511636,-0.480579,0.700678,-0.855180,0.786779,-0.862897,1.676689
837.000000,0.002000,-1.986048,0.712982,0.366306,1.682699,1.587877,2.203697,3.286561,-1.586318,-0.550114
838.000000,0.002000,-0.423595,-0.558565,0.482937,0.440471,-1.092495,-0.565506,1.123967,2.259394,-2.499597
839.000000,0.002000,-0.542513,-1.082162,-0.636656,-0.471388,0.412542,1.667283,2.151716,3.554616,1.858220
840.000000,0.002000,1.185938,-0.416483,-1.881600,1.289585,0.614794,-2.186708,-1.788357,0.637341,2.738250
841.000000,0.002000,0.487209,0.867591,1.183283,1.793625,1.600269,-1.092287,-1.473722,-2.520004,-3.472123
842.000000,0.002000,-0.293650,-0.589544,0.664250,-2.513638,0.591707,0.687568,1.019168,2.436394,-3.157196
843.000000,0.002000,0.924070,0.052686,0.092669,0.510479,0.476722,0.659715,-5.423639,0.114874,-1.112878
844.000000,0.002000,-0.041486,0.206670,0.815243,-1.550609,1.350258,2.466213,-0.013304,-0.710629,-4.460035
845.000000,0.002000,-0.912974,-1.106634,-0.614856,0.824649,0.523452,1.277742,3.032868,3.242281,1.644083
846.000000,0.002000,0.519265,0.051061,0.689146,-0.845513,-1.017976,-2.131493,-2.279706,0.432461,-3.903883
847.000000,0.002000,-0.131168,-1.105135,1.199798,0.312351,0.479828,-0.030128,0.201547,2.880953,-3.193836
848.000000,0.002000,0.258566,1.334728,0.528590,1.320564,-0.159879,-0.538316,-0.929352,-4.274767,-2.055808
849.000000,0.002000,1.921868,0.352110,0.933883,-1.628325,2.834138,0.030125,-3.121502,-0.438086,-1.576339
850.000000,0.002000,0.830835,-0.650365,-0.585060,-0.684260,-0.255959,-1.884083,-4.121719,2.355051,2.611159
851.000000,0.002000,-1.445070,-1.329146,0.299146,0.350408,1.358730,0.823445,2.838074,2.758130,-0.482080
852.000000,0.002000,0.676131,0.735422,-0.041142,-0.940780,0.188560,-1.916905,-3.874752,-3.038106,0.338389
853.000000,0.002000,0.609849,-0.384056,-0.223578,-1.593376,1.209538,0.407969,-3.217597,1.662576,1.786571
854.000000,0.002000,0.819724,0.548860,-0.251109,0.049739,0.362117,-0.101722,-3.955335,-2.440881,0.975538
855.000000,0.002000,1.088292,-1.163721,-0.672556,-1.436166,0.922324,-0.642023,-3.007717,2.804315,0.760842
856.000000,0.002000,-0.392369,0.982432,0.084533,-0.392639,0.406618,0.393242,1.633746,-4.663739,-0.282128
857.000000,0.002000,-1.410042,0.272831,1.066459,-0.386046,-1.321274,-0.335169,3.164407,-0.826373,-2.651242
858.000000,0.002000,1.022625,0.493761,-1.618296,1.240137,-0.721527,1.602005,-2.060118,-0.874970,3.225393
859.000000,0.002000,-0.674457,0.360366,-0.346288,1.429065,-0.827688,-1.263945,3.245687,-2.088044,2.773978
860.000000,0.002000,0.349903,-1.201191,-0.152321,-1.019188,0.713736,-0.371613,-1.902599,3.577027,1.931606
861.000000,0.002000,-1.352561,-2.222148,0.370748,0.309515,-1.101954,0.339672,1.366456,2.339481,-0.279881
862.000000,0.002000,0.876629,0.164346,-0.328146,-0.211215,-0.558664,-1.376691,-4.355295,-1.410639,1.851779
863.000000,0.002000,-1.582132,1.105558,-0.186085,0.225578,0.296925,-0.691253,3.141093,-1.626392,0.447168
864.000000,0.002000,2.020885,0.697412,-2.321579,0.177601,-1.275275,-1.438426,-1.226454,-0.434727,1.422950
865.000000,0.002000,1.049632,-1.309652,-1.124635,1.285061,0.719148,-1.634368,-2.017209,2.760538,1.840054
866.000000,0.002000,0.215022,-0.298106,0.020086,2.296820,-0.880276,-1.988531,-0.619773,2.049060,-0.698687
867.000000,0.002000,-1.169682,-1.119732,0.275146,-0.467589,0.424116,-1.729359,2.940194,2.876226,-0.745294
868.000000,0.002000,-0.224279,0.267288,-2.164973,-1.038007,0.414432,0.486108,0.249646,-0.544290,3.450537
869.000000,0.002000,0.038769,-0.731235,-0.803740,1.062654,1.076428,0.931873,-0.981192,2.935601,4.298380
870.000000,0.002000,1.079279,-0.672928,-0.826149,0.523710,2.344588,1.555174,-3.842569,2.262323,2.664079
871.000000,0.002000,-0.270728,0.280019,-1.289556,0.402515,-1.014627,-1.614001,0.834322,-1.225301,4.329426
872.000000,0.002000,1.576431,1.389921,-0.990407,1.499487,-0.503987,-0.403789,-2.103705,-1.857673,1.446069
873.000000,0.002000,-0.594775,-0.769571,-1.528486,-1.649361,0.223257,1.169589,1.183776,1.897451,3.861415
874.000000,0.002000,0.471113,0.686728,1.709152,0.751628,-0.366645,-1.846073,-1.158131,-1.385694,-3.456717
875.000000,0.002000,-0.923386,1.442197,1.194414,0.047109,0.274951,-0.950168,1.737556,-2.580137,-2.057861
876.000000,0.002000,-0.412740,0.633914,0.901079,-2.974451,-0.112470,-0.199010,1.721747,-2.354704,-3.641489
877.000000,0.002000,1.892108,0.336736,-0.127837,-0.789874,-0.798370,-0.336287,-3.910369,-0.921717,0.300740
878.000000,0.002000,-0.908308,0.132301,0.977280,0.071144,-0.914725,-0.571386,3.074003,-0.427974,-3.527100
879.000000,0.002000,-0.068235,-0.844748,0.039405,-1.662582,0.097164,-0.303724,0.564899,5.039865,-0.995615
880.000000,0.002000,-0.370921,0.326497,-1.623149,-1.134627,0.223280,0.569681,0.994336,-0.848984,3.723047
881.000000,0.002000,0.439804,0.732705,0.579438,-0.828408,0.337644,0.443436,-4.348354,-4.201181,-2.698787
882.000000,0.002000,-0.077477,-2.067157,-0.218669,-0.310824,-0.935854,-0.974057,0.863134,4.454467,0.139439
883.000000,0.002000,1.188146,-0.574846,-1.949717,0.483917,1.510277,0.458071,-1.624264,0.784671,2.640697
884.000000,0.002000,-1.494551,0.636591,0.459849,0.603568,1.473346,0.325933,3.864561,-1.500043,-1.137599
885.000000,0.002000,0.561767,-0.257443,-1.645072,-1.783672,-0.989422,-0.343780,-1.369810,0.292528,4.062286
886.000000,0.002000,-0.786918,0.767409,0.378213,0.460544,-0.537094,1.054165,3.337571,-3.002016,-1.817091
887.000000,0.002000,0.469023,0.097796,-0.331018,-1.154507,-1.791626,-0.395285,-2.958352,0.503126,4.149234
888.000000,0.002000,-0.079567,1.648364,0.436568,0.538435,-1.413567,0.016704,0.755407,-2.079318,-0.385548
889.000000,0.002000,0.030352,0.389504,0.051943,0.790814,-0.544135,-0.938639,-0.407738,-2.278740,-0.788903
890.000000,0.002000,-2.250942,0.688872,1.613516,-0.283209,0.140122,-1.169470,1.904494,-0.571761,-1.296372
891.000000,0.002000,-0.852355,1.140288,-0.412809,-0.108496,-1.914616,-0.709334,2.446216,-3.588979,1.151556
892.000000,0.002000,0.210451,0.983410,-0.288195,-0.503576,-0.824296,2.364062,-0.812023,-4.824384,1.788110
893.000000,0.002000,1.213009,-1.043546,-1.037838,-0.384516,1.043409,-0.631099,-2.564311,2.117458,2.035966
894.000000,0.002000,-0.406916,0.667007,-0.020575,1.096527,-0.265474,1.646797,1.241292,-3.746223,0.293951
895.000000,0.002000,-1.544188,-0.420221,-0.949136,0.210728,-0.917371,-0.651016,2.976756,0.641162,1.668524
896.000000,0.002000,0.419969,-0.367997,0.282768,-1.837076,0.045789,0.867904,-2.379308,2.222341,-2.434953
897.000000,0.002000,-0.278454,0.492509,-0.279821,0.804607,-0.045393,-0.252201,2.763667,-2.528876,2.361874
898.000000,0.002000,0.400230,-2.272904,-0.295076,0.324658,1.894551,-1.937867,-0.626341,3.048516,0.472694
899.000000,0.002000,0.159935,0.066267,0.645906,-1.420977,1.296214,-0.471336,-0.914497,-0.062350,-3.619309
900.000000,0.002000,0.559957,1.271154,0.179573,-1.113085,-0.542752,0.312275,-2.901353,-3.176568,-0.227801
901.000000,0.002000,-2.027507,-2.209662,-1.605177,-0.467457,0.492967,0.065549,1.025745,1.121063,0.817731
902.000000,0.002000,0.274488,-0.038530,0.227469,1.438554,0.671704,-0.389627,-2.793095,0.311731,-2.861722
903.000000,0.002000,-0.608108,-0.654114,0.555452,0.368894,0.736893,-0.268005,2.730301,2.413527,-3.148883
904.000000,0.002000,0.695266,-0.445537,-0.000868,-0.129311,-0.768517,0.167220,-3.585479,2.320370,-0.124322
905.000000,0.002000,0.228922,0.494831,-1.229047,-0.963682,-0.205302,0.004077,-0.783496,-1.631699,4.419231
906.000000,0.002000,-0.488093,-1.063606,-0.282223,1.364526,1.246623,1.263948,2.231554,4.541167,1.194280
907.000000,0.002000,0.764900,0.554648,-0.969663,-0.473287,-0.196660,0.975763,-1.999338,-2.734884,3.376945
908.000000,0.002000,0.698394,-0.088658,-0.386224,0.685240,-0.862928,0.758739,-3.279241,1.242221,2.683488
909.000000,0.002000,-1.421902,-0.132503,0.755183,0.281412,0.254823,0.200292,3.568162,0.379994,-1.735885
910.000000,0.002000,-2.270944,-0.192360,2.560970,-0.418227,1.031133,1.401398,1.139328,0.076992,-1.291708
911.000000,0.002000,0.845555,0.340210,-0.623141,0.456562,0.242464,0.835111,-3.743928,-2.035367,2.145852
912.000000,0.002000,-0.721142,-0.245925,1.794041,-0.081577,-0.763383,0.592388,1.760200,-0.128324,-3.732339
913.000000,0.002000,0.072486,-0.921141,1.295843,-2.051655,-0.065790,0.208271,0.027090,2.570486,-3.768229
914.000000,0.002000,-0.166676,0.821227,-0.754579,0.715647,-4.743180,-0.675197,1.165412,-3.529883,3.430574
915.000000,0.002000,-0.862992,0.028776,0.903027,1.004907,-0.723820,-0.712157,3.425662,-0.081589,-3.152799
916.000000,0.002000,1.210796,0.030588,-1.236291,0.556159,-0.668834,-0.909850,-3.116785,0.027855,3.010778
917.000000,0.002000,-0.027648,-2.089104,-1.267603,2.412462,-0.076360,-1.633742,-0.322125,2.825097,1.752340
918.000000,0.002000,-0.330726,0.461711,-0.226134,-0.586362,0.164248,0.829900,2.443355,-2.744907,2.554011
919.000000,0.002000,-0.450465,-0.247051,0.649045,-1.933518,0.805912,-0.824057,5.801656,-8.094439,-3.960690
920.000000,0.002000,-0.816976,1.024519,1.758893,0.534414,0.786952,-1.286074,1.388858,-1.635585,-2.751483
921.000000,0.002000,0.525724,-0.636979,-0.339708,-0.052180,-0.306874,1.075850,-2.655984,3.701908,1.200032
922.000000,0.002000,1.042903,-0.681459,-0.926808,-1.142075,2.451770,0.385387,-3.319720,2.117003,2.880488
923.000000,0.002000,-0.652093,-1.325413,-1.266476,2.725453,0.023047,-0.880155,1.295417,2.676163,2.360322
924.000000,0.002000,0.319685,1.266161,-0.694736,-2.472435,0.465518,0.269900,-0.900469,-3.868469,2.485995
925.000000,0.002000,0.426402,0.648067,0.444431,0.827848,-0.958014,1.579104,-3.063323,-3.396102,-2.597611
926.000000,0.002000,-0.947305,-1.536152,1.292954,0.191225,-0.079377,1.242693,1.516934,2.508400,-1.792792
927.000000,0.002000,0.421386,0.715755,-1.181476,-0.504455,0.532795,-0.013671,-1.309590,-1.638741,4.034967
928.000000,0.002000,0.304934,0.701213,0.428350,0.172176,-0.032016,0.327459,-2.081257,-4.055666,-2.596490
929.000000,0.002000,-0.534669,1.395884,-1.502049,1.153988,1.708345,0.367090,0.845845,-2.201403,2.353745
930.000000,0.002000,0.758693,1.423475,1.501604,-0.994619,1.505943,-0.588293,-1.231831,-2.185694,-2.266070
931.000000,0.002000,-0.156073,-1.189666,0.745172,1.010492,-0.570054,-0.522754,0.427335,3.892951,-2.757765
932.000000,0.002000,-0.993635,0.199828,-0.235495,-1.042053,0.707456,0.556144,4.498263,-1.534248,1.135243
933.000000,0.002000,-0.941914,0.358381,-1.221849,0.022115,0.063161,1.191357,2.209596,-1.379671,3.427923
934.000000,0.002000,0.722699,-0.854697,-1.669801,0.519129,0.721876,0.650053,-1.447545,1.601959,3.446974
935.000000,0.002000,-0.141684,0.404138,0.637012,-0.381257,-0.278189,-0.032981,1.068715,-1.518954,-3.145263
936.000000,0.002000,0.849816,-2.256707,-0.996714,0.072159,0.717644,0.138239,-0.878919,2.364005,1.004556
937.000000,0.002000,0.163099,1.456065,0.753069,0.237465,-0.660878,-0.322527,-0.472164,-3.876645,-2.016516
938.000000,0.002000,2.063007,-0.292155,0.300988,0.461734,1.227535,0.068145,-3.399152,0.396128,-0.654497
939.000000,0.002000,-0.885543,-0.477260,-0.727402,1.405848,-0.211389,0.305181,3.788669,1.725193,2.819558
940.000000,0.002000,-0.688496,-0.431640,0.236948,0.016279,-0.024113,1.110815,2.383171,1.328055,-2.048183
941.000000,0.002000,-0.196202,-0.211236,-0.017298,-0.951556,-3.763232,-0.813305,1.714819,1.237798,0.055261
942.000000,0.002000,0.097877,-0.395457,-0.088796,2.193216,0.874259,1.178847,-1.485818,2.219091,0.614627
943.000000,0.002000,-0.286548,0.643683,0.910436,0.941460,0.558959,-0.150685,0.905516,-2.330760,-3.625127
944.000000,0.002000,1.119127,-0.547758,0.718650,-1.109685,1.455935,1.050610,-3.448878,2.013730,-2.143064
945.000000,0.002000,-1.095400,0.585773,1.284510,1.772404,0.948549,0.730693,4.344315,-0.907462,-3.522755
946.000000,0.002000,-0.111186,1.159201,-1.409170,0.250672,0.171635,-1.058948,-0.368956,-2.418647,2.945304
947.000000,0.002000,-1.045723,0.088643,0.515515,-0.433939,1.140243,-2.762730,4.291520,-0.080135,-1.710314
948.000000,0.002000,-0.131975,-0.206870,-0.842459,1.606487,1.330960,1.099939,2.073203,-0.082422,4.420872
949.000000,0.002000,0.273360,1.131961,0.514581,0.281449,-0.986697,-1.205077,-1.759033,-4.692099,-2.567047
950.000000,0.002000,0.822815,-0.187506,-0.902149,0.310191,0.189247,-1.385807,-1.384672,-0.920674,3.744386
951.000000,0.002000,0.223137,-0.101573,-0.276165,-2.489276,-0.325239,-0.293494,-1.399291,0.641796,3.370209
952.000000,0.002000,0.967067,-0.027226,-0.818450,-0.070597,0.828920,0.388548,-4.533721,0.072713,3.060318
953.000000,0.002000,0.703465,-0.104591,-0.852271,-1.324805,-0.922747,1.285844,-3.123224,0.821604,3.934398
954.000000,0.002000,-1.010623,0.391375,2.278465,0.619551,1.456897,-0.552869,1.054130,-0.328411,-2.655448
955.000000,0.002000,-0.871171,-0.271653,1.084455,-2.178300,0.433436,-2.555867,2.781078,1.450224,-3.485339
956.000000,0.002000,0.299006,-1.203018,-1.353075,1.758474,1.505706,1.401970,-0.241529,2.968581,3.352194
957.000000,0.002000,1.240690,0.538460,1.246333,-0.162053,-0.758915,1.866630,-2.266210,0.493713,-4.817913
958.000000,0.002000,0.270212,-0.408714,-0.250329,1.535710,1.821485,-0.071469,-0.880119,2.824058,0.942979
959.000000,0.002000,-0.172907,-0.865690,0.478022,-1.454785,0.201223,-0.701191,1.078754,3.828311,-2.262793
960.000000,0.002000,-0.937688,-0.332791,-0.049070,2.045965,0.139930,0.806392,4.587925,1.489175,0.430595
961.000000,0.002000,-0.865298,-2.367699,0.353241,-0.791816,-0.542050,-0.475660,1.166156,2.787684,-0.259414
962.000000,0.002000,-0.841432,1.344005,-0.410486,-0.196256,-0.289716,-0.227255,2.535325,-3.430399,0.727902
963.000000,0.002000,-0.479399,0.271267,0.656886,0.531109,0.840956,-2.320528,2.043489,-0.773730,-2.953419
964.000000,0.002000,-0.551845,0.653789,1.424648,0.181822,-1.971745,-0.447342,1.524780,-1.500130,-3.700796
965.000000,0.002000,0.983472,1.502337,1.363180,-0.177173,-0.838639,0.158467,-1.462889,-2.185220,-1.990705
966.000000,0.002000,1.110524,1.563147,0.224711,-2.250394,-0.494787,0.034771,-2.243895,-3.230713,-0.588681
967.000000,0.002000,-0.246418,-2.196387,-1.682555,0.949774,0.539241,-1.654078,0.248932,2.005810,1.519634
968.000000,0.002000,-0.505153,-0.102180,0.144184,0.003992,1.544643,1.396312,4.112421,0.796005,-2.674223
969.000000,0.002000,-1.065106,-1.725531,0.043127,-0.127293,-0.351415,0.888142,2.323432,2.839615,0.403409
970.000000,0.002000,-0.278976,-0.701863,-0.667270,-0.329178,0.798279,0.710658,1.754433,2.515587,3.936670
971.000000,0.002000,-1.090079,-0.285663,-0.763178,-0.414481,0.638292,0.748669,3.672844,0.712214,3.096098
972.000000,0.002000,0.899159,0.287627,-1.179399,-2.132609,0.166907,-0.711600,-2.770768,-0.794801,3.667339
973.000000,0.002000,-0.323752,-1.479089,1.073831,-0.191395,-1.187269,0.051098,0.349645,2.948446,-2.630566
974.000000,0.002000,1.445392,0.698183,-0.923123,0.017961,-2.937628,1.304431,-3.239558,-1.589008,2.236572
975.000000,0.002000,0.061921,-0.488380,0.425884,0.748161,-0.205055,-0.953139,-0.093394,2.589665,-2.881083
976.000000,0.002000,-0.756368,-0.240268,-0.110511,1.614425,2.345897,1.582675,4.334114,1.515244,0.492127
977.000000,0.002000,0.033777,0.334197,-0.513118,-0.594856,-1.993466,-0.623469,1.100178,-2.365574,3.822521
978.000000,0.002000,0.464976,0.555689,-0.543649,-1.257072,-1.597069,-1.449802,-2.191720,-2.769357,2.238101
979.000000,0.002000,-1.251557,-1.195869,0.510852,0.211570,0.156551,-0.521631,1.957230,4.272634,-0.987992
980.000000,0.002000,-0.588559,-1.845885,0.243754,-0.454586,-0.310924,-1.918739,1.141096,3.605446,-0.475511
981.000000,0.002000,0.068922,-1.367248,1.157626,-0.322857,0.487286,-0.355686,-0.193337,3.077355,-2.427338
982.000000,0.002000,1.041256,0.392063,-0.977191,0.704264,1.170548,1.814696,-3.659249,-1.227868,3.086794
983.000000,0.002000,-1.173827,-0.170265,-1.928647,1.325217,0.724893,-0.788189,1.621735,0.219298,2.804539
984.000000,0.002000,0.353019,-1.297872,-0.046171,-0.360584,0.979359,-1.042956,-1.157449,4.422994,-0.175964
985.000000,0.002000,-0.363518,0.668570,-0.928520,-0.239914,-0.481643,0.371745,1.876254,-2.795202,3.336373
986.000000,0.002000,0.200678,-1.180440,0.377751,-0.470452,1.476019,-2.290291,-0.932093,4.899644,-1.823838
987.000000,0.002000,-0.132342,0.624553,-1.140377,-0.077515,0.477118,1.303958,-0.098400,-1.958773,4.874160
988.000000,0.002000,0.209245,0.410424,0.605020,-1.550388,0.406803,0.907522,-1.443713,-2.095608,-3.647074
989.000000,0.002000,0.052727,-0.130247,1.236055,-1.380510,0.382485,-0.487517,-0.214232,0.700132,-4.709096
990.000000,0.002000,-0.200662,-0.665269,-0.131846,-0.102828,0.729961,-0.345567,1.708503,3.311362,0.194403
991.000000,0.002000,-0.788704,-0.784501,-0.183753,1.135341,-1.348023,0.024356,3.522509,3.037510,1.029984
992.000000,0.002000,-0.299105,0.361446,2.237871,0.446694,0.772707,1.142629,0.372809,-0.246463,-2.924702
993.000000,0.002000,0.434014,0.817449,-0.465249,-0.866661,-1.620391,0.418875,-0.196954,-3.207137,2.452303
994.000000,0.002000,-0.726550,-0.527245,1.157341,-0.422811,-0.602737,1.173890,2.446330,1.612174,-3.531484
995.000000,0.002000,-2.005653,-0.907145,-0.016874,1.008655,0.774707,-0.589799,3.118029,1.479801,0.109195
996.000000,0.002000,-0.235612,1.934067,0.248113,0.002116,-0.553701,-1.050959,0.524060,-3.866392,-0.407370
997.000000,0.002000,-0.395498,-1.658451,-0.814571,1.445113,-0.034624,-2.213016,1.205469,3.692467,1.862124
998.000000,0.002000,-0.760501,0.471896,-0.034998,3.132453,-0.206806,-1.027886,3.856209,-2.420343,-0.115562
999.000000,0.002000,0.296870,2.249190,-1.168417,-0.152340,0.588117,-1.169137,-0.239408,-2.421723,1.335461
1000.000000,0.002000,-0.174974,-1.077204,0.211043,0.111535,1.098298,1.422684,0.680543,4.527909,-0.657322
1001.000000,0.002000,1.248175,0.819705,-0.153417,-2.107389,1.028913,-0.143269,-3.705341,-2.887823,0.620328
1002.000000,0.002000,0.326386,-1.290001,-0.539539,0.275309,0.031481,-0.600003,-1.108749,4.442653,1.586065
1003.000000,0.002000,0.066771,0.302463,-1.227538,-0.081336,0.941166,1.964196,0.048094,-1.657417,4.297322
1004.000000,0.002000,0.030001,0.417664,-0.448270,-1.543650,0.517998,-0.102047,0.295078,-2.374767,3.158055
1005.000000,0.002000,-0.145505,-1.732517,-1.653921,-0.726621,-1.016834,-0.643218,0.284966,2.121805,2.221853
1006.000000,0.002000,0.304956,-0.769154,-0.000682,0.706400,-0.076898,0.020226,-1.439538,4.684933,-0.294629
1007.000000,0.002000,1.175151,0.106200,-2.825531,1.603390,1.404732,0.125847,-0.809424,-0.057598,1.934205
1008.000000,0.002000,-0.132503,-0.801917,-0.580145,0.175252,-1.280577,-1.493042,0.386981,3.616591,2.653987
1009.000000,0.002000,0.804069,-1.603821,0.163268,-0.680474,0.209903,-0.455892,-2.115631,3.492786,-0.518813
1010.000000,0.002000,1.763383,-0.536667,0.598721,0.595590,0.564834,0.541124,-3.472865,1.273693,-0.829066
1011.000000,0.002000,0.838773,0.182382,-0.920602,-0.939184,-0.202248,-0.854623,-3.017993,-0.870328,3.979730
1012.000000,0.002000,-0.849760,1.197598,0.465572,-0.422238,1.936274,-0.797768,2.594058,-3.687272,-1.275299
1013.000000,0.002000,-0.830338,-1.183823,-0.893308,-0.026478,0.230831,2.176148,2.273743,2.977961,2.378030
1014.000000,0.002000,1.580312,-0.151260,2.009878,-0.558726,-0.396980,-1.965884,-1.710673,0.324838,-2.252981
1015.000000,0.002000,0.605835,0.175225,0.215900,-0.096117,-1.413651,-0.615740,-3.817188,-0.749989,-0.960744
1016.000000,0.002000,1.022373,-0.773352,2.289446,0.008290,1.050729,0.418710,-1.087268,0.784727,-2.267235
1017.000000,0.002000,-0.004954,-0.390169,0.615194,0.430811,1.824018,1.298483,-1.561893,1.185099,-3.923947
1018.000000,0.002000,1.134454,-0.794376,0.660966,-0.087754,1.311971,0.276455,-3.050281,2.449658,-2.070812
1019.000000,0.002000,-0.614260,-0.397930,-0.565164,0.819248,0.735011,-0.136583,3.017531,1.223834,2.854908
1020.000000,0.002000,0.760444,-1.117670,-0.027283,-0.284225,0.351109,-1.140869,-2.647102,4.252643,-0.014572
1021.000000,0.002000,-0.306754,-0.968329,-1.037993,0.331642,-0.340867,1.189461,0.962718,3.641677,-1.346443
1022.000000,0.002000,-1.513434,-1.654561,0.756729,-1.359302,0.115646,-0.810571,2.001049,2.207720,-1.039000
1023.000000,0.002000,-0.099694,0.085146,1.195964,0.734910,-0.407751,-0.349488,0.193127,-0.103212,-4.558947
1024.000000,0.002000,-1.296357,-1.060350,0.379857,-0.080128,-0.350893,0.520889,2.974599,2.477189,-1.060018
1025.000000,0.002000,-1.797368,-0.669078,-1.104677,0.415399,-0.349818,-0.746418,2.536266,1.015157,1.496603
1026.000000,0.002000,0.162757,-0.459805,1.629878,-0.902291,-0.066788,-2.267595,-0.552923,1.259797,-4.181541
1027.000000,0.002000,0.735002,-0.632715,-0.399778,-1.354649,1.395227,0.088976,-3.465715,2.802487,1.762237
1028.000000,0.002000,-0.244383,3.504852,-1.457406,0.527509,0.861114,0.320907,0.094487,-1.274101,0.539979
1029.000000,0.002000,0.219917,-2.306190,-0.101738,0.044724,-0.777371,-0.465199,-0.304406,3.257191,0.142401
1030.000000,0.002000,1.889717,-0.454216,1.257273,-0.368186,-0.155043,0.593678,-2.549970,0.795559,-1.700591
1031.000000,0.002000,-0.133444,-0.240736,-0.377643,-0.321458,0.971418,-0.470102,-0.049798,0.628457,2.807739
1032.000000,0.002000,-0.914663,-0.680547,-1.452895,-1.426443,-0.053189,-0.335577,4.688217,2.729157,4.209610
1033.000000,0.002000,1.305980,-0.699780,0.398272,-1.372112,-1.357616,0.403012,-3.564752,1.999173,-1.416400
1034.000000,0.002000,-0.465106,0.975558,-0.551446,2.270749,-1.047342,-1.204984,1.860175,-3.292805,2.489279
1035.000000,0.002000,0.010659,-1.890858,0.337781,0.506918,0.086298,-0.373204,-0.007611,4.036277,-0.763893
1036.000000,0.002000,1.903462,-0.703516,-0.383343,0.118021,0.954788,0.466364,-4.373710,0.603602,2.103573
1037.000000,0.002000,-1.005506,-0.052659,0.016267,1.054721,-0.928002,-0.187287,4.407194,0.394412,0.680365
1038.000000,0.002000,0.443066,0.691974,-1.102018,-1.485960,0.497451,-1.110378,-1.605285,-1.990843,3.506545
1039.000000,0.002000,0.267639,-0.438985,-0.960428,0.134751,-0.404263,1.031439,-0.857904,1.893779,4.290913
1040.000000,0.002000,-0.191132,3.811285,2.642853,-0.317825,-0.030748,1.585810,0.038341,-0.757963,-0.526969
1041.000000,0.002000,0.101570,1.584461,-0.335437,-0.189303,-1.191888,-1.383813,-0.004298,-4.194983,1.104586
1042.000000,0.002000,0.411015,-1.903570,-1.154198,2.262304,0.523289,-0.834806,-0.794438,2.786423,1.659313
1043.000000,0.002000,-0.743506,0.051874,0.116507,0.581881,-0.256616,0.430413,3.159504,-0.070598,-0.319630
1044.000000,0.002000,-0.744393,-0.723839,-0.299430,-0.543211,-0.379749,-0.579779,3.307466,3.192883,1.155067
1045.000000,0.002000,-1.603191,-0.551235,-0.342458,-0.723072,0.446873,0.296676,3.891544,1.375947,0.821368
1046.000000,0.002000,-0.823719,-0.386351,-0.992535,2.424652,-0.176892,-0.481504,2.730351,1.248115,3.484352
1047.000000,0.002000,1.360868,-0.261066,-0.290052,0.201225,0.013770,-0.424963,-4.229890,0.883515,0.886610
1048.000000,0.002000,0.531494,0.594449,-1.396121,0.396436,0.046619,2.076942,-1.302718,-1.599248,3.964063
1049.000000,0.002000,-0.622496,-0.749447,-0.131274,-0.995510,1.078648,0.125571,3.036799,2.919855,0.582044
1050.000000,0.002000,-0.446415,0.184018,-1.149121,0.664295,0.029752,-0.448681,1.821458,-1.158643,4.017366
1051.000000,0.002000,-0.820900,-0.007897,0.919757,-0.993489,2.999147,-1.157479,2.710587,0.699720,-3.500557
1052.000000,0.002000,0.424385,0.412955,-0.053878,0.024595,0.048463,1.254785,-2.866854,-2.585310,-0.960870
1053.000000,0.002000,-0.390823,0.364175,0.829552,0.141332,-1.154071,-0.061540,2.236960,-3.684869,2.366114
1054.000000,0.002000,0.036546,1.494545,0.949009,0.108713,1.428919,-1.881666,0.014830,-3.671078,-2.212114
1055.000000,0.002000,-1.154374,0.421608,-0.014119,2.968879,-0.168790,0.198692,3.588496,-1.821600,2.177687
1056.000000,0.002000,0.242080,1.059777,-0.586125,-0.865791,-0.620024,1.958351,-1.900752,-2.519761,2.418249
1057.000000,0.002000,-1.537042,0.978042,-0.833925,0.701240,-0.810465,0.973410,2.873533,-1.818623,1.525640
1058.000000,0.002000,-0.884931,0.001475,-0.327715,-0.619719,-1.070101,2.040477,6.301933,0.185880,0.627434
1059.000000,0.002000,-1.260165,-0.056739,-0.749482,2.002793,-0.459732,0.387578,3.877319,0.141949,2.485065
1060.000000,0.002000,0.277594,-0.644355,-0.665520,-1.746739,-0.424830,0.436698,-0.941024,2.926287,3.215354
1061.000000,0.002000,-0.017981,1.010726,0.722185,0.977611,-0.539875,-1.172273,-0.249002,-3.530072,-2.404276
1062.000000,0.002000,-0.898807,2.669478,-0.319446,1.051216,-0.871784,0.057148,0.761273,-2.289415,0.287079
1063.000000,0.002000,-1.079115,0.754163,-0.282351,0.723545,-0.924692,0.529994,3.961051,-2.543305,1.417284
1064.000000,0.002000,2.559566,0.929075,-0.107903,1.759143,0.304992,0.474296,-2.430803,-0.891861,0.090813
1065.000000,0.002000,1.082938,1.001016,-0.972118,-2.718065,0.564917,1.500686,-2.574810,-2.391093,2.237103
1066.000000,0.002000,0.816430,-0.260645,-0.088823,-0.720005,1.400613,0.008874,-3.826315,1.471166,0.178018
1067.000000,0.002000,0.014118,-0.490505,-1.401375,-0.637868,2.110975,0.072737,-0.214710,1.095755,4.236940
1068.000000,0.002000,0.392318,-1.470453,-2.518875,0.092909,-0.304958,0.472795,-0.305201,1.089251,1.911885
1069.000000,0.002000,-1.174931,0.443795,-0.368779,-1.283691,0.415511,-0.316244,4.177396,-1.352582,1.523363
1070.000000,0.002000,1.130555,0.245454,-0.771065,-1.074477,0.233740,0.277292,-4.251825,-0.783276,3.275301
1071.000000,0.002000,-0.428835,-1.192281,1.029978,0.146290,1.526646,-0.541300,1.020457,3.332250,-2.567280
1072.000000,0.002000,-1.466127,-0.951882,0.087751,-0.115050,0.081462,1.213794,3.485356,2.593031,-0.205979
1073.000000,0.002000,0.202567,-1.542353,-0.492342,0.961205,0.212417,2.212608,-0.680037,4.123546,1.105105
1074.000000,0.002000,0.474580,1.051605,0.086092,0.936548,-0.827348,-1.428749,-1.955600,-4.725835,-1.606567
1075.000000,0.002000,0.271625,-0.933174,-0.736370,1.430077,3.524211,-0.361092,-0.829857,3.744664,2.852833
1076.000000,0.002000,0.491180,0.875230,0.787641,-0.344273,-1.360046,-0.775669,-1.913457,-3.069180,-2.870895
1077.000000,0.002000,0.464337,1.062579,3.017581,1.608877,-0.778899,0.502619,-0.282921,-0.635289,-1.748632
1078.000000,0.002000,-0.535578,-0.668079,1.490121,0.459376,0.647352,-0.489882,1.894719,2.956054,-2.939309
1079.000000,0.002000,0.391959,0.345737,0.332416,0.561951,1.056307,-0.511536,-2.624728,-1.674996,-2.032127
1080.000000,0.002000,-0.611742,-0.943500,-0.741007,0.388633,0.810050,0.381886,2.135232,2.985256,2.515692
1081.000000,0.002000,1.006441,-1.249620,0.769162,-1.443406,1.209044,1.202409,-2.515160,2.856923,-2.001153
1082.000000,0.002000,-0.688984,-0.367100,0.717253,-0.351887,0.068918,-0.447945,3.343285,1.498230,-3.387984
1083.000000,0.002000,0.858201,0.331872,-1.615909,-0.091105,-0.118098,1.638361,-1.603760,-0.846600,3.730557
1084.000000,0.002000,1.493748,0.935987,0.170684,-0.722609,-2.093506,0.363596,-3.977976,-2.287105,-0.739657
1085.000000,0.002000,-0.083122,1.937789,0.712020,-0.454983,0.331647,-1.314702,0.250294,-3.584718,-1.349274
1086.000000,0.002000,0.341857,-0.324761,-0.108665,1.747571,0.070358,0.510457,-2.156382,2.548829,0.672989
1087.000000,0.002000,1.164807,0.833460,-1.663578,-0.230303,-1.174359,-0.001407,-1.767597,-1.437837,2.476116
1088.000000,0.002000,0.688202,1.225209,-1.267132,0.987666,1.584075,1.480850,-1.294962,-2.506061,2.792514
1089.000000,0.002000,0.033260,-1.763544,0.247377,0.168318,0.466738,0.538248,-0.045707,3.941098,-0.512579
1090.000000,0.002000,-1.787450,-0.719593,-0.208722,1.811998,-0.040998,2.024470,3.302332,1.511573,0.324690
1091.000000,0.002000,-0.553703,1.299914,0.543659,0.941683,-1.139839,-0.107390,0.996747,-4.056493,-1.085168
1092.000000,0.002000,-0.512893,-0.904552,-0.425273,-0.274207,0.425043,-0.797858,2.504960,3.350348,2.184278
1093.000000,0.002000,-0.897711,1.241167,2.057774,0.769091,1.199449,0.070553,1.007143,-1.404297,-2.314123
1094.000000,0.002000,1.206015,0.840592,0.051677,0.414459,2.300077,1.110061,-3.884503,-2.663188,0.017173
1095.000000,0.002000,-0.450131,1.687964,-0.594474,-0.125019,-0.649760,0.049127,1.145323,-3.607919,1.684862
1096.000000,0.002000,1.407109,-0.861300,-0.389957,-1.117632,1.587274,-0.386130,-3.795536,2.272895,0.955076
1097.000000,0.002000,-1.521732,0.276482,-1.193471,1.242382,0.541479,0.584599,2.956326,-0.609198,2.432155
1098.000000,0.002000,1.568559,0.468893,0.202118,-0.831017,0.193906,-1.730978,-3.110289,-1.259700,0.333555
1099.000000,0.002000,0.341385,-1.499187,0.121965,0.201572,-1.602753,-0.052355,-1.207876,4.369083,-0.797377
1100.000000,0.002000,1.854039,0.480964,-0.829108,-0.237520,2.294496,1.100033,-3.158369,-0.774833,1.617573
1101.000000,0.002000,-2.063586,-0.809991,-1.675134,-0.870798,-0.410149,0.596594,1.865590,0.745878,1.534044
1102.000000,0.002000,0.870276,0.935310,-0.626479,-0.105674,0.470506,1.451768,-2.907759,-2.955919,2.015348
1103.000000,0.002000,0.325168,-0.532680,0.201466,-1.558697,0.485477,1.133347,-1.918389,2.773968,-1.172039
1104.000000,0.002000,0.300219,-0.278683,0.443502,-0.535344,1.023575,-0.117829,-1.237971,1.608653,-2.621501
1105.000000,0.002000,-1.498796,0.235798,-0.051541,1.370154,0.513981,-0.073275,4.473734,-0.676248,0.101188
1106.000000,0.002000,-2.187800,-1.781146,-2.013751,-0.601653,0.233113,-0.673790,1.021471,0.874150,0.957653
1107.000000,0.002000,0.375376,0.093035,0.242646,-0.411025,-0.129917,-0.325725,-2.284110,0.721246,-1.335855
1108.000000,0.002000,-1.376642,1.102067,0.936605,0.014383,-0.399546,-0.408787,2.756198,-2.163887,-1.793028
1109.000000,0.002000,-0.637780,0.910138,0.104892,0.902255,-1.726677,1.816003,2.984114,-4.013911,-0.224828
1110.000000,0.002000,-1.728062,-1.260142,0.924045,0.461938,2.040289,0.844805,2.241383,1.853695,-1.181087
1111.000000,0.002000,-0.127517,0.707901,0.061175,-0.079672,-1.247694,0.694950,1.582196,-2.860764,-2.117291
1112.000000,0.002000,0.103446,2.005584,1.342177,-0.843656,-0.838858,-0.444378,-0.140055,-2.597147,-1.799395
1113.000000,0.002000,-0.142621,0.362819,0.720031,1.535183,-0.174658,0.848972,0.764572,-1.291588,-3.953717
1114.000000,0.002000,1.020129,-0.043534,-0.923446,0.916658,-0.602889,-1.857538,-3.616571,-0.100277,3.314011
1115.000000,0.002000,0.089650,-0.406300,1.526095,0.439757,0.497127,-1.191440,-0.123675,1.137256,-4.192353
1116.000000,0.002000,1.474536,-0.564810,0.497470,0.780005,-1.684632,0.192336,-3.783170,1.413232,-1.467618
1117.000000,0.002000,-0.366365,1.263109,0.880607,-0.926009,0.020256,-1.118122,1.337544,-3.680782,-2.501164
1118.000000,0.002000,0.866654,0.602048,0.478674,1.197224,-1.616899,-1.116535,-3.475713,-2.726297,-1.920469
1119.000000,0.002000,0.750657,0.604734,0.342335,-2.468006,0.140451,0.847585,-3.832237,-2.443952,-1.436228
1120.000000,0.002000,-0.755668,-1.352092,0.024257,-0.693212,1.494161,0.236036,2.073718,3.689963,-0.574418
1121.000000,0.002000,-0.653392,0.133325,1.057132,0.670009,0.347656,-0.804799,2.803579,-1.036269,-5.593466
1122.000000,0.002000,0.080104,-0.361714,-0.742029,-0.483699,0.395156,0.905731,-0.323210,1.713747,3.798700
1123.000000,0.002000,-1.458045,1.369197,-1.786167,0.000237,0.050297,0.127227,1.398610,-1.316848,1.756377
1124.000000,0.002000,-0.920106,-2.396558,-0.455729,0.173981,-0.164865,-0.648834,0.961312,2.492491,0.493339
1125.000000,0.002000,-0.247080,-0.482002,0.041039,0.637540,-0.129421,0.461972,1.789113,3.124138,-0.464997
1126.000000,0.002000,-0.587591,-0.965561,1.977489,1.248360,-0.139500,0.509171,0.787279,1.181014,-2.850166
1127.000000,0.002000,-0.161571,1.180365,-0.589576,0.957780,1.014095,1.484809,0.627556,-4.484119,2.370910
1128.000000,0.002000,1.762782,1.371444,0.380860,0.523012,-0.956259,0.694472,-2.381786,-2.800886,-0.436328
1129.000000,0.002000,-1.161492,0.095469,0.077351,0.222164,0.047474,0.199373,5.010254,0.515571,1.939230
1130.000000,0.002000,-0.146702,-1.065572,-1.505489,-1.911707,-0.182349,0.435571,0.422492,2.502149,3.401043
1131.000000,0.002000,-0.023062,-0.046990,0.229788,-0.985667,-0.170300,1.052109,0.190647,0.223862,-1.488788
1132.000000,0.002000,0.825522,-1.224119,0.725502,-1.224380,1.520513,-1.622094,-2.420155,2.827697,-1.823733
1133.000000,0.002000,-0.834314,-0.283266,-0.962460,-0.173789,0.651590,-0.347781,2.898145,0.928721,3.333336
1134.000000,0.002000,-0.142683,-1.855030,-0.562010,-1.126966,0.625371,0.144841,0.379175,3.582000,1.083246
1135.000000,0.002000,-0.222243,1.137877,0.068959,1.593936,-1.117707,-0.433154,1.053491,-5.533770,0.041302
1136.000000,0.002000,1.062882,0.224558,-0.746757,1.477723,1.057452,1.831290,-3.818580,-0.680963,2.983707
