# 
#                 columns are tag, mass, x, y, z, vx, vy, vz, ax, ay, az
#                 Time=0.700000
# 
1.000000,0.002000,1.242090,0.444675,0.832297,-2.021598,-0.235238,-1.047486,-4.488490,-1.040048,-2.998368
2.000000,0.002000,1.988759,2.014065,-0.889364,-0.855357,-0.262945,0.350439,-1.489173,-1.508873,0.666084
3.000000,0.002000,-0.411169,-0.178621,-0.138144,-1.238291,2.209772,2.120917,21.470917,13.162610,9.281232
4.000000,0.002000,-0.066335,-0.344148,-0.686747,-1.507529,1.695236,-2.216496,1.071656,7.029111,13.879930
5.000000,0.002000,-0.125348,0.077616,-0.140382,-3.301399,-2.203002,0.237192,16.033841,-5.551390,16.660890
6.000000,0.002000,-0.125285,0.043055,0.227578,0.108053,-5.311919,-1.050592,11.915608,1.501242,-26.571871
7.000000,0.002000,-0.594566,-0.148862,-1.783036,-1.119527,1.211497,2.301430,1.370915,0.266253,4.429723
8.000000,0.002000,0.279522,0.576627,-0.038705,-2.053977,-2.930593,1.937167,-8.858703,-18.048014,1.986895
9.000000,0.002000,2.952312,-0.871702,0.491858,0.315018,1.102940,0.544682,-1.850245,0.569982,-0.311506
10.000000,0.002000,-1.504200,1.694158,1.950601,-1.547680,-0.319845,0.103021,1.085026,-1.242692,-1.424859
11.000000,0.002000,-0.341908,0.010578,0.510227,1.703497,-1.531509,0.531213,12.027128,-0.772284,-19.197489
12.000000,0.002000,-1.217925,-1.050727,-1.257014,2.139832,-0.364424,-1.465855,2.424317,2.124637,2.627630
13.000000,0.002000,-0.227211,0.139182,0.129907,-2.221974,-4.862673,0.479936,20.740061,-14.424686,-11.625242
14.000000,0.002000,-0.146596,0.698542,-1.263489,0.511521,2.270480,2.011922,0.489745,-3.228752,5.733864
15.000000,0.002000,-1.524201,1.609265,-1.048839,0.873400,-1.138350,-0.437064,1.877484,-2.052390,1.280500
16.000000,0.002000,0.171856,-0.272718,-0.140530,0.221602,4.989723,-1.586346,-11.944152,21.777133,11.021887
17.000000,0.002000,-1.182754,0.202855,-0.375170,2.406887,0.412330,1.456229,8.296795,-1.645067,2.374030
18.000000,0.002000,-0.055985,-0.087924,-1.816821,-0.712383,0.775743,0.629650,0.109422,0.197516,4.841639
19.000000,0.002000,0.705198,0.495666,-0.093347,-1.015797,-1.895593,-0.004840,-11.341318,-7.567184,1.531566
20.000000,0.002000,-0.101602,0.193664,0.076421,0.360788,1.353285,-0.589613,10.904342,-26.884229,-7.448169
21.000000,0.002000,-0.916483,-0.458643,-0.675440,1.031824,0.678630,1.494667,6.444779,3.263145,5.127214
22.000000,0.002000,-0.923042,-0.133757,-1.373841,2.362272,-0.507631,-0.246669,3.339207,0.451546,5.063891
23.000000,0.002000,-1.135561,-0.147453,-0.688523,2.219866,-0.984588,1.320066,5.837526,0.814354,4.223825
24.000000,0.002000,0.225379,-0.176458,0.297924,-1.870299,-1.597645,-2.800377,-15.834156,11.003591,-18.140319
25.000000,0.002000,0.847590,-0.659566,-0.207187,-1.916397,2.249036,-0.793112,-7.458046,6.159511,1.593774
26.000000,0.002000,0.129367,0.181270,0.147053,0.467179,2.611260,1.906755,-17.656981,-20.298873,-15.817761
27.000000,0.002000,0.839853,0.215030,0.201264,-0.757483,-0.413558,2.768780,-13.005516,-2.834145,-3.229473
28.000000,0.002000,0.538841,-0.251816,-0.985639,-1.546352,-0.964206,2.589067,-5.133020,2.129919,8.184281
29.000000,0.002000,1.448663,2.116207,1.095219,-0.493941,-0.296734,-0.460625,-1.319488,-1.870642,-0.958856
30.000000,0.002000,0.290349,0.109731,0.151740,-1.303833,2.789326,-4.169840,-21.016599,-7.617843,-11.000412
31.000000,0.002000,0.092111,-0.329682,-0.026409,1.302510,-1.273825,-2.198270,-6.486414,27.793856,2.979445
32.000000,0.002000,0.199043,0.071014,-0.075286,-4.852198,-1.496971,-1.719757,-30.306514,-7.063837,13.227918
33.000000,0.002000,0.423695,-0.183371,-0.356677,-1.553375,-4.190292,0.940350,-14.901253,6.761906,11.324897
34.000000,0.002000,0.770404,0.489896,0.254458,-0.979808,-3.655717,2.580636,-10.687250,-6.281283,-3.181383
35.000000,0.002000,-0.362627,0.340219,0.326392,3.446827,-2.865200,2.091750,11.872994,-12.040475,-12.253185
36.000000,0.002000,1.537943,-0.202395,0.812741,-1.952307,0.569997,1.940482,-4.247386,0.699386,-2.377783
37.000000,0.002000,1.366707,1.971321,1.774755,-1.160299,0.272085,-0.569519,-0.994674,-1.417887,-1.296085
38.000000,0.002000,1.579351,-0.168588,1.668269,0.301824,1.168090,-1.175013,-2.311241,0.224730,-2.413214
39.000000,0.002000,-0.590159,1.542982,1.592751,-0.098301,0.171383,-0.047090,1.048959,-2.393274,-2.522312
40.000000,0.002000,-0.041932,-0.139859,-0.158907,2.319485,-0.445711,-3.157482,3.626595,14.743825,20.841257
41.000000,0.002000,0.151368,0.402082,0.163307,-2.533166,1.373857,-2.583412,-6.851218,-18.503681,-8.561246
42.000000,0.002000,-0.141332,0.125142,-0.164185,-3.961817,1.450318,2.630612,24.263846,-14.036357,23.330813
43.000000,0.002000,0.119393,0.033908,0.646129,0.707071,-3.955003,-2.493594,-4.057779,-1.433083,-18.290937
44.000000,0.002000,0.045081,0.183318,0.074389,-2.400306,1.452476,-3.752097,-2.086803,-28.162496,-10.495068
45.000000,0.002000,0.322080,0.200775,0.225405,-0.109036,-2.460396,1.112718,-19.562164,-6.849527,-15.281367
46.000000,0.002000,1.082536,-0.446533,-0.227897,-1.602544,-1.155392,0.447191,-8.121899,3.252614,1.486621
47.000000,0.002000,-0.226216,-0.443335,0.254369,-0.523317,3.972231,2.776449,6.691544,18.238477,-9.827255
48.000000,0.002000,-0.220438,-0.058175,-0.291659,1.445782,0.050809,0.490211,16.169137,8.154076,23.052522
49.000000,0.002000,1.277200,0.465630,0.904816,-2.927466,-1.144554,2.254725,-4.653438,-1.479408,-3.505059
50.000000,0.002000,1.590549,-0.442962,-0.601851,-0.611815,1.905249,0.257492,-4.608034,1.332567,1.826623
51.000000,0.002000,-0.765089,0.711272,0.397199,0.175285,-3.276691,1.515474,7.099310,-6.332923,-3.555666
52.000000,0.002000,-0.434476,-0.482501,0.308577,2.890023,1.031443,0.909112,9.946448,11.510758,-7.946196
53.000000,0.002000,0.265088,-1.125124,-1.000408,-1.780195,1.112839,1.243356,-1.559671,4.458240,3.807121
54.000000,0.002000,-0.025902,0.021487,0.761291,0.796364,1.058229,-4.129320,-0.006687,-0.411924,-16.139784
55.000000,0.002000,-0.052754,0.969244,0.105704,-2.077884,-1.138456,2.860785,0.777787,-12.388528,-1.213330
56.000000,0.002000,0.153178,-0.964738,-0.928838,-1.348273,1.331363,2.231986,-0.349876,4.509812,5.774226
57.000000,0.002000,-0.320403,-0.004050,-0.302044,-2.088409,-2.543464,-0.433707,18.274658,-1.921391,9.586021
58.000000,0.002000,0.155003,0.008308,-0.005985,-3.243269,-3.126387,2.321626,-25.617207,0.409147,0.031267
59.000000,0.002000,-0.529759,0.768602,-0.377475,2.002874,-1.380193,1.699302,6.289148,-8.359520,4.743961
60.000000,0.002000,0.282051,-0.051816,0.084588,-0.571453,3.262223,-1.483499,-25.967625,6.167640,-9.637398
61.000000,0.002000,-0.570834,-0.074818,-0.517207,1.306737,2.912560,1.898899,10.926710,0.706320,10.785186
62.000000,0.002000,-1.754165,1.091179,-1.266117,1.422752,0.308008,0.968567,2.382211,-1.354520,1.599466
63.000000,0.002000,-0.267540,-0.104802,-0.203530,4.110724,0.177527,2.804661,22.193963,8.909053,17.203967
64.000000,0.002000,1.217430,-0.549596,-1.020125,-1.701074,1.752098,-1.288972,-4.215802,1.838648,3.327234
65.000000,0.002000,-0.251949,-0.652127,-0.550047,0.376782,3.217289,-0.797369,3.518259,10.396087,8.345266
66.000000,0.002000,-0.505252,1.221143,1.183039,-0.046431,-0.581865,-0.573865,1.484426,-3.819380,-3.614967
67.000000,0.002000,2.328644,-1.295491,-0.862478,-0.629023,-3.610883,-0.439015,-1.990816,1.121759,0.718073
68.000000,0.002000,-0.062043,-0.635984,-0.271836,1.824727,-0.351241,-1.477023,-0.263267,16.369624,7.287833
69.000000,0.002000,-0.732586,0.239886,0.482219,-0.463899,3.815591,-1.039321,10.511291,-3.500477,-7.196393
70.000000,0.002000,-0.098689,-0.084043,0.194610,3.840377,-0.029580,-2.108625,8.168995,6.164977,-24.664861
71.000000,0.002000,0.157418,-0.250344,0.099705,-3.744547,0.642950,-3.302809,-14.148717,22.376163,-11.302256
72.000000,0.002000,0.055303,0.145832,0.069045,2.148985,3.455546,0.243809,-8.214192,-14.103540,-5.285515
73.000000,0.002000,0.009391,0.332975,-0.402251,0.030520,-2.928921,-4.332918,-1.348877,-20.754661,14.725187
74.000000,0.002000,-0.088618,-0.188308,-0.691015,0.182522,2.490879,2.026860,1.738770,3.523231,16.514402
75.000000,0.002000,-1.650221,0.858280,-1.434773,-0.999007,0.128048,1.019022,2.282276,-1.073327,2.072489
76.000000,0.002000,0.112659,0.338676,-0.246718,-1.108244,-2.672135,0.879611,-5.891452,-18.694800,16.040454
77.000000,0.002000,0.183560,0.079382,0.373263,0.820291,-0.322767,2.244150,-12.184321,-4.518442,-22.800281
78.000000,0.002000,0.308233,0.377117,-0.447149,0.476677,0.494388,1.482004,-9.474717,-9.961344,12.403040
79.000000,0.002000,-1.979947,1.301710,3.057669,-0.835310,0.511354,1.736753,0.687119,-0.473895,-1.054134
80.000000,0.002000,-1.600534,-0.405328,-0.228726,2.193253,-1.063500,-1.328573,5.636181,1.576701,0.723877
81.000000,0.002000,0.345937,0.161378,0.044624,-1.491272,1.434817,-0.195818,-26.845594,-15.251872,-4.850454
82.000000,0.002000,-0.258474,-1.055527,-0.719595,0.416575,0.181595,2.892388,1.571753,6.452379,4.411483
83.000000,0.002000,1.328707,0.027922,-0.689336,-1.267620,-1.974771,1.001234,-6.364497,-2.880211,2.750575
84.000000,0.002000,-2.653893,0.933548,-0.335602,-0.778788,0.245151,0.530481,2.287448,-0.858823,0.314796
85.000000,0.002000,-0.043364,0.160985,-0.115268,-0.272133,-0.300297,-3.093946,6.375681,-25.893022,19.203714
86.000000,0.002000,0.278080,-0.492239,-1.344286,-1.106346,0.920955,1.677995,-1.579895,2.321410,6.400036
87.000000,0.002000,0.293875,0.722017,-1.495740,2.925992,-0.507216,0.951933,-1.010699,-2.281391,4.762706
88.000000,0.002000,0.113227,0.222919,-0.031794,1.809058,-1.171151,2.385907,-18.645313,-25.889193,3.180554
89.000000,0.002000,0.195866,0.406899,0.669616,3.941374,-0.897631,-1.911467,-4.222344,-8.430213,-12.444933
90.000000,0.002000,-0.315112,-0.057338,-0.466404,1.063388,1.072536,2.068818,15.858984,2.148070,17.865270
91.000000,0.002000,0.095923,-2.130693,1.434060,-0.490407,1.560568,-1.195418,-0.132964,2.325592,-1.589507
92.000000,0.002000,0.111801,0.364509,0.263106,-3.026958,0.164382,-0.747792,-5.575769,-18.964767,-15.690040
93.000000,0.002000,0.439767,-1.004275,-0.326460,-0.957272,0.074569,3.719701,-3.933587,7.901174,2.593600
94.000000,0.002000,1.018274,-0.188959,1.059051,-2.713754,0.006956,-0.929772,-4.661896,0.653921,-5.416933
95.000000,0.002000,-0.291838,0.510979,-0.094516,1.878776,-4.077957,-0.275500,9.656884,-16.207455,2.869908
96.000000,0.002000,1.119003,-0.136980,-0.183074,-1.204984,2.144111,-2.419359,-9.453398,1.521547,1.627583
97.000000,0.002000,0.456992,0.810528,-2.030285,-0.645655,-1.364135,-0.972891,-0.774516,-1.243854,3.273928
98.000000,0.002000,-0.163601,1.367851,0.179764,0.664922,-2.907692,1.926975,0.226897,-6.978725,-0.994512
99.000000,0.002000,0.294948,0.166342,-0.018700,-1.109634,-4.628755,0.006972,-23.090673,-12.471271,0.762014
100.000000,0.002000,-0.265790,0.184501,-0.213745,1.180306,-0.909331,0.449846,19.917537,-10.874377,16.811635
101.000000,0.002000,-0.991579,0.274304,-0.644879,2.042884,-2.900117,0.116456,7.144992,-1.866222,4.957780
102.000000,0.002000,0.159504,-0.132554,0.198692,1.923580,-2.024137,-1.081031,-19.024504,13.540217,-20.188226
103.000000,0.002000,-0.805368,-0.466307,-0.211563,2.591284,2.589483,-1.265885,10.236263,5.994333,2.206716
104.000000,0.002000,-0.044231,0.137695,-0.344410,1.399090,-1.803575,-1.187461,-0.638211,-9.405115,26.214937
105.000000,0.002000,0.102020,0.112244,0.062391,4.182682,2.299075,0.683549,-15.087453,-13.249106,-8.263451
106.000000,0.002000,-0.134868,-0.001889,1.293995,-0.340367,0.150009,0.027896,0.604456,0.182354,-8.170666
107.000000,0.002000,0.268680,-0.191197,-0.168776,-1.215123,1.707168,3.462767,-16.811837,14.388838,14.816053
108.000000,0.002000,0.224565,0.120628,0.197889,0.868662,-2.881576,2.440605,-22.639118,-5.516411,-17.786973
109.000000,0.002000,0.137461,0.142572,-0.185831,3.374356,-0.458904,3.189247,-14.227408,-16.578150,21.649174
110.000000,0.002000,1.433644,0.008904,2.210800,-1.819171,1.120148,1.141828,-1.487286,0.000792,-2.217643
111.000000,0.002000,0.168678,-0.263361,0.434225,-2.166838,3.164051,-2.563707,-8.882545,11.127648,-18.559014
112.000000,0.002000,-1.035368,-1.161435,1.070087,0.809687,3.011125,0.145431,2.487920,2.968609,-2.698417
113.000000,0.002000,-0.984522,-0.843577,-0.325807,2.779653,-1.089077,1.192901,5.623294,5.136887,1.804728
114.000000,0.002000,1.776879,0.986168,1.000467,-0.859049,-0.713751,1.814428,-2.655303,-1.501990,-1.556608
115.000000,0.002000,-0.896859,-1.295830,-1.163560,0.356275,0.960601,-0.266401,1.894265,2.931322,2.642130
116.000000,0.002000,-0.945241,-1.115025,0.704423,0.113610,0.303672,-0.021754,3.278824,4.067771,-2.524359
117.000000,0.002000,0.169355,0.021915,-0.033630,-3.613842,-1.262669,3.172601,-22.212091,-9.710972,7.002106
118.000000,0.002000,-0.647169,0.908664,-0.904925,1.999919,-1.693311,0.589659,3.161826,-4.263257,4.406919
119.000000,0.002000,0.068569,-0.116273,-1.138226,1.212053,0.863479,3.000381,-1.024709,0.762055,9.891377
120.000000,0.002000,-0.169271,0.069874,-0.265384,4.107655,1.284646,0.126819,18.204843,-6.935363,25.728032
121.000000,0.002000,-0.006341,-0.067959,-0.074614,-3.153850,1.201170,-3.838692,-2.091553,7.199784,14.343382
122.000000,0.002000,-0.268532,0.237357,-0.222263,0.643548,-2.341955,1.187599,18.815459,-15.104243,14.489674
123.000000,0.002000,0.264503,0.156694,0.238015,-1.649086,0.812754,-1.886289,-20.138886,-12.459541,-18.885038
124.000000,0.002000,-0.833948,0.345559,0.019610,2.649843,-0.781038,2.043891,11.364754,-5.950734,1.570606
125.000000,0.002000,0.144655,-0.472063,-0.413319,-2.844305,1.738704,0.862871,-5.274614,13.149200,11.647326
126.000000,0.002000,-0.005198,0.025428,-0.351947,-1.093784,-1.761613,5.107251,-0.630477,-2.692292,27.071309
127.000000,0.002000,-0.461625,-0.822469,-0.883157,0.317835,-1.984576,2.901064,3.484130,6.209561,6.089617
128.000000,0.002000,0.637046,-1.317249,-2.649603,0.186523,1.836285,-1.708071,-0.440626,0.888797,1.830133
129.000000,0.002000,0.001575,-0.530471,-0.097143,-0.278319,4.447026,2.181851,-2.465638,23.202906,4.033479
130.000000,0.002000,-1.444799,0.391055,1.428971,1.005889,-2.362895,1.117408,3.534100,-0.781497,-3.348230
131.000000,0.002000,0.114420,0.480546,0.346157,-2.474033,-1.413814,-0.222096,-3.538122,-15.204271,-11.045082
132.000000,0.002000,-1.701224,-0.968852,-0.612128,1.039884,-0.458679,0.673022,3.481009,1.887286,1.233215
133.000000,0.002000,0.126358,1.326634,0.658319,-1.444806,-1.069593,-2.046028,-0.748820,-6.043232,-2.751893
134.000000,0.002000,-0.217281,0.707886,0.050390,-1.582174,-0.545116,3.512770,3.921795,-16.444634,0.034632
135.000000,0.002000,-0.310013,0.401519,-0.184822,-0.898418,-1.817997,4.658109,13.290820,-15.643656,8.879297
136.000000,0.002000,-0.353876,-0.058588,0.263880,0.631203,-2.620724,-2.631224,20.331996,5.422556,-16.066180
137.000000,0.002000,0.383556,-0.335967,-0.622162,0.314739,1.852927,3.334316,-6.724954,8.523471,11.288570
138.000000,0.002000,-0.523768,-0.063307,-1.085018,-1.654540,0.569105,1.078731,3.504642,0.392744,8.204548
139.000000,0.002000,1.095098,-0.244305,0.274227,-2.849928,-1.233655,-0.641528,-8.666893,2.448825,-1.394780
140.000000,0.002000,1.423162,0.290557,0.422262,0.649801,-2.430004,-2.779932,-5.676865,-1.118740,-1.569770
141.000000,0.002000,1.395760,0.510737,-1.276664,-0.092986,-0.410110,2.071099,-3.045575,-1.120267,2.819240
142.000000,0.002000,-0.184478,0.292012,0.042659,1.531303,-2.526017,-0.754803,15.709712,-24.396642,-1.352071
143.000000,0.002000,0.590098,-2.211874,-0.124640,-0.807295,1.654215,0.744655,-0.955987,3.210439,0.214511
144.000000,0.002000,-0.308911,-0.357110,-0.778106,-0.462906,1.030775,3.176998,4.335544,4.819678,10.904693
145.000000,0.002000,0.057364,-0.027545,0.313151,-4.374075,-0.663738,0.858072,-8.129690,1.123723,-29.554502
146.000000,0.002000,-0.159846,-0.121798,0.168013,0.210461,-2.657198,-2.944310,12.369196,18.277006,-20.219262
147.000000,0.002000,-0.210248,-0.010053,0.117495,-2.879530,-0.043433,0.007638,27.668081,14.396451,-5.347601
148.000000,0.002000,0.323089,0.457049,0.173168,2.421871,-1.800719,-1.944886,-12.032674,-16.293823,-6.028478
149.000000,0.002000,-0.153054,-0.692542,-0.226553,-2.351169,2.105414,-0.857148,3.061133,16.239616,4.861730
150.000000,0.002000,-0.067362,0.033027,0.166761,4.078903,2.831221,-1.341752,5.681375,-7.409157,-22.845841
151.000000,0.002000,-0.980780,-0.398622,-0.980826,1.918974,-1.776859,-1.140923,4.872054,1.979718,4.868993
152.000000,0.002000,0.291580,0.870174,2.431884,-0.136186,0.483446,-0.388960,-0.407535,-0.441186,-2.914680
153.000000,0.002000,0.019240,-1.556129,1.255110,0.812977,2.055241,0.932986,-0.073675,3.380480,-2.618057
154.000000,0.002000,-0.647574,-0.530721,-0.392082,0.576897,1.434081,2.427506,9.218621,7.495855,5.124996
155.000000,0.002000,0.153873,-0.366025,0.238734,0.671712,2.519665,0.633139,-8.245449,19.227216,-13.218631
156.000000,0.002000,1.175997,0.044281,-1.636029,-2.632614,1.558640,-0.420630,-2.474903,-0.126068,3.394347
157.000000,0.002000,-2.347033,-0.348834,-0.007011,0.822402,-0.814753,3.123515,3.254244,0.489828,0.002824
158.000000,0.002000,0.176995,-0.300860,0.262108,1.085602,3.496173,0.528123,-10.223034,18.589578,-14.197728
159.000000,0.002000,2.878090,1.232788,1.688776,1.114058,0.098436,0.196843,-1.257223,-0.528165,-0.741555
160.000000,0.002000,-0.716265,0.039257,0.654769,1.910918,-2.337279,-1.242922,8.264617,-0.443016,-7.983312
161.000000,0.002000,1.323330,0.005890,-0.691140,-0.572965,-1.797226,1.336729,-5.074742,2.882942,3.228231
162.000000,0.002000,0.284854,-0.473951,-1.543142,0.872421,-1.816239,3.008099,-1.284814,1.329083,5.666270
163.000000,0.002000,-0.167382,0.457935,0.101380,-3.452762,-3.350661,-0.184785,10.250684,-21.694886,-3.987227
164.000000,0.002000,-0.378857,-0.253109,-0.175493,0.755902,3.851120,1.427016,17.769310,12.923842,7.792358
165.000000,0.002000,1.646577,2.349276,2.550337,0.572065,1.218628,-0.586041,-0.571948,-0.812281,-0.899451
166.000000,0.002000,0.024323,0.267092,0.196207,0.099551,-0.433951,-0.143329,-4.248142,-24.558904,-23.051239
167.000000,0.002000,-1.872175,0.206023,-0.552445,0.321346,0.312203,-1.104771,4.229373,-0.574912,1.296873
168.000000,0.002000,-0.241221,-0.683382,-0.857050,0.347775,-2.252333,1.344169,2.049321,5.921219,7.526628
169.000000,0.002000,-1.075951,-1.542722,-0.450835,-0.331044,-0.307692,2.396987,2.439239,3.731361,1.002830
170.000000,0.002000,-1.313596,-1.730226,2.008265,0.804473,-0.314118,0.460363,0.988640,1.317320,-1.511722
171.000000,0.002000,0.552418,1.119936,-1.833455,-0.836076,-1.034434,0.184249,-0.931229,-1.861573,2.956273
172.000000,0.002000,0.510230,-0.062118,-0.219524,3.181177,2.968104,1.217507,-20.345295,3.216288,6.719482
173.000000,0.002000,-0.147590,0.167614,-0.378602,-0.719946,-4.026989,1.280845,8.020544,-12.278023,24.738885
174.000000,0.002000,0.387607,-0.230062,-0.855778,-3.380265,0.355795,1.721841,-1.886367,2.720805,8.778623
175.000000,0.002000,-0.846720,0.079266,0.195300,3.536015,1.894126,-0.566023,14.051165,0.008616,-2.633622
176.000000,0.002000,0.376249,0.923018,1.037681,1.762724,-1.102175,-1.932077,-2.108825,-4.376777,-5.103520
177.000000,0.002000,-1.496218,0.069109,-1.641259,1.880663,-1.238506,1.534754,2.432460,-0.085089,2.709678
178.000000,0.002000,1.446874,-0.264947,0.074272,-0.353122,-2.518731,-0.096601,-6.503494,1.286394,-0.291155
179.000000,0.002000,0.008223,-0.254214,0.074793,3.698930,3.625658,0.228645,-8.428403,27.868608,-4.982399
180.000000,0.002000,-0.056049,-0.044682,0.027364,2.592540,3.178284,-0.658350,9.937724,10.104595,-5.575054
181.000000,0.002000,0.552774,-1.359061,0.056502,-0.092499,1.617884,0.621671,-3.409756,6.305163,0.004840
182.000000,0.002000,-0.258445,0.549073,0.304807,-3.882147,-1.303471,0.078672,7.357263,-15.741948,-9.825808
183.000000,0.002000,0.660790,-1.587437,0.951111,-0.978874,2.266143,-0.822769,-1.505573,3.526072,-1.992978
184.000000,0.002000,0.221027,-0.211102,-0.051495,0.264881,2.769454,-0.442737,-24.526543,21.693334,6.947284
185.000000,0.002000,-0.528568,-0.185995,0.341648,-0.705210,2.698306,0.664723,15.062725,6.528668,-11.818200
186.000000,0.002000,1.536369,-0.562208,-1.272636,-0.528941,3.216250,-1.347045,-3.097058,1.018320,2.500053
187.000000,0.002000,-1.312436,-0.630774,0.809869,1.047321,0.736431,-2.589841,4.441067,2.332923,-2.853606
188.000000,0.002000,-0.750742,-0.025153,-1.207487,-0.307426,-0.387707,2.403661,3.268003,-0.244566,5.881096
189.000000,0.002000,-0.224609,0.250839,-0.226533,3.597634,-1.794902,0.262211,14.335324,-18.285685,15.683217
190.000000,0.002000,-0.094802,0.128268,-0.028993,-2.008069,-1.641292,-3.395001,16.131975,-15.496242,10.266983
191.000000,0.002000,-0.169224,-0.494879,0.047287,-0.793314,4.894862,-0.307527,5.744730,21.658149,-2.956152
192.000000,0.002000,0.128720,0.034304,-0.090256,-4.148580,-2.089302,2.140668,-15.370963,-3.040161,16.032984
193.000000,0.002000,-0.109262,-0.015766,0.724457,2.138009,2.925170,-1.010276,2.690698,-0.246556,-16.552209
194.000000,0.002000,0.502463,-1.548811,-0.979969,-1.350999,1.646765,0.091926,-1.138750,3.856339,2.371319
195.000000,0.002000,0.450372,-0.444621,0.376233,2.201959,-0.265103,-0.561571,-10.924273,10.397988,-8.475974
196.000000,0.002000,-0.318858,0.018906,-0.008977,4.091023,0.776236,-1.525470,28.070041,1.998157,1.537925
197.000000,0.002000,-0.378858,-3.308315,0.848819,0.083483,0.206074,0.302054,0.164692,1.614193,-0.402650
198.000000,0.002000,-0.288820,0.600404,0.497558,-0.480884,-1.499911,2.279183,5.016796,-10.975361,-8.664805
199.000000,0.002000,-0.144413,-0.905393,-0.007067,-0.940752,0.795061,1.229499,1.478872,12.912785,-0.114483
200.000000,0.002000,-0.383238,-1.322075,-0.870950,0.181044,1.032274,-0.157040,1.295695,4.814144,3.100893
201.000000,0.002000,-2.094798,0.026516,0.098966,0.540941,-0.681293,1.687480,4.016764,-0.109554,-0.167481
202.000000,0.002000,-0.230452,-0.205310,0.466498,-0.049452,4.430620,0.098889,9.081746,8.263332,-17.907714
203.000000,0.002000,-0.078187,-0.205714,-0.499777,0.519631,4.366178,1.038295,2.489450,7.962755,18.534237
204.000000,0.002000,-0.530699,-1.512369,-1.262533,0.071776,1.241284,0.873671,1.329375,2.971619,2.754497
205.000000,0.002000,-0.118023,-0.519670,0.387958,-1.810560,-0.871790,-1.839375,1.921669,13.871614,-10.680126
206.000000,0.002000,0.082611,0.115423,-0.236045,-2.659465,-2.291829,1.335958,-8.924850,-15.031397,25.782400
207.000000,0.002000,1.032214,-0.525043,-0.270429,-1.892153,2.552030,-1.344021,-7.801524,4.146865,1.951462
208.000000,0.002000,0.551782,0.044175,0.556541,-0.474588,0.926284,-1.123984,-10.653921,-0.405859,-10.815117
209.000000,0.002000,0.344863,-0.447230,0.211487,0.191435,3.993396,-1.023586,-11.375168,16.779813,-6.079932
210.000000,0.002000,1.190088,0.400756,0.025310,-2.679955,0.322575,-0.074769,-7.820395,-3.347936,-0.919668
211.000000,0.002000,0.141430,-0.116181,-0.002205,1.026949,2.489618,-3.210241,-24.979409,16.929336,-3.176488
212.000000,0.002000,-0.201311,0.037048,-0.019248,3.619918,1.827944,-1.730872,27.468081,-5.490863,2.635509
213.000000,0.002000,0.331626,-0.184581,-0.402804,1.636854,0.696618,0.392178,-15.032227,7.950559,14.880896
214.000000,0.002000,-0.515698,-0.808816,0.446782,-2.634628,0.490863,-2.953502,5.268449,8.457207,-4.511560
215.000000,0.002000,-0.012865,0.726017,0.042311,-2.668461,0.484955,3.408402,-0.753502,-17.090516,-0.775229
216.000000,0.002000,0.056441,-0.485270,-0.011947,1.715479,0.036691,0.835825,-5.219678,25.585030,-0.516366
217.000000,0.002000,-0.136401,0.062524,0.817899,1.429381,-3.353503,-1.403985,2.705726,-0.863197,-14.651280
218.000000,0.002000,-2.549797,-0.386806,-0.187458,0.652169,-0.947325,-1.042457,2.794091,0.300707,0.209209
219.000000,0.002000,-0.597268,0.128188,0.086890,1.546064,-2.074950,0.044346,18.347733,-4.295648,-3.358886
220.000000,0.002000,-1.337949,-0.006411,-0.221401,1.690225,0.673208,1.659837,7.130837,1.242198,2.037517
221.000000,0.002000,-0.315486,-0.723458,0.621945,1.833274,2.526643,-0.931317,3.169893,8.981786,-7.242221
222.000000,0.002000,-0.685163,-0.543231,-0.052681,0.621365,1.812184,1.605879,10.842122,8.126406,0.886673
223.000000,0.002000,0.091437,0.624667,-1.069638,-0.002091,-1.532797,2.835479,-0.802383,-4.316537,7.192255
224.000000,0.002000,0.168790,0.419189,-0.931769,-0.692330,1.009022,3.441220,-1.771135,-4.552162,9.584690
225.000000,0.002000,0.227695,0.037708,-0.249686,4.733446,2.620292,1.966402,-17.906820,-5.349056,23.697911
226.000000,0.002000,0.667837,-1.762982,-0.531435,-0.213414,0.207018,-2.241775,-1.491819,3.943273,1.061382
227.000000,0.002000,-0.069644,-0.165786,-0.133884,-4.497495,0.264467,3.401113,6.947844,14.868968,18.820960
228.000000,0.002000,0.432456,1.557751,-0.003007,-1.707389,-0.371599,-1.561249,-1.792630,-5.737938,0.228169
229.000000,0.002000,-1.057422,-2.345975,1.936010,-0.410056,1.146550,-0.617278,0.601647,1.378428,-1.132036
230.000000,0.002000,-1.297884,0.250998,0.704198,1.596829,0.257795,-3.323193,5.760194,-1.131269,-3.024743
231.000000,0.002000,2.005259,1.272870,-0.746865,1.632238,-0.160367,1.638550,-2.364297,-1.494733,0.871727
232.000000,0.002000,-0.897391,-0.609126,0.747979,2.503470,0.642545,-1.460933,5.097764,4.021002,-4.554483
233.000000,0.002000,-0.142835,-0.619522,-0.992492,0.804042,1.956416,-0.211149,0.299813,4.452219,7.323641
234.000000,0.002000,0.481156,-0.378644,-0.872820,-1.870679,2.552821,1.939039,-5.288734,3.971253,8.200688
235.000000,0.002000,-1.847984,0.339414,0.623903,-0.172073,-1.666288,0.112615,4.199738,-0.798036,-1.322858
236.000000,0.002000,0.385205,-0.129509,0.121320,-5.590910,-1.408821,-0.305647,-21.330220,8.286744,-10.975852
237.000000,0.002000,0.046964,0.033114,0.001219,-5.344952,-0.729831,2.270775,-5.573885,-7.613617,2.508385
238.000000,0.002000,0.783406,-0.188950,0.119414,-2.272997,2.036636,0.403290,-13.653260,4.049542,-2.439630
239.000000,0.002000,0.312846,0.310170,-0.358586,-3.796320,-0.437631,2.662928,-11.201509,-10.541787,14.007648
240.000000,0.002000,0.601100,1.473303,-1.063408,1.345210,-0.628218,0.096139,-1.449274,-3.517222,2.506513
241.000000,0.002000,0.134044,0.208569,-0.064680,0.558305,-1.337803,-0.379047,-15.918003,-20.472135,10.166248
242.000000,0.002000,-0.440151,-0.416173,-0.243972,1.303052,3.753287,2.086585,14.122343,11.478325,7.310898
243.000000,0.002000,-0.037908,0.079369,-0.013932,3.445098,-4.588530,-2.231106,2.034223,-6.894301,5.973322
244.000000,0.002000,-0.236546,-0.328571,0.150044,-0.779211,3.844018,1.713720,14.553061,18.196913,-8.813892
245.000000,0.002000,-0.842886,-1.407937,1.986278,-0.242172,-0.067925,-1.464305,0.853416,1.553654,-2.147799
246.000000,0.002000,-2.585599,-0.523464,-0.204810,0.417186,-1.516352,1.757386,2.720435,0.572104,0.219468
247.000000,0.002000,-0.419659,-0.649248,0.924309,0.326356,2.471150,2.226530,3.037171,5.314718,-6.976861
248.000000,0.002000,-1.436594,0.444549,-0.018066,1.007555,-2.754189,0.213136,6.764957,-2.691849,0.991713
249.000000,0.002000,-0.316058,-0.802967,-0.514876,2.394737,-0.565081,0.611014,4.518515,8.798807,6.625898
250.000000,0.002000,0.227940,-0.458824,0.487545,-1.734066,3.956497,-1.003711,-6.209333,10.692663,-11.440634
251.000000,0.002000,-0.075458,0.409308,0.461794,-1.961131,3.154304,-2.775238,2.536685,-12.882498,-15.047721
252.000000,0.002000,0.356338,0.164159,0.097932,-5.102972,-0.189186,-2.120019,-23.881600,-7.631667,-5.189959
253.000000,0.002000,0.494598,-0.011816,-0.068679,-3.503264,2.059762,0.039752,-24.930871,0.796203,5.284204
254.000000,0.002000,-0.997871,0.002597,0.195178,2.993320,0.890886,-0.414545,10.847324,0.127099,-1.635857
255.000000,0.002000,-0.328463,-0.151216,-0.354458,-0.522886,1.950235,-0.219705,14.931646,6.497046,17.173529
256.000000,0.002000,0.362155,0.135773,0.053004,1.051548,-1.411194,-1.421917,-25.561174,-2.998750,-4.691640
257.000000,0.002000,2.765090,-0.067549,-0.551051,0.385599,0.275765,0.103351,-2.374180,-0.003623,0.414442
258.000000,0.002000,0.477258,0.354227,-0.069997,-2.493106,1.965717,-0.573236,-15.091867,-11.009629,1.969680
259.000000,0.002000,0.779623,0.011885,0.493168,-0.050378,4.143769,-0.390898,-11.152563,2.672823,-6.217708
260.000000,0.002000,1.486543,-2.911271,-0.190906,2.312761,-1.010115,-0.120062,-0.827563,1.587727,0.099710
261.000000,0.002000,1.069571,-1.123613,-0.422120,-2.163883,-1.579318,-1.415208,-4.528786,3.971514,1.588358
262.000000,0.002000,0.152625,0.224594,0.274868,3.392459,-2.456225,-2.326007,-11.500600,-14.698209,-22.720085
263.000000,0.002000,-0.077756,-0.090839,0.265919,-2.501967,-0.657337,2.632682,6.889679,9.369156,-22.082237
264.000000,0.002000,0.041466,0.338005,0.036087,0.144957,-0.728458,1.329692,-3.498182,-27.534490,0.624712
265.000000,0.002000,-0.021425,1.297033,0.873642,1.590301,-1.693827,2.063640,0.012852,-5.150460,-3.605877
266.000000,0.002000,-0.841444,0.686165,-0.857603,1.259184,0.202961,1.586516,4.484530,-3.700148,4.493494
267.000000,0.002000,1.033209,-0.161786,-0.015853,0.261632,2.047862,-3.205518,-10.562774,2.118806,-0.028115
268.000000,0.002000,0.218502,0.317716,-0.614959,-2.317386,-0.391069,2.147140,-7.753847,-8.464198,12.556307
269.000000,0.002000,0.632946,0.488726,0.077840,-2.673458,-1.284897,-1.193584,-12.366290,-8.930920,-0.862402
270.000000,0.002000,-0.292415,-0.272771,0.212570,0.890670,4.907312,-0.461510,16.391253,13.673056,-12.474745
271.000000,0.002000,-0.694570,-0.182049,0.831626,1.032439,-1.299347,-2.107530,5.842468,2.073891,-7.799284
272.000000,0.002000,0.233285,-0.383349,1.124135,1.172904,-0.936767,-2.794464,-2.125005,2.672881,-8.040627
273.000000,0.002000,0.295844,-0.827412,0.371333,0.858367,-2.404128,1.335561,-3.943601,9.359636,-4.713123
274.000000,0.002000,-0.010862,-0.010993,-0.009985,1.032799,-0.920609,-0.873627,0.564396,3.817253,5.691979
275.000000,0.002000,-0.779879,0.031046,0.113267,2.824501,1.302723,1.561302,16.420483,0.535138,-0.520579
276.000000,0.002000,0.039545,-0.227990,1.681512,-0.515782,-0.748606,-2.204626,-0.427554,0.619943,-5.555563
277.000000,0.002000,0.457539,-0.644484,1.006178,-2.448642,0.781668,-0.348870,-3.027542,4.131300,-6.389030
278.000000,0.002000,-0.478814,0.246625,-0.135763,-1.046067,-2.100424,1.770188,16.097710,-9.154299,6.460342
279.000000,0.002000,-0.266875,1.056048,-0.586621,-0.190586,-1.436619,1.572117,1.647894,-7.406710,4.397966
280.000000,0.002000,0.474885,0.249011,-0.217147,-1.160322,-2.625444,-0.249658,-17.942146,-7.566069,9.149789
281.000000,0.002000,-1.190938,-0.262121,0.292233,-0.358891,0.968339,-2.174887,8.161155,1.656171,-1.048012
282.000000,0.002000,1.419266,1.004578,-0.002764,-2.269685,0.193342,0.361892,-4.328566,-2.993395,0.041215
283.000000,0.002000,0.216238,0.444463,0.062231,-3.495706,-0.314968,2.075854,-7.833715,-23.007906,0.639384
284.000000,0.002000,0.181194,-2.385538,-1.314474,0.210521,0.937001,0.161628,-0.047581,2.074689,1.311189
285.000000,0.002000,-2.245958,-1.218241,-1.159664,-2.026973,0.795390,0.308581,1.952731,1.072883,1.024518
286.000000,0.002000,-0.499136,0.128158,0.092236,2.802709,3.830971,0.954922,22.274343,-5.563655,-2.649362
287.000000,0.002000,0.059299,0.013928,-0.178333,1.829141,-0.210063,-3.850930,-2.386186,1.572868,21.411205
288.000000,0.002000,0.066468,0.627883,0.522574,-0.784530,-1.132953,-1.546621,-0.928787,-11.354387,-9.728052
289.000000,0.002000,0.231555,0.772483,-0.527589,-1.198479,1.356821,1.479410,-3.121710,-9.805652,6.672101
290.000000,0.002000,0.838492,-0.005369,0.133906,-1.345227,3.017699,-1.988612,-17.071063,1.043405,2.083156
291.000000,0.002000,-0.152987,-0.272659,-0.070968,-2.768795,3.973910,1.285592,15.860046,26.171980,3.315185
292.000000,0.002000,-0.647884,-0.311419,-0.068474,2.878810,-1.152020,2.595676,16.809182,8.877315,3.129459
293.000000,0.002000,0.002201,-0.071400,-0.004082,0.893581,5.199235,-0.223853,3.772106,13.801957,2.073843
294.000000,0.002000,-0.696026,0.187064,-0.179618,3.768625,-2.659985,1.779861,16.052724,-3.682796,4.697790
295.000000,0.002000,0.320448,0.487843,0.090177,-1.487043,-1.428001,2.501557,-8.809367,-18.400328,-1.742771
296.000000,0.002000,-0.310825,0.453791,-0.260872,2.415865,-2.795418,1.737525,10.554862,-14.819695,8.570284
297.000000,0.002000,-0.373424,-0.170538,-0.798613,-0.379991,1.894504,2.170524,5.336702,2.794261,12.008769
298.000000,0.002000,-0.273694,-0.309411,0.645815,-0.625176,-2.157480,-1.642232,5.183106,7.002593,-14.165529
299.000000,0.002000,-1.952384,1.759342,-1.901624,-0.337929,-0.777625,-1.116494,1.110543,-1.017174,1.121415
300.000000,0.002000,-1.172760,2.738437,-0.236189,0.837345,-0.433478,0.308216,0.817475,-1.946727,0.152249
301.000000,0.002000,-0.184675,0.104595,0.159356,5.044983,1.327417,-2.162659,17.489643,-16.625856,-15.958347
302.000000,0.002000,0.134367,0.178379,1.783141,-0.254486,1.624481,-1.430766,-0.400085,-0.253061,-4.878861
303.000000,0.002000,-1.171974,-1.807901,0.846991,-0.370411,0.052392,-0.649904,1.770024,2.642883,-1.170640
304.000000,0.002000,0.652679,-1.070144,-1.589661,-1.506932,0.225389,0.727325,-1.473065,2.101744,3.353795
305.000000,0.002000,2.640370,-2.256294,-1.157036,1.906638,0.118952,0.314677,-1.050037,0.896826,0.441705
306.000000,0.002000,0.056110,0.427970,0.019011,-3.405287,-2.269146,0.743678,-5.119000,-25.413215,-0.570287
307.000000,0.002000,0.002310,-1.467608,-1.174741,-0.599986,-0.928751,1.446346,0.004163,3.636162,2.901258
308.000000,0.002000,0.803989,1.295324,1.406353,-1.378694,-0.987979,0.962450,-1.607264,-2.528023,-2.772923
309.000000,0.002000,0.709991,1.985309,-0.472704,0.684792,-1.558850,-0.054080,-1.285287,-3.313645,0.934149
310.000000,0.002000,0.010150,-0.082328,-0.350120,1.364178,-0.019243,-2.996104,-0.334212,5.362341,29.313704
311.000000,0.002000,0.851696,0.008107,0.877529,-2.738425,0.536551,-0.306091,-6.196965,0.337946,-6.166529
312.000000,0.002000,0.204502,-0.011368,0.175558,3.665901,2.104429,0.671684,-24.568366,3.739790,-16.107635
313.000000,0.002000,-0.290684,0.985513,0.327392,1.695302,-2.983683,1.548024,2.348533,-9.867477,-3.163513
314.000000,0.002000,0.388632,-0.006675,-0.272036,-1.384765,-1.190169,-3.236039,-20.842572,1.022597,14.728932
315.000000,0.002000,0.836691,1.256632,-1.108016,0.033161,-3.196032,-0.976083,-2.188742,-3.125045,2.786889
316.000000,0.002000,0.508000,0.401705,0.324272,-1.186659,-1.018305,-3.567545,-10.897052,-9.711184,-7.980132
317.000000,0.002000,-0.098651,-0.502391,-0.215973,-1.322964,1.625814,3.356492,1.251858,18.749031,8.290392
318.000000,0.002000,0.314405,0.626785,0.060948,-0.857957,-3.839841,0.998197,-8.291606,-15.855017,-0.854548
319.000000,0.002000,-0.206174,-0.028916,-0.290009,0.642416,-1.904065,-1.747113,8.698727,-0.740120,24.475374
320.000000,0.002000,-2.627922,1.888578,-1.040229,-2.171184,-1.120357,0.589708,1.326395,-0.936841,0.530293
321.000000,0.002000,-0.357135,0.292569,0.348241,1.551478,-3.178018,-1.717088,12.334732,-13.572957,-15.834739
322.000000,0.002000,-0.354156,0.112552,-0.022145,0.395387,2.028387,1.423491,24.648403,-10.311052,4.546341
323.000000,0.002000,-0.408643,1.879270,0.991315,-0.438619,-0.699848,-0.134052,0.657930,-3.354029,-1.716330
324.000000,0.002000,0.313950,0.006909,-0.759983,-2.894095,1.913643,-1.035977,-5.776171,0.996960,12.707411
325.000000,0.002000,0.683934,1.015307,1.350106,0.291587,-1.256578,-1.981393,-1.884732,-2.663053,-3.681996
326.000000,0.002000,-0.300635,-0.024731,0.260586,3.240052,2.206339,1.151928,20.508534,5.373101,-19.389745
327.000000,0.002000,0.637864,0.282102,0.345654,-1.101305,0.805646,-1.969673,-12.547785,-4.901082,-8.107209
328.000000,0.002000,-0.814056,-0.061795,0.708246,0.322274,0.791147,-2.474572,7.430038,0.467877,-6.991060
329.000000,0.002000,-0.635158,0.395434,0.268390,2.862227,-1.440287,0.787017,12.516979,-8.263053,-5.575394
330.000000,0.002000,-0.304811,-0.672742,0.132337,-1.825384,-0.879949,0.496449,5.998249,14.871218,-2.993581
331.000000,0.002000,-0.031214,-0.078365,0.056430,-1.629588,0.969918,4.395893,13.522935,11.754348,-14.275450
332.000000,0.002000,-0.196072,0.156681,-0.132822,1.370317,-3.291425,-0.217055,19.380512,-13.497505,12.605178
333.000000,0.002000,-0.050587,0.106884,0.301418,2.147908,-2.609697,1.976989,1.122801,-10.752248,-28.876733
334.000000,0.002000,-1.237637,-0.305081,1.227857,-0.183319,-1.232127,-0.840334,3.585414,0.922272,-3.762862
335.000000,0.002000,0.376727,0.177375,0.119848,-1.255916,-1.459740,-2.222082,-26.394788,-8.583537,-7.450005
336.000000,0.002000,0.348057,0.408517,-1.375046,-0.120385,-0.642450,2.189592,-1.504170,-1.817175,6.366995
337.000000,0.002000,-0.038381,-0.027116,0.293087,1.943032,-0.970043,1.113343,1.756300,2.658582,-29.633895
338.000000,0.002000,0.654107,-0.041021,1.091937,-2.518930,-0.253369,-2.063596,-4.277731,0.542577,-7.006899
339.000000,0.002000,0.084061,-0.117796,-0.750107,1.834589,2.548073,0.862386,-2.844018,1.507875,15.543414
340.000000,0.002000,-0.145522,-0.339038,-0.160642,5.072709,0.809789,0.563896,8.981301,22.117124,10.007787
341.000000,0.002000,0.710069,0.067923,-0.084418,-3.065001,-1.441038,1.052054,-16.509382,-1.076128,1.587229
342.000000,0.002000,-1.683581,1.236319,0.058402,0.047567,-1.526003,1.344849,3.173962,-2.504399,-0.084308
343.000000,0.002000,-1.078566,-1.801159,0.955709,0.550601,-0.187062,-0.787820,1.568838,2.635008,-1.479128
344.000000,0.002000,0.391973,-0.623242,0.137362,0.714460,2.923420,-0.692829,-8.842037,13.036235,-2.391738
345.000000,0.002000,0.363653,0.184908,0.157836,-1.597644,1.662392,-3.526926,-23.430435,-11.569644,-10.968122
346.000000,0.002000,-0.323408,-0.121357,0.033176,-1.054140,-2.210629,-4.153346,23.597968,12.836692,-0.251629
347.000000,0.002000,1.227688,-0.678466,0.822433,0.343837,2.359232,-2.076197,-4.022311,2.280424,-2.828347
348.000000,0.002000,-0.238223,1.298877,1.297809,-0.793828,-0.031954,-0.940374,0.509697,-3.297724,-3.453133
349.000000,0.002000,-0.177759,-0.141523,-0.091457,-4.411701,0.840961,-0.826183,20.742546,16.978238,11.005315
350.000000,0.002000,0.501996,0.186645,0.382682,-0.825222,-0.979184,1.923348,-14.462213,-3.434402,-12.762333
351.000000,0.002000,-0.605235,0.116719,1.112450,1.633900,1.863014,0.133698,3.714408,-0.712917,-7.560441
352.000000,0.002000,0.729632,2.732296,-0.048842,-0.666974,-1.322232,-0.348359,-0.620979,-2.336751,0.045250
353.000000,0.002000,-1.037281,2.642628,-0.905786,0.878857,1.198618,-0.620188,0.767793,-1.933576,0.665633
354.000000,0.002000,-1.116818,-0.092151,-0.076547,1.334027,-0.404632,2.497874,9.465314,0.895794,0.708847
355.000000,0.002000,-0.051218,0.714240,-0.317954,-0.452068,-1.605732,0.649686,1.155573,-14.504455,7.436110
356.000000,0.002000,-0.397369,0.671136,0.517206,-0.296303,-1.097849,-1.019649,5.796370,-9.479095,-6.357916
357.000000,0.002000,-0.094917,-0.192555,0.320890,-1.452444,0.831819,1.305815,8.362589,14.340165,-22.121468
358.000000,0.002000,-0.440031,0.083035,-0.417700,3.295355,-0.093767,3.486760,14.474440,-3.251355,13.630390
359.000000,0.002000,0.350617,-0.323620,1.957732,0.037002,-1.946600,0.406220,-0.760891,0.750820,-4.029976
360.000000,0.002000,0.260717,0.201191,-0.112475,1.563929,1.942465,-1.875183,-18.752895,-16.209910,9.487006
361.000000,0.002000,0.043791,0.326710,0.125790,1.031002,-1.087190,-3.822153,-0.124676,-29.434059,-9.185342
362.000000,0.002000,-0.491919,0.523732,-0.584309,2.217736,0.503576,2.046476,5.899557,-7.343872,8.050151
363.000000,0.002000,-0.307561,0.010732,0.256535,3.617795,2.170147,-2.745141,21.724778,-3.283984,-20.570295
364.000000,0.002000,0.039022,-0.104536,-0.081389,-1.261101,4.614792,1.757801,-9.504783,14.530762,17.733608
365.000000,0.002000,-1.233244,0.498812,2.585939,0.975870,1.742054,-0.083638,0.964315,-0.404324,-2.086284
366.000000,0.002000,0.379666,-0.678354,0.189069,-1.193749,-0.034982,-0.466318,-7.270938,12.845416,-3.252364
367.000000,0.002000,-0.374903,-0.513927,-0.108086,0.096591,-0.236827,3.793086,12.116060,13.955967,2.770983
368.000000,0.002000,-1.013187,0.911255,-0.011147,-0.412117,-2.490507,1.493349,5.450333,-5.327077,0.422997
369.000000,0.002000,-0.009673,0.317585,0.360845,2.062287,-0.315311,-2.990053,0.334965,-17.106245,-20.603379
370.000000,0.002000,0.164329,0.350831,-0.423081,-1.710604,-4.036154,-0.101355,-6.108995,-11.272779,14.547296
371.000000,0.002000,-0.476446,0.411287,0.794713,0.248240,-2.618693,-1.556295,5.636241,-4.619390,-8.831057
372.000000,0.002000,-1.724566,1.747464,1.396602,0.066161,-1.596406,-0.896254,1.457616,-1.563804,-1.222850
373.000000,0.002000,-0.303123,-0.537179,0.270257,0.769521,0.114990,-3.958002,8.085643,15.125399,-8.166783
374.000000,0.002000,-0.135589,-0.151008,0.860585,0.361399,-1.369790,-2.870785,1.769737,2.407633,-13.396058
375.000000,0.002000,-0.060517,-0.092431,-0.278076,3.874888,2.930341,-0.767853,4.452759,7.048386,28.114079
376.000000,0.002000,0.476344,0.923356,0.077713,-1.165149,-2.203787,0.327542,-6.671645,-10.639829,-0.397896
377.000000,0.002000,0.258983,-1.219827,-1.687767,0.739736,1.950850,0.110015,-0.408996,2.155211,3.409097
378.000000,0.002000,-0.609752,0.126262,0.062783,1.621560,-2.826163,-1.654738,19.106797,-3.969049,1.612586
379.000000,0.002000,0.336820,0.555420,0.209394,-0.960998,-1.064288,-1.398955,-10.255101,-15.459358,-5.160259
380.000000,0.002000,-0.575437,-0.135295,0.250612,1.548468,-3.664956,-1.272353,14.986032,0.911677,-8.238097
381.000000,0.002000,-1.584871,-1.448421,1.396074,0.417779,0.266739,-0.699800,1.696794,1.669225,-1.674982
382.000000,0.002000,0.553281,-0.349774,0.177614,0.922650,-0.937969,-0.446206,-15.124978,9.827619,-5.274092
383.000000,0.002000,-0.014377,0.041767,-0.269584,0.842004,-0.067953,-3.282878,-4.897674,-8.001960,31.066041
384.000000,0.002000,-0.070914,0.020426,0.165972,2.227666,0.071244,4.749499,8.068603,3.642888,-23.250408
385.000000,0.002000,0.271507,-0.190554,-0.386922,-2.424204,-0.883931,1.398001,-12.130218,10.277025,16.851252
386.000000,0.002000,0.312529,0.162118,0.509313,-3.825817,-0.212178,-1.562052,-9.754366,-4.915275,-15.729761
387.000000,0.002000,0.955310,-1.164022,-0.366863,-1.964726,1.627537,0.450208,-3.533300,4.689413,1.176758
388.000000,0.002000,0.238484,-0.006782,-0.335029,-4.732523,-2.151397,-0.320064,-14.105982,-1.032764,24.935850
389.000000,0.002000,-0.244060,0.728837,0.236467,-1.603117,-1.457056,-3.707421,4.118794,-14.570227,-4.680149
390.000000,0.002000,-0.328801,-0.097955,-0.035395,2.043060,0.485601,-1.396796,26.605907,10.146820,3.589134
391.000000,0.002000,-0.209424,0.607852,0.445822,-0.148126,1.770012,-3.030334,4.135005,-12.481117,-8.348846
392.000000,0.002000,-0.292871,0.268498,0.154010,1.327591,-5.114494,-0.139938,19.008771,-19.040402,-13.053245
393.000000,0.002000,0.092238,0.480223,-0.110976,-1.533881,-2.471502,2.541907,-4.307323,-24.052782,5.863385
394.000000,0.002000,0.556788,1.353090,0.252037,-1.248226,-2.230267,0.217331,-2.570995,-5.878996,-1.055779
395.000000,0.002000,-0.103569,0.269512,0.681208,2.080215,-0.432599,3.179832,1.881718,-4.462644,-15.858412
396.000000,0.002000,0.049068,-0.124945,-0.114010,-0.328316,0.806110,-4.359581,-8.931489,15.556726,21.557607
397.000000,0.002000,0.024469,0.539154,-0.386941,-2.520073,-0.421706,2.101111,0.666846,-14.158617,11.274396
398.000000,0.002000,0.225059,0.371229,-0.149196,-4.138545,-0.855577,1.820977,-13.761486,-20.975779,9.127867
399.000000,0.002000,-0.122451,0.035481,0.018372,-3.999049,-4.376013,-0.147361,12.178669,1.616917,-2.427284
400.000000,0.002000,-0.659363,-0.278142,-0.048134,1.815913,4.315117,-1.161240,18.289234,6.667579,0.281475
401.000000,0.002000,-1.000555,-0.760226,-0.153629,1.017331,3.024157,-2.792036,6.295255,5.284429,1.069773
402.000000,0.002000,0.794547,-0.626900,-0.866131,-0.891900,1.689027,1.645250,-4.381854,3.596802,4.951396
403.000000,0.002000,-0.445263,0.061480,-0.571060,-0.709591,3.203319,-1.471692,10.210461,-0.843175,13.760235
404.000000,0.002000,-0.339827,-0.072076,-1.026260,-1.218096,-1.519529,0.394984,2.922432,0.402348,10.247887
405.000000,0.002000,-0.291079,-0.293580,0.201890,2.134609,-1.024187,0.737516,15.331076,18.531496,-9.980748
406.000000,0.002000,-0.509349,-0.350936,-0.113447,2.102817,-0.936509,-1.702691,16.853781,11.072360,3.392553
407.000000,0.002000,0.184554,-0.507366,0.422492,2.538496,2.307852,-1.549666,-5.228376,12.762252,-10.223895
408.000000,0.002000,0.638861,0.498428,-0.290115,0.455811,-4.013775,1.056699,-10.447385,-8.118631,5.040035
409.000000,0.002000,-0.138846,-0.057882,-0.004830,3.337789,-3.137329,-1.384036,20.684622,9.107648,4.065463
410.000000,0.002000,0.242888,0.292458,0.011339,-1.937336,1.170517,-2.203258,-18.716769,-19.257518,1.240563
411.000000,0.002000,-0.299275,-0.339712,0.056264,-1.846507,1.248569,3.018962,14.791746,17.567609,-1.709437
412.000000,0.002000,0.565063,-0.143127,-0.459016,-3.327339,2.650146,2.975391,-12.362975,3.180965,10.029933
413.000000,0.002000,0.581162,0.852146,-0.172286,-2.185011,-0.682835,1.259808,-5.752098,-8.778833,1.959844
414.000000,0.002000,-0.898958,0.190661,-0.668707,1.658183,-4.105648,-0.372385,7.132675,-1.691980,5.986242
415.000000,0.002000,-0.056893,0.030104,0.124650,-1.943998,-1.506007,-4.030127,5.927658,0.722899,-15.479546
416.000000,0.002000,-0.778824,-0.727387,-0.094143,-0.050693,-1.059651,1.766572,7.758792,7.404724,1.560749
417.000000,0.002000,-0.177218,-0.900077,-0.305225,0.528867,3.343888,1.442153,1.939072,11.422081,3.940720
418.000000,0.002000,-0.575161,-0.032059,-0.021177,1.531515,-3.029916,-1.668572,21.712914,1.165379,1.757092
419.000000,0.002000,-1.370454,-0.320654,-1.561063,-0.963775,1.624923,2.650338,2.441098,0.526898,3.133781
420.000000,0.002000,0.655936,0.055153,-0.555600,-2.874725,1.249216,1.261914,-10.530203,-0.766596,9.125902
421.000000,0.002000,-0.040435,0.592550,0.154851,-0.799340,1.017760,0.968510,0.527546,-20.251949,-5.090826
422.000000,0.002000,0.856955,1.009237,0.526415,-2.980910,-0.238491,-0.239934,-4.582273,-5.246621,-2.578771
423.000000,0.002000,-1.466311,1.575336,-0.517026,0.760901,-1.664124,1.597724,2.381261,-2.546720,0.770235
424.000000,0.002000,1.210055,-2.032709,1.031009,-1.450940,0.712425,-0.880721,-1.352624,2.139103,-1.160587
425.000000,0.002000,1.488726,-1.356738,1.459848,-0.919368,-0.140921,0.935132,-1.841817,1.679029,-1.666385
426.000000,0.002000,-0.333837,-1.068321,0.172245,-1.090702,1.788210,2.818047,3.278868,9.559508,-1.414855
427.000000,0.002000,-0.390248,-0.182699,0.262612,4.343818,-0.799580,-0.632913,18.232048,9.180723,-11.200351
428.000000,0.002000,0.064124,0.156445,0.082256,1.130880,-4.546581,-2.633688,-11.347658,-17.950655,-9.866042
429.000000,0.002000,-0.648917,0.164833,0.276941,2.676227,2.621028,-1.710239,15.885434,-3.630014,-6.972579
430.000000,0.002000,-0.305104,0.039188,-0.005688,3.007996,-0.652716,-4.346045,25.647552,-4.991848,4.457887
431.000000,0.002000,-0.136039,0.351884,-0.040522,-1.341020,-0.174647,-1.811217,9.915261,-24.337088,4.532039
432.000000,0.002000,0.204692,0.404180,-0.605811,1.815357,-3.674427,1.768592,-4.246847,-9.220653,13.492372
433.000000,0.002000,-0.076148,-0.072635,-0.063348,1.030445,0.433576,-2.752525,21.838084,12.553040,9.765868
434.000000,0.002000,-2.130146,-1.449458,-0.591041,0.476096,0.513989,-0.030833,2.245078,1.468916,0.552453
435.000000,0.002000,-0.136791,0.210068,0.376374,-0.353446,-2.288292,1.068488,6.419909,-12.836425,-22.268968
436.000000,0.002000,-0.397785,-0.535356,0.106632,3.608494,1.573664,0.931180,7.595935,13.094939,-2.195097
437.000000,0.002000,-0.407723,-0.267310,-0.281819,0.250915,2.815677,-0.956792,15.270929,10.551088,12.010032
438.000000,0.002000,0.195096,0.069812,0.123290,0.019250,-0.802802,1.551524,-23.249795,-12.175682,-13.199440
439.000000,0.002000,-0.228025,0.494888,-0.345052,2.068022,-2.162274,2.457024,5.650290,-13.353184,9.379889
440.000000,0.002000,0.193781,0.089720,0.402244,-0.552620,-1.066389,2.169277,-12.709855,-5.622750,-22.558139
441.000000,0.002000,-0.465386,0.380622,0.341407,2.688081,0.902315,0.249582,11.090240,-8.974123,-9.006469
442.000000,0.002000,-0.060747,0.177024,0.046595,2.795090,2.595371,0.382128,10.706743,-20.702111,-5.070328
443.000000,0.002000,-0.839134,-0.917947,0.364849,-2.696476,0.279934,-2.541400,5.085492,6.154775,-2.742880
444.000000,0.002000,0.611564,1.170278,-0.931947,-0.172627,-0.674629,0.817075,-1.990596,-4.230931,3.253955
445.000000,0.002000,0.080491,-0.001609,-0.007918,-2.911206,-0.867747,3.191449,-11.389849,-2.553015,8.092237
446.000000,0.002000,-1.203876,-0.107521,0.132101,1.094597,2.713154,-2.612211,8.890801,0.909781,-0.625256
447.000000,0.002000,-0.483607,1.240315,-0.583145,1.374665,-1.639159,0.471003,2.106954,-5.875489,2.819293
448.000000,0.002000,-1.007446,0.094472,0.407706,2.109046,-1.392515,1.305958,10.410634,-2.277621,-3.637560
449.000000,0.002000,-0.016761,-0.139317,-0.108299,-2.636522,3.636387,-0.941012,-3.158472,23.715635,17.412667
450.000000,0.002000,-0.143603,-0.095636,-0.323525,4.155406,-2.040666,0.774613,8.592909,7.938200,27.212255
451.000000,0.002000,-0.724308,2.455658,0.281414,0.532962,-1.084854,-0.493508,0.794394,-2.703247,-0.290057
452.000000,0.002000,0.815268,1.396298,-0.009283,-2.982230,-1.351451,0.337737,-3.033292,-5.002712,0.218626
453.000000,0.002000,0.207138,-0.130148,-0.450023,0.333247,0.863964,4.901122,-9.405304,6.972355,20.802031
454.000000,0.002000,-0.334813,-0.237964,0.560835,1.763670,-0.298615,-3.789261,8.088032,5.024344,-13.640445
455.000000,0.002000,-0.627500,0.414307,-0.647324,1.396218,-1.749199,2.411650,7.264405,-4.693522,7.535001
456.000000,0.002000,-0.302669,0.280335,-0.496818,2.838948,0.525866,0.602769,8.839358,-8.893825,14.107025
457.000000,0.002000,0.369476,0.265534,0.771284,-1.058065,-2.171577,-2.086641,-5.806671,-3.807910,-11.700308
458.000000,0.002000,-0.472738,1.154260,1.138199,-0.844107,0.156659,-1.989000,1.411947,-3.692317,-3.772047
459.000000,0.002000,-0.033452,0.179828,-0.943966,0.930969,-1.446702,3.323515,0.305387,-2.443739,11.996381
460.000000,0.002000,0.557905,0.565576,-0.108231,-2.387910,0.132051,0.232321,-10.334923,-10.908017,2.733804
461.000000,0.002000,0.207218,0.428008,1.357903,-1.875433,-0.048681,-1.002557,-1.243501,-2.023978,-6.558708
462.000000,0.002000,1.006117,0.711813,0.489932,-2.107455,-0.295910,-1.819832,-6.118234,-4.308352,-2.922501
463.000000,0.002000,-0.278381,-0.113079,-0.084143,3.302113,0.809531,2.765916,22.314468,12.683555,11.657225
464.000000,0.002000,-0.067962,-0.078205,0.008957,-4.040422,-0.591747,2.800335,8.838134,14.083297,-3.063069
465.000000,0.002000,-0.212224,-0.376892,-0.026833,2.364360,-1.715574,0.787828,13.284481,20.140703,1.704943
466.000000,0.002000,-0.559779,0.496727,-1.771085,0.999546,0.253907,1.478937,1.263750,-1.083337,4.160090
467.000000,0.002000,-0.252107,0.062303,0.117331,-0.398697,2.666945,1.615511,24.693622,-9.789448,-5.135475
468.000000,0.002000,-0.159959,0.212946,0.222483,-1.525207,2.299687,-5.728335,11.892062,-21.345503,-21.725587
469.000000,0.002000,-0.290730,0.037223,0.008877,3.255957,1.490380,-3.366675,22.546297,-1.213178,-0.623492
470.000000,0.002000,0.212959,1.516050,0.216677,-0.957353,-2.770886,0.556952,-0.758436,-6.172173,-0.939838
471.000000,0.002000,0.270370,-0.038903,-0.233741,-1.458349,4.432546,2.169285,-24.785708,6.240161,20.310484
472.000000,0.002000,-0.786129,-0.464154,-2.358534,0.247839,0.175266,0.105107,0.888502,0.533813,2.735837
473.000000,0.002000,1.047648,-1.450634,-3.031175,-1.072270,0.172032,0.130426,-0.458865,0.664185,1.380578
474.000000,0.002000,0.025234,1.025549,-0.464063,2.373955,0.967904,2.591171,-0.697586,-8.717038,3.820745
475.000000,0.002000,0.259392,0.378082,-0.442437,-3.638170,-0.702983,1.008858,-6.944838,-11.323857,12.293320
476.000000,0.002000,-0.120385,-0.172299,-0.247900,-2.429894,1.903996,-1.913583,7.565654,17.130354,24.891901
477.000000,0.002000,-0.454978,-0.810078,1.680144,1.544595,0.296445,0.248800,1.002244,1.989590,-3.957842
478.000000,0.002000,-0.613744,-1.777085,0.315925,3.401076,0.438394,-0.459277,1.480797,4.315264,-0.677391
479.000000,0.002000,0.381795,0.329900,-0.680932,0.735363,-3.222457,-0.579392,-6.843598,-5.665823,11.114972
480.000000,0.002000,-0.443557,-0.907104,1.144988,1.803333,-1.263899,-1.531247,1.911709,3.769878,-4.310917
481.000000,0.002000,0.072956,0.591683,-0.512705,-1.102145,0.818056,-0.430722,-1.454300,-11.665594,10.676236
482.000000,0.002000,-0.221265,-0.158636,-0.274864,-0.778587,-0.381486,0.191077,16.238527,9.642574,22.187351
483.000000,0.002000,-2.050218,1.004728,1.264431,1.963748,-0.087342,-1.155796,2.195091,-1.097549,-1.384257
484.000000,0.002000,0.532576,0.995213,-0.444271,-1.227936,-0.735212,-1.439863,-3.626866,-7.249638,3.451432
485.000000,0.002000,-0.107141,0.100392,0.325846,-0.644117,-3.057402,-2.744130,5.488060,-10.746256,-30.360039
486.000000,0.002000,-0.941216,-0.075039,-1.904642,0.367933,1.589924,-0.137813,1.691667,0.101549,3.487710
487.000000,0.002000,-0.653375,-0.435572,0.499654,2.349637,1.889439,-3.052727,8.814655,5.828948,-6.802119
488.000000,0.002000,0.059339,-0.286883,0.446599,-2.551552,2.919645,-0.679996,-5.262281,12.554865,-18.796401
489.000000,0.002000,-0.292071,0.645452,0.266591,0.860421,0.058429,-1.486350,6.335912,-14.489761,-6.081188
490.000000,0.002000,-0.135890,-0.066776,-0.112554,-2.959925,1.938236,0.288184,17.764227,6.884779,15.336603
491.000000,0.002000,-0.255274,-0.015356,-0.177543,-1.897300,2.025140,1.548943,23.620917,-2.276351,18.854834
492.000000,0.002000,0.062742,0.055434,0.174198,1.857923,-0.676650,-2.326124,-2.979944,-3.677771,-22.346366
493.000000,0.002000,-0.138624,0.090030,0.290729,2.493595,-1.269719,-3.618734,11.415842,-10.512591,-25.839805
494.000000,0.002000,0.037888,-0.441558,0.100798,-1.534140,1.180318,2.810674,-4.330332,26.451735,-4.436169
495.000000,0.002000,-0.270469,0.411755,0.377146,3.038960,-1.630115,-2.229261,8.599386,-13.090951,-12.904067
496.000000,0.002000,0.147883,0.300648,0.275773,-0.664252,-3.978041,-3.055740,-8.791540,-17.989237,-19.077599
497.000000,0.002000,1.073086,-0.449208,-1.137272,-3.352836,-0.099194,0.581115,-3.627503,1.045134,4.253206
498.000000,0.002000,-0.015421,0.382054,-0.401265,2.995055,-0.185828,0.601155,1.205764,-15.719251,15.972187
499.000000,0.002000,-0.969239,-0.119131,-0.486781,3.445318,-2.407272,0.275173,9.055566,0.828123,4.825686
500.000000,0.002000,0.567312,0.711835,0.383436,-0.886094,1.891823,-0.637849,-8.122627,-8.016688,-3.568697
501.000000,0.002000,-0.191101,0.093763,0.320596,0.988216,-0.005585,-3.526607,14.381238,-7.661866,-25.957908
502.000000,0.002000,0.019275,0.207529,-0.011950,2.623855,1.342447,-3.524359,0.298194,-25.028309,5.181775
503.000000,0.002000,0.161802,-0.295706,0.776931,-0.464829,-0.148931,-2.936053,-3.181349,5.448800,-12.391403
504.000000,0.002000,0.782945,-0.245251,-0.008890,0.975550,2.615986,-3.258970,-13.100221,5.047039,-0.451558
505.000000,0.002000,-1.579946,-1.521472,0.063693,0.700307,0.480871,-1.231904,2.533906,2.555267,-0.138170
506.000000,0.002000,1.075954,-0.140313,-0.082683,-1.234966,-0.037777,0.203778,-10.135127,1.616494,0.901556
507.000000,0.002000,-0.122945,0.069737,-0.488407,1.581643,-0.549673,-1.715813,4.562262,-1.889169,22.579016
508.000000,0.002000,0.308250,1.402230,0.894539,0.890282,1.234272,-2.624139,-1.074870,-4.672184,-2.869761
509.000000,0.002000,0.639364,2.234302,0.403178,0.683478,-1.047855,0.598537,-0.934030,-3.030366,-0.559955
510.000000,0.002000,-0.252259,-2.389079,0.269106,-2.500711,0.020618,0.073805,0.282975,3.093400,-0.306823
511.000000,0.002000,-0.545857,1.279511,-0.345673,2.344953,-0.681427,1.887174,2.583747,-6.449395,1.895793
512.000000,0.002000,0.024810,-0.247487,0.419240,-1.687832,3.051967,1.395310,-0.906095,11.751107,-19.431699
513.000000,0.002000,-0.833380,0.580290,2.983788,1.436656,1.510896,1.045779,0.507766,-0.361370,-1.880885
514.000000,0.002000,-0.150213,-0.376913,0.097337,2.880639,-0.291062,-0.821305,9.208083,26.294947,-8.024338
515.000000,0.002000,-0.316900,0.116035,-1.005325,-1.745248,3.687300,1.260107,3.187862,-1.020180,10.225325
516.000000,0.002000,0.043719,-0.529489,-0.280008,-2.931993,2.166439,0.848050,-1.890419,16.100126,8.152461
517.000000,0.002000,0.084479,-0.190229,0.056489,0.729869,-2.882922,-3.334336,-4.064377,24.368389,-2.071254
518.000000,0.002000,0.005040,-0.124354,-0.150743,-2.427134,-2.278652,-0.580512,-6.144784,14.053392,22.160397
519.000000,0.002000,0.053085,1.009542,-0.620337,-0.336295,-2.673007,-0.015830,-0.386981,-7.620669,4.571558
520.000000,0.002000,0.598004,0.919393,0.021322,-1.503596,0.622347,-0.376079,-5.956510,-8.680292,0.283332
521.000000,0.002000,1.643373,-0.832924,-0.045562,-1.146415,0.332853,1.814976,-4.200058,2.297403,-0.014001
522.000000,0.002000,-0.772761,0.307589,0.117675,-0.645726,-0.670318,-1.178648,13.364374,-6.193593,-1.037675
523.000000,0.002000,0.220207,-0.035192,-0.215972,-2.934989,0.536360,-2.328794,-20.761130,9.653228,17.115997
524.000000,0.002000,-0.009473,-0.231207,0.185159,2.510652,4.390653,-1.333538,2.005465,24.342576,-20.598451
525.000000,0.002000,-2.197576,-1.343073,1.139284,-0.258329,0.440983,-1.442714,1.893453,1.183852,-1.006319
526.000000,0.002000,-0.324500,0.214722,-0.193495,0.130902,-1.809279,-3.600793,20.135307,-10.755011,13.560646
527.000000,0.002000,-0.528030,-0.828639,-0.494704,2.308503,1.007831,-1.178345,4.606455,7.923385,4.692447
528.000000,0.002000,1.095456,-0.255740,-0.842761,-0.699012,-1.070707,3.617749,-5.530815,1.134438,4.329793
529.000000,0.002000,-0.305764,0.135269,-0.450018,3.039884,-1.618623,2.006823,12.117592,-6.377449,17.886908
530.000000,0.002000,2.518745,0.756940,0.472704,-0.850584,-0.488962,-0.261437,-2.534373,-0.724858,-0.411731
531.000000,0.002000,0.309888,0.016768,-0.383978,2.453580,0.017840,2.352868,-16.696596,2.512630,17.915929
532.000000,0.002000,0.650452,0.941644,0.832854,-1.558420,-1.017320,-1.425126,-3.515644,-4.861596,-4.307848
533.000000,0.002000,-0.833262,1.220942,-1.250607,0.617885,-1.069881,0.995723,1.895746,-2.721675,2.921505
534.000000,0.002000,0.286051,0.242919,0.367265,0.212817,-2.733335,-1.425979,-11.822481,-9.138403,-17.012731
535.000000,0.002000,-1.424377,-0.426897,-0.539729,0.737380,1.103473,2.281886,5.494167,1.748111,2.084342
536.000000,0.002000,-0.208600,-0.469736,0.004944,-1.224783,-0.853333,-0.391973,8.562550,22.053407,-1.813733
537.000000,0.002000,-0.327266,-0.681021,0.680153,0.724730,2.755142,-1.653489,3.833206,7.712807,-8.098898
538.000000,0.002000,1.821010,-3.327398,-0.710047,-0.857701,-1.769439,0.626919,-0.633761,1.127914,0.238224
539.000000,0.002000,-0.211870,-0.172613,0.233010,3.061012,2.582993,-1.889291,15.248154,14.257930,-16.792581
540.000000,0.002000,1.552076,0.804405,0.275793,-1.348257,-0.980154,-0.640561,-4.572025,-2.339716,-0.789285
541.000000,0.002000,0.143592,0.221737,0.079973,0.627146,1.363331,4.025906,-22.365244,-23.043299,-7.516917
542.000000,0.002000,0.847342,0.494277,-0.237927,-3.071599,0.128083,0.944614,-9.982744,-4.817434,2.859982
543.000000,0.002000,-0.526842,-0.113017,-0.277877,1.537500,-1.710690,3.694344,18.319810,3.708417,10.128202
544.000000,0.002000,2.108666,-0.150802,-0.590564,-0.255878,-0.433417,-0.218367,-3.431940,0.230585,0.977568
545.000000,0.002000,0.313902,-0.776710,-0.030860,-2.046690,0.671401,1.033844,-5.460666,12.295182,0.510555
546.000000,0.002000,-0.000355,0.287923,-0.215073,1.806582,0.511222,-0.954973,-0.907268,-19.993398,19.730202
547.000000,0.002000,-0.330426,0.122497,-0.327408,3.141631,2.331629,1.032781,17.268947,-4.802145,15.045831
548.000000,0.002000,0.538197,-0.173912,-0.073683,-3.948259,0.505590,1.519176,-19.706611,6.905039,2.231177
549.000000,0.002000,-0.545914,1.101071,-1.530360,-1.254544,-1.976018,0.829154,1.006986,-2.448381,3.462335
550.000000,0.002000,-0.051618,-0.281896,0.045690,-1.069925,1.615932,-4.455030,4.713166,29.914600,-0.375303
551.000000,0.002000,-0.251328,0.124847,-0.851819,-1.890087,0.212119,3.538418,3.630869,-1.892326,12.791674
552.000000,0.002000,-0.015602,0.018544,-0.057928,-2.866585,2.613297,4.312244,0.045013,-4.332636,12.199467
553.000000,0.002000,1.331253,-1.333378,0.326463,-0.648979,0.255308,-2.024776,-3.100989,3.151105,-0.835347
554.000000,0.002000,-0.158601,0.141729,0.079377,-0.175976,-2.953787,-2.985384,23.244724,-15.737128,-6.323152
555.000000,0.002000,0.402093,0.454015,-0.068999,2.919884,2.890717,-0.245497,-13.063132,-14.652409,3.322684
556.000000,0.002000,0.267520,-0.052954,-0.210983,-3.171539,0.090525,3.563037,-22.179538,6.041394,13.722932
557.000000,0.002000,0.008475,-0.004223,0.266361,-1.688451,1.246829,1.453044,-0.715947,0.831447,-29.337287
558.000000,0.002000,1.032552,-1.681414,-1.035322,-0.582021,1.070411,-2.056004,-1.686469,2.697124,1.603914
559.000000,0.002000,0.051188,-0.378181,0.322024,-2.838530,-0.535439,2.000540,-3.570185,18.735965,-14.823167
560.000000,0.002000,0.636155,2.194608,-0.303740,0.534915,-1.027335,-1.391054,-0.833298,-3.280710,0.365462
561.000000,0.002000,0.445417,0.518869,0.261238,-1.170815,-2.201357,-0.778028,-10.363102,-11.874169,-5.935142
562.000000,0.002000,0.324741,0.256333,-0.699972,-4.409151,-1.955993,0.526482,-6.452370,-4.708082,12.304360
563.000000,0.002000,0.641139,0.318646,-0.612298,-2.059335,0.793548,-2.297838,-8.275075,-4.459792,8.228884
564.000000,0.002000,-0.743883,-1.663597,0.782277,1.411391,0.908497,-1.565868,1.354985,3.346200,-2.123469
565.000000,0.002000,2.290407,0.155013,0.183249,-0.905841,-0.550326,-0.009728,-3.337119,-0.214313,-0.302903
566.000000,0.002000,-0.298688,0.249174,-0.128602,0.645718,0.404134,0.730190,18.768336,-18.138862,8.565805
567.000000,0.002000,-0.079232,-0.287178,0.307734,1.135323,0.644461,3.980625,2.445793,17.382472,-18.706418
568.000000,0.002000,-0.680972,-0.374705,0.990994,1.465484,-1.879699,1.049917,4.321429,2.641879,-6.663982
569.000000,0.002000,-0.511571,1.883311,0.234389,1.074630,-1.405210,0.191156,1.122164,-4.081134,-0.374855
570.000000,0.002000,-0.262634,-0.238437,0.237821,1.908647,4.444289,-2.340766,15.127716,14.754657,-13.464952
571.000000,0.002000,-0.149782,-1.148137,0.241678,-1.528345,0.939056,2.293731,1.349332,9.128526,-1.963149
572.000000,0.002000,-0.098334,-0.387014,-0.245060,0.130124,3.099288,3.197795,1.182353,19.997958,15.048433
573.000000,0.002000,0.195652,0.305519,-0.100527,-2.557074,2.294801,-0.715582,-14.390462,-21.661411,7.034458
574.000000,0.002000,0.928623,-0.934804,-0.747392,-0.447886,0.916382,1.792160,-3.820492,4.057582,2.995177
575.000000,0.002000,1.704348,-0.894229,-1.309931,-0.669204,0.552663,-0.385323,-2.442713,1.282898,1.839779
576.000000,0.002000,0.036001,0.212325,-0.007190,-1.207937,-4.528820,1.037519,-6.425154,-29.404551,4.957689
577.000000,0.002000,-0.101475,0.174465,0.376147,-2.727752,-0.206207,0.359924,4.422339,-10.996406,-24.711970
578.000000,0.002000,1.713556,3.108421,1.551912,0.193293,0.496498,-0.424430,-0.589662,-1.063662,-0.524751
579.000000,0.002000,-0.007424,0.887964,0.139713,-0.313134,-3.709843,-0.754970,0.380482,-13.141992,-1.834596
580.000000,0.002000,-0.977956,-0.283922,-0.036188,1.800679,-0.903841,0.355342,10.602090,3.113392,0.696187
581.000000,0.002000,0.506239,-0.674704,-0.059399,1.620365,2.879348,-1.713262,-9.248694,11.466855,1.387640
582.000000,0.002000,-1.310467,1.240688,-0.912484,1.585624,0.352487,1.618427,2.705334,-2.593555,1.806568
583.000000,0.002000,-1.728290,-1.313477,2.015631,0.968915,1.079443,-0.372066,1.314733,1.006173,-1.519580
584.000000,0.002000,0.291247,0.919688,1.052358,0.435075,0.337951,-2.193284,-1.283885,-4.345794,-5.333856
585.000000,0.002000,0.241876,-1.238018,-0.480109,-1.723756,1.931823,-1.841284,-1.763652,6.183591,2.697458
586.000000,0.002000,-0.054326,-0.086532,-0.121364,-0.739239,3.149253,2.205647,2.827079,13.595910,24.947041
587.000000,0.002000,0.064209,0.138947,-0.432135,-4.373888,2.055503,0.736484,0.650225,-7.713366,18.353285
588.000000,0.002000,-0.448911,-0.411941,-0.475842,0.351657,3.896920,1.908773,9.141071,8.107335,10.894755
589.000000,0.002000,-0.273065,-0.331617,-0.276449,2.193247,-2.788924,-1.715710,13.647927,13.850842,12.858261
590.000000,0.002000,0.922738,-1.167374,1.137922,-0.143007,0.243562,-1.817277,-2.394545,3.008491,-3.192504
591.000000,0.002000,-0.290549,0.423389,0.149658,1.911917,1.189156,-0.559144,13.179618,-16.779072,-5.086382
592.000000,0.002000,0.792607,-0.398881,-0.260463,-2.443573,0.395005,-1.895116,-10.525411,5.474585,3.337152
593.000000,0.002000,-0.276171,0.058540,-0.122538,-1.434476,-2.178988,4.426353,24.402448,-5.801615,15.158078
594.000000,0.002000,0.852745,-0.689282,0.628127,-0.033827,-0.275124,-3.265730,-5.612141,4.378469,-4.047751
595.000000,0.002000,-1.587578,0.224780,-0.370073,1.607276,0.320439,0.738283,5.781074,-0.907055,1.436868
596.000000,0.002000,-1.330793,-1.136453,0.266337,-1.754176,3.004468,-1.583304,3.920496,3.365768,-0.845266
597.000000,0.002000,0.080813,0.179509,0.128915,-1.318300,5.111096,-0.977634,-11.423798,-23.976857,-15.636269
598.000000,0.002000,0.369847,-1.144270,-0.547730,-1.021644,2.337562,-0.265304,-2.450278,6.579173,2.989439
599.000000,0.002000,0.345071,-0.176013,0.034955,1.225564,3.940115,-0.499585,-21.161814,11.621885,-5.153296
600.000000,0.002000,0.440246,0.403706,-0.173279,-2.634683,0.082398,-0.339977,-14.650882,-12.929485,5.476730
601.000000,0.002000,0.368619,0.081907,-0.135112,-3.762808,0.434847,-3.277197,-22.965784,-4.870731,7.102233
602.000000,0.002000,0.007066,0.230667,-0.662161,-3.351821,0.727246,2.466517,-1.209293,-5.605185,17.523040
603.000000,0.002000,0.683415,0.052622,0.137339,1.644793,0.068857,1.334275,-17.661762,-0.866254,-2.983450
604.000000,0.002000,-0.209200,0.261203,-0.031811,-0.577616,3.565118,2.485793,20.657653,-20.579055,7.672010
605.000000,0.002000,-0.063795,0.045670,0.253585,-4.055811,2.752022,-0.052885,2.418400,-5.266351,-29.682553
606.000000,0.002000,-0.533824,1.317100,-0.115882,1.906580,-3.142973,1.163578,2.709112,-6.820696,0.986335
607.000000,0.002000,-0.244980,-0.422581,-0.878832,2.567158,1.547537,1.580235,3.011871,4.864644,9.825962
608.000000,0.002000,-0.428369,-0.345827,0.269401,2.705172,-1.602844,-0.189822,13.340702,11.002187,-9.657494
609.000000,0.002000,0.270582,0.701705,0.097403,2.499770,1.341585,-1.116877,-5.710691,-15.290964,-1.551752
610.000000,0.002000,0.107817,-0.324354,-0.146995,-1.372837,-3.414838,2.148208,-8.821443,23.527317,11.653854
611.000000,0.002000,0.012607,0.368815,0.122367,0.255194,1.464476,-1.859226,-3.782930,-30.907165,-5.929820
612.000000,0.002000,0.517573,-0.250656,-0.414033,0.140452,1.261284,3.059426,-12.585154,6.719539,9.588943
613.000000,0.002000,-0.116979,0.165983,0.127978,-1.946613,-1.761123,-1.412203,16.619419,-19.426825,-18.193753
614.000000,0.002000,-1.022585,0.056983,-0.362232,3.033788,-0.918060,-0.952741,9.165294,-0.540238,2.566240
615.000000,0.002000,-1.360893,1.665865,-0.666341,-0.073075,0.141213,1.525809,2.076552,-2.589607,1.119054
616.000000,0.002000,0.187376,0.119829,0.652461,-1.745152,0.554822,1.483662,-5.547997,-3.003385,-16.556793
617.000000,0.002000,0.099308,-0.039810,-0.186602,-1.175065,-5.160311,1.809748,-11.503508,6.946004,23.087711
618.000000,0.002000,0.029652,-0.118307,0.467397,1.482807,-0.823890,-2.840611,-2.682057,7.170050,-24.035252
619.000000,0.002000,0.440077,-0.071197,1.072580,-0.075879,0.851450,-2.469216,-3.686598,0.635892,-8.525287
620.000000,0.002000,-0.157248,0.064236,0.011988,0.463364,3.811488,-0.532941,27.841271,-9.715568,8.297633
621.000000,0.002000,0.413211,0.379992,0.313825,0.072719,-0.396873,0.437662,-11.485720,-11.311550,-9.251302
622.000000,0.002000,-0.993472,1.020135,-0.281494,1.503078,-0.918461,0.376751,4.677627,-4.999555,1.496729
623.000000,0.002000,0.467239,0.739894,-0.665902,-1.730284,0.962956,0.736875,-4.174323,-6.570367,5.957108
624.000000,0.002000,0.095050,0.011455,0.097721,1.848971,-4.258876,-0.411992,-16.516113,-6.455671,-18.299596
625.000000,0.002000,-1.385600,-1.412696,-0.505452,-0.190779,1.392721,-0.932185,2.834159,2.985779,1.047261
626.000000,0.002000,-0.115846,-0.139264,-0.228011,2.970139,0.873155,3.424258,5.857856,10.777393,24.343643
627.000000,0.002000,-0.178209,-0.614404,0.480093,-2.413785,-0.181357,-2.363592,3.095759,12.083508,-9.778532
628.000000,0.002000,0.395977,-0.973225,-0.116092,0.799002,-0.201707,-3.973629,-4.625919,9.076555,1.479026
629.000000,0.002000,-0.229310,-1.368829,-0.704900,1.342404,-1.098006,2.612758,0.948357,5.822138,2.698480
630.000000,0.002000,0.465586,-0.480574,0.912259,-2.488497,0.714529,-1.156241,-4.650264,4.308865,-6.809403
631.000000,0.002000,-2.138228,2.326297,-0.462503,-0.108239,0.219762,-0.044353,1.260900,-1.404208,0.298359
632.000000,0.002000,-0.142520,-0.082165,0.156424,-1.691391,1.227251,-2.329625,12.985411,12.319362,-13.050878
633.000000,0.002000,1.942009,-2.321373,0.530197,-0.141324,-0.387026,0.210979,-1.289912,1.528251,-0.342047
634.000000,0.002000,-0.021951,-0.057919,0.447970,-3.089306,0.420128,-2.414103,0.634874,6.710750,-25.538582
635.000000,0.002000,0.502881,0.747980,0.027078,-1.371851,1.865789,-0.399998,-7.473309,-10.616327,0.291889
636.000000,0.002000,-0.358360,-0.326145,0.150158,0.174309,2.165044,-0.303629,17.073813,14.314300,-7.288197
637.000000,0.002000,-0.595182,0.475461,0.233783,1.795233,0.089202,-3.217524,11.555028,-9.639908,-4.380908
638.000000,0.002000,-0.804090,-0.618523,-0.553377,3.561054,-0.274638,0.396692,6.828710,5.172116,4.545531
639.000000,0.002000,0.673808,0.230388,1.301131,-1.997387,0.104463,-1.612989,-3.072878,-0.806139,-5.987601
640.000000,0.002000,-2.634213,-0.547287,-0.688301,0.236255,-1.374112,-1.232468,2.458957,0.446001,0.723642
641.000000,0.002000,0.890887,-0.866596,1.059759,-1.652348,2.085061,1.127290,-3.192823,2.971719,-3.611321
642.000000,0.002000,-0.212026,0.202827,0.407764,0.421994,0.755629,-4.276870,9.219382,-9.392023,-19.452327
643.000000,0.002000,0.372570,2.188309,1.547346,0.979321,-0.558078,0.200951,-0.343377,-2.090469,-1.504264
644.000000,0.002000,0.830243,-0.075803,-1.453624,-1.036546,-1.044837,0.787193,-2.664281,0.268538,4.742223
645.000000,0.002000,0.189834,-0.303617,-0.276668,-0.461144,1.174794,-1.020876,-12.310150,17.815419,13.687017
646.000000,0.002000,1.489611,-0.543400,-0.683337,-1.033204,0.367641,0.926225,-4.553188,1.722416,2.023008
647.000000,0.002000,1.075852,-0.434125,-0.650304,-1.401676,1.541304,-1.938801,-5.907287,2.656199,3.273377
648.000000,0.002000,0.717349,-0.270644,0.282425,-3.301813,-0.659225,0.411824,-12.974936,6.288460,-6.899100
649.000000,0.002000,-0.051914,0.061997,0.030279,1.272826,-4.392323,0.348985,5.712588,-7.141566,-0.033633
650.000000,0.002000,3.371809,-0.701390,-0.422755,1.057507,0.592841,0.959867,-1.584495,0.351567,0.191629
651.000000,0.002000,-0.544299,0.375332,-1.461609,1.135438,1.284623,2.337007,1.782155,-1.373128,5.321629
652.000000,0.002000,0.306999,0.080082,-0.104569,-1.349564,2.899925,0.458204,-28.415086,-8.095115,4.663726
653.000000,0.002000,0.777098,0.198395,0.527772,-1.205431,2.572106,-2.214783,-10.146069,-2.178408,-6.404849
654.000000,0.002000,1.105292,-0.310525,1.447340,-1.829951,0.058552,-1.132887,-2.865005,0.827060,-3.689608
655.000000,0.002000,-0.530172,1.793430,0.577742,-0.874837,-1.477258,-1.227919,1.199477,-4.052849,-1.254325
656.000000,0.002000,-0.742363,0.265247,1.816359,1.902829,0.259202,-0.056739,1.586465,-0.612478,-4.201089
657.000000,0.002000,0.599142,0.145815,0.030704,-1.729073,0.051802,-3.469270,-19.755415,-3.845205,-0.673728
658.000000,0.002000,0.204662,0.008792,-0.107645,0.967795,1.005378,-1.071170,-25.978829,-4.621414,14.166899
659.000000,0.002000,-0.172369,0.717026,0.917129,0.704062,0.051100,-1.763419,1.265826,-6.148850,-8.078321
660.000000,0.002000,0.467364,0.438016,-0.966036,-0.831997,1.512871,2.114761,-3.594284,-4.049383,7.526942
661.000000,0.002000,0.395028,-0.096118,-0.580016,1.222280,0.329331,2.341823,-10.508934,2.200672,14.197771
662.000000,0.002000,-0.199581,-0.408059,-0.445028,2.081055,1.670057,3.710924,4.904043,12.866954,13.092283
663.000000,0.002000,0.219448,0.390900,-0.513385,-1.023389,-0.613991,3.575296,-5.619710,-11.056042,14.266731
664.000000,0.002000,0.265437,0.441368,-1.113668,0.020136,-2.430063,1.090379,-1.638504,-3.149919,7.858095
665.000000,0.002000,-0.283390,-0.167949,-0.080619,-2.821143,3.430928,-0.186585,22.567738,14.219950,5.140069
666.000000,0.002000,-0.004533,-0.286244,0.003768,-1.635166,-2.927428,-1.405026,-2.248730,35.153624,0.192739
667.000000,0.002000,-0.839578,-1.164296,-0.711682,1.267585,1.185933,2.014294,3.155027,4.199742,2.676326
668.000000,0.002000,0.377150,-0.345457,0.168522,3.369744,2.340673,2.320224,-18.087703,14.558030,-4.714674
669.000000,0.002000,-0.982103,-0.421658,0.239058,0.833609,1.631479,1.791712,9.125972,3.876610,-2.681059
670.000000,0.002000,0.280319,0.212804,0.352981,0.303254,-2.224852,-3.602352,-13.211087,-7.321344,-17.140083
671.000000,0.002000,0.032505,0.051647,0.281428,-1.631060,2.770909,-3.999081,-4.910533,-5.833388,-30.967085
672.000000,0.002000,0.398107,0.139578,-0.352072,-2.722030,-0.926540,2.675028,-15.995024,-8.076864,13.836308
673.000000,0.002000,-0.239732,0.724509,-1.353316,-1.363195,-0.035788,3.760757,0.780940,-2.821002,5.328035
674.000000,0.002000,-0.079107,-1.311136,1.124477,-1.262034,1.983691,-0.153191,0.174600,3.928875,-3.349398
675.000000,0.002000,-0.246083,0.076239,-0.067741,2.199291,-4.308676,1.377561,24.823574,-7.636134,10.898500
676.000000,0.002000,-0.249912,-0.194742,0.227257,2.986386,1.230934,-3.626436,15.793501,14.520562,-14.422059
677.000000,0.002000,0.232701,0.223174,-0.229980,-2.577562,-1.114775,-1.502501,-14.037420,-13.168688,19.812858
678.000000,0.002000,-0.617639,-0.266539,-0.115120,1.036607,1.017182,-3.547260,16.608002,7.367679,3.646780
679.000000,0.002000,1.343155,0.669031,0.127395,-1.838814,-0.632032,0.605022,-5.831815,-3.102075,-0.295960
680.000000,0.002000,0.556965,0.817388,0.156260,-2.782727,-2.097083,-1.274559,-7.099707,-8.381185,0.338714
681.000000,0.002000,0.051273,-0.206606,-0.040155,3.879489,1.418037,3.534981,-1.785644,26.455666,10.886627
682.000000,0.002000,0.030669,-0.010016,0.007764,0.163556,-2.273405,-2.093613,-1.171803,2.666669,3.068819
683.000000,0.002000,0.102522,-0.174675,0.125779,0.247399,-2.484337,5.108413,-17.857677,22.369309,-13.642839
684.000000,0.002000,-0.110411,-1.226689,-0.276906,-1.446270,2.736435,-0.798197,1.091729,8.481702,2.089341
685.000000,0.002000,0.126820,-0.194318,-0.027550,3.817398,-1.553434,0.315742,-18.178162,28.345890,-1.843872
686.000000,0.002000,-0.054858,-1.100145,-0.338652,-0.541040,2.017676,1.247882,-0.049388,9.195456,2.883795
687.000000,0.002000,-0.157009,0.371382,3.108537,-0.517103,-0.384025,-0.420640,0.090441,-0.211191,-1.965328
688.000000,0.002000,0.042396,1.534223,-0.884197,-0.328219,-0.333613,1.883059,0.191446,-4.782882,2.439407
689.000000,0.002000,-1.373918,-0.091449,0.311085,1.731896,0.700703,2.318101,7.360832,0.551845,-1.541591
690.000000,0.002000,1.714508,0.342511,1.427454,-0.543383,1.057855,-0.702698,-2.652689,-0.483644,-2.242787
691.000000,0.002000,0.239694,-0.793009,0.540400,-3.203482,0.192701,-1.249187,-2.752697,9.063458,-6.631279
692.000000,0.002000,0.097124,-0.085422,-0.082421,-2.077987,-1.665385,-2.533889,-6.143011,9.996773,21.311837
693.000000,0.002000,-0.299913,0.736007,1.064545,0.070942,-0.531216,-2.578653,1.798696,-4.455826,-6.627735
694.000000,0.002000,-0.238474,0.026404,-0.308108,-0.890260,-1.850111,2.731403,13.344570,-2.900457,23.192598
695.000000,0.002000,0.358534,0.394618,-0.207265,1.783761,1.238462,1.466200,-13.122546,-14.642287,8.636252
696.000000,0.002000,-0.961284,-1.230389,2.054257,1.051550,-0.220548,0.327059,1.008061,1.318229,-2.244591
697.000000,0.002000,1.656143,-2.109622,2.057285,-0.703317,-0.265063,0.255455,-0.855626,1.054205,-1.029858
698.000000,0.002000,0.124462,-0.068868,0.341534,-0.203536,0.957664,-2.915948,-16.564641,4.853456,-23.560067
699.000000,0.002000,1.914748,-0.142248,-0.413366,-0.092447,2.639402,-1.140250,-4.134869,0.280284,0.868352
700.000000,0.002000,-1.422829,0.473400,1.962775,-0.064691,-0.393686,-0.313393,1.781115,-0.612886,-2.482419
701.000000,0.002000,-1.148294,0.246432,1.208133,-0.589673,-0.682758,-0.295414,3.845933,-0.726595,-4.177885
702.000000,0.002000,-1.594936,0.944246,1.712994,-0.608403,-1.280339,-0.684254,1.826248,-1.137127,-2.048086
703.000000,0.002000,-0.762050,0.483024,0.164276,-0.405217,-1.492611,1.434818,12.450065,-6.973369,-2.452119
704.000000,0.002000,-0.793166,1.251098,1.241539,0.217790,-1.558537,-1.059209,2.035618,-2.413746,-2.766184
705.000000,0.002000,-1.962664,-1.457209,-1.532838,-2.339332,0.591315,2.399008,1.563177,1.143811,1.246563
706.000000,0.002000,0.203895,0.068477,-0.209546,1.485266,-0.088750,-4.330459,-17.399960,-12.946450,17.602167
707.000000,0.002000,0.098915,-0.273161,-0.349299,2.086259,1.242511,-2.700703,-5.413498,16.056746,18.331402
708.000000,0.002000,0.038041,0.129815,0.206743,-0.709594,-1.981663,3.755471,-5.335767,-11.053398,-26.285246
709.000000,0.002000,-2.551020,0.404935,-1.448356,-1.028514,-0.213153,-1.360360,1.855516,-0.290161,1.044007
710.000000,0.002000,0.355434,0.066656,-0.451206,-2.425722,0.230935,-0.028759,-12.257631,-3.578160,16.719126
711.000000,0.002000,-0.892486,-0.781694,2.131531,0.206626,-0.332759,-0.614578,1.091273,1.029065,-2.732570
712.000000,0.002000,0.082968,-0.274860,-0.240379,2.035595,2.154746,3.262522,-6.403995,20.694172,17.326964
713.000000,0.002000,-0.209411,-0.700089,0.388820,-1.128472,-0.737975,-0.456818,3.887382,12.479830,-6.425026
714.000000,0.002000,0.550313,-0.104665,-0.165595,-1.335914,1.761692,-1.543093,-19.062104,4.174800,5.357639
715.000000,0.002000,0.343608,-0.848931,-2.322541,1.546495,-0.405252,1.004402,-0.416266,0.989196,2.730506
716.000000,0.002000,-0.571355,0.329851,0.447815,3.148189,-0.111737,-2.184700,11.091683,-6.480704,-8.875200
717.000000,0.002000,-0.231470,0.104221,-0.052162,0.942691,2.371498,5.029004,23.338009,-11.915684,9.248020
718.000000,0.002000,0.167213,-0.548261,1.526462,-0.236846,2.419863,-0.640402,-0.897703,2.100025,-5.466740
719.000000,0.002000,0.206295,-1.067698,-1.163489,0.001716,1.938879,0.805711,-0.894316,3.782534,4.498717
720.000000,0.002000,0.127833,-0.272210,-0.464360,1.271919,2.159686,4.050108,-4.259195,10.338257,16.666361
721.000000,0.002000,0.303840,-0.265678,0.028472,0.935567,4.122202,1.916419,-21.158769,18.256961,-2.292578
722.000000,0.002000,-0.322696,0.356616,0.259338,-1.693016,-2.520455,2.412495,11.773185,-13.587238,-10.419889
723.000000,0.002000,-0.087607,-0.704143,-0.098557,1.032193,3.106629,0.696399,0.778187,17.261264,1.212408
724.000000,0.002000,0.118375,0.323226,0.594019,-1.754289,-0.608763,-4.685022,-3.966098,-8.288751,-14.983735
725.000000,0.002000,-0.109337,0.314431,-0.280037,-2.213771,1.004499,-0.526472,5.888799,-19.998348,13.780210
726.000000,0.002000,0.456420,1.553778,-1.702027,-1.261297,-0.096932,-0.066664,-0.705558,-2.152090,2.362418
727.000000,0.002000,-0.168498,0.768781,-0.590428,0.258206,-2.025281,3.003931,2.126942,-8.958716,6.946929
728.000000,0.002000,-0.727132,0.010327,-0.053271,2.070203,3.057727,2.204509,17.203425,0.259694,2.008911
729.000000,0.002000,-0.347390,0.238000,-0.152886,3.198075,-3.665651,1.075051,21.523690,-14.441333,9.488872
730.000000,0.002000,-0.385988,0.249779,0.455658,3.089165,1.972644,-1.444290,11.216291,-7.623191,-14.410984
731.000000,0.002000,-0.126748,-0.348200,-0.201640,2.256142,-2.936872,0.306256,5.792106,20.969030,13.014198
732.000000,0.002000,-1.096233,0.152302,0.116589,2.487360,1.184596,-1.865877,9.670669,-1.475317,-0.790074
733.000000,0.002000,0.022440,0.255785,-0.119156,1.422742,-5.096611,3.256774,-3.546444,-23.580139,13.361161
734.000000,0.002000,-0.271534,0.102064,-0.372598,-0.389940,1.957446,3.380612,12.929025,-5.349965,19.026120
735.000000,0.002000,0.448506,-0.346286,0.429068,-3.014750,0.720759,-2.244538,-10.991706,7.936785,-10.266281
736.000000,0.002000,-0.580580,-0.063447,0.488629,0.857827,-2.470086,1.191337,11.897998,1.422776,-10.252458
737.000000,0.002000,-0.165480,-0.847593,-0.097124,1.007342,0.317381,2.402501,2.057305,13.759404,1.257941
738.000000,0.002000,1.164682,0.380556,-0.961486,-2.079518,1.674264,-0.087304,-4.596868,-1.416733,3.820299
739.000000,0.002000,-0.759514,-0.743112,0.505867,1.206885,3.151241,-2.709205,5.905333,6.229066,-4.200672
740.000000,0.002000,-0.076620,0.246134,-0.491816,1.286410,0.520176,2.770737,2.233299,-9.546367,19.435392
741.000000,0.002000,1.218951,-0.500704,-0.640047,-1.799358,1.452161,-1.604408,-5.956759,2.469194,2.570139
742.000000,0.002000,0.073931,-0.022891,-0.056144,0.782090,3.725148,-2.559310,-6.713980,2.617991,15.326832
743.000000,0.002000,1.086142,0.772400,-0.130050,-1.726973,1.168887,1.514217,-6.240141,-4.622413,0.792974
744.000000,0.002000,-0.557989,0.103878,-1.421030,1.672304,-1.868481,0.175013,2.043258,-0.451552,5.956916
745.000000,0.002000,-1.305942,0.694625,-1.778030,1.376267,-1.408007,0.123304,1.832530,-1.027072,2.584382
746.000000,0.002000,-0.260200,-0.045944,-0.092232,-1.135736,-1.282043,0.237927,23.130557,3.500052,9.152162
747.000000,0.002000,0.276856,0.133520,-1.247317,1.117376,-0.681585,2.488805,-1.734649,-0.978276,8.126352
748.000000,0.002000,-0.201102,-0.128335,0.371138,-0.837678,-3.349169,-3.852684,11.026136,8.791077,-22.109515
749.000000,0.002000,-0.409518,-1.030454,0.080987,3.486598,1.601166,0.322372,3.547502,9.502750,-0.992808
750.000000,0.002000,-0.243515,-0.015583,0.069503,1.629309,0.489294,3.259154,24.922589,-1.111762,-0.306435
751.000000,0.002000,0.020451,0.677724,0.289931,-1.267594,-3.399797,0.331761,0.024610,-15.312308,-5.902432
752.000000,0.002000,1.388169,-2.599635,-1.276497,0.680177,0.544501,-0.237359,-0.824294,1.509634,0.724040
753.000000,0.002000,0.034533,0.275422,-0.086275,1.901212,-1.816431,-0.824506,-2.524341,-18.308125,7.543750
754.000000,0.002000,-0.562465,-0.151654,0.195886,0.133676,-1.365706,2.071931,17.510948,4.730209,-5.356792
755.000000,0.002000,-1.877021,0.977295,-0.812382,0.346226,0.210042,2.015388,2.936217,-1.541235,1.268758
756.000000,0.002000,-0.098078,-1.062141,-0.458007,-1.269759,0.412155,2.473782,0.906704,8.900824,3.548256
757.000000,0.002000,-0.195251,0.196048,0.084953,0.890516,-3.112602,-0.880506,22.547291,-18.799312,-8.132316
758.000000,0.002000,0.027742,-0.106735,-0.310342,0.658344,-1.290690,-0.790438,-1.028422,3.967028,27.272390
759.000000,0.002000,0.157356,-0.187254,0.218204,-3.769587,-1.946873,-1.555445,-16.279800,17.722690,-20.476284
760.000000,0.002000,0.804429,0.514719,-0.253098,-2.951825,-1.088331,1.064968,-8.537886,-6.047385,3.691695
761.000000,0.002000,-0.087697,-0.257753,-1.055082,2.077195,-0.539086,2.404511,1.130031,2.186694,9.994340
762.000000,0.002000,0.254701,-0.180322,0.227717,2.231272,1.514302,-0.190480,-17.727795,11.343420,-17.926308
763.000000,0.002000,-0.887554,0.359354,0.100234,2.518744,-0.213851,-0.234121,11.741323,-4.997769,-1.166423
764.000000,0.002000,0.110133,-0.094278,-0.248165,-0.808024,3.443028,-1.370282,-10.174098,9.458044,24.209047
765.000000,0.002000,-0.247617,-0.309429,1.697357,-0.781917,0.068455,-2.455466,0.928136,0.926427,-5.256962
766.000000,0.002000,0.041304,-0.440627,-0.042071,-1.378918,-0.864284,3.120249,-4.422347,22.684415,2.617350
767.000000,0.002000,-0.255003,-0.266109,0.110308,4.177991,2.875742,0.258654,15.890306,16.758436,-5.822149
768.000000,0.002000,0.374520,0.280273,-0.441808,0.618743,-3.866245,1.454763,-10.413026,-6.966623,13.866059
769.000000,0.002000,-0.104492,0.123489,0.286703,-2.086865,-1.675429,-1.451752,6.390820,-13.233171,-26.016171
770.000000,0.002000,0.900104,1.935192,-0.952203,0.876114,-0.686839,0.216728,-1.228493,-2.697241,1.373014
771.000000,0.002000,0.988426,-0.427516,-0.707549,-1.139731,1.788531,0.641324,-5.780106,2.583973,4.354095
772.000000,0.002000,0.092298,0.119213,0.412614,-0.389128,-1.087471,-4.660204,-7.068010,-5.448879,-22.375606
773.000000,0.002000,0.300283,-0.184221,-0.353557,-1.696205,3.396065,-0.778781,-15.696033,9.166623,16.122858
774.000000,0.002000,0.118071,0.072319,0.154509,0.134151,-2.420207,-2.370211,-24.861898,-4.159969,-25.004120
775.000000,0.002000,-0.149810,0.621679,-0.178375,4.365825,-1.867063,-0.781615,2.768548,-17.002982,6.394043
776.000000,0.002000,0.812191,0.013162,-1.112112,-1.160870,-3.131000,1.454722,-4.359702,-0.106811,5.945246
777.000000,0.002000,-0.412211,-0.108640,0.225069,1.562402,-1.171275,0.193543,19.776451,9.149483,-10.946442
778.000000,0.002000,-0.012785,0.146070,0.233120,-1.519815,-3.733340,2.471073,0.905512,-14.480719,-24.136518
779.000000,0.002000,-0.066094,0.258964,0.166712,-2.256899,1.830184,0.574400,0.475145,-28.111305,-13.817179
780.000000,0.002000,-0.127489,0.376358,0.297064,4.947319,-0.054514,-0.510775,6.187966,-18.677144,-15.062647
781.000000,0.002000,0.834987,0.488005,-0.405222,-1.088544,-0.015081,3.166290,-7.977959,-4.829482,4.087098
782.000000,0.002000,0.156292,-0.338752,0.887607,-1.995356,0.497617,-1.542174,-1.847706,4.187766,-11.089899
783.000000,0.002000,0.322730,0.742587,1.731693,-1.207352,-1.521298,-1.385412,-0.828790,-1.771450,-4.178288
784.000000,0.002000,0.034872,0.019971,0.399010,0.356565,-2.810559,0.860467,-5.383825,-2.114295,-26.591128
785.000000,0.002000,0.333282,0.746978,-0.274048,-2.414627,1.755186,4.080244,-5.053638,-11.600074,4.730664
786.000000,0.002000,-0.427104,0.166479,0.480068,-1.185907,1.111287,-3.381520,10.048988,-1.999541,-11.870407
787.000000,0.002000,0.751756,-1.684982,-2.547991,0.355242,0.268093,0.787039,-0.477820,1.049118,1.577376
788.000000,0.002000,-0.134285,0.510945,0.363204,3.319204,-1.432452,2.200861,3.408205,-15.150546,-10.865240
789.000000,0.002000,0.214288,0.460118,-0.067515,0.195807,2.269915,-0.269026,-9.900110,-21.130712,4.016069
790.000000,0.002000,-0.156115,0.245247,-0.582520,1.174837,0.024675,-1.728160,0.659408,-2.651416,18.088080
791.000000,0.002000,0.721818,-0.384055,-0.768506,-2.391806,-1.156570,2.843332,-6.219470,3.495465,6.392905
792.000000,0.002000,-1.265924,-0.466399,-0.148331,1.613078,-0.958741,1.144737,6.635678,2.308574,0.731839
793.000000,0.002000,-0.358168,1.012307,0.151192,1.011043,-1.977197,-1.041295,2.814234,-9.808759,-1.205033
794.000000,0.002000,-0.355986,0.378619,0.612102,-2.479051,0.589214,-3.604822,7.039065,-7.067653,-11.356227
795.000000,0.002000,-0.547738,0.218094,0.019928,2.334809,-3.798930,-0.229434,20.198454,-8.024136,-0.210612
796.000000,0.002000,-2.024380,-1.856784,-0.093976,-1.002953,0.440146,0.389397,1.851222,1.728682,0.049475
797.000000,0.002000,-0.404387,-0.353332,0.029815,3.084187,-1.311557,0.696970,16.153958,15.017179,-1.997223
798.000000,0.002000,-1.502389,0.202883,0.937170,-0.060013,-1.970818,1.069010,5.088306,-0.474242,-2.493428
799.000000,0.002000,0.234039,-0.301292,0.224143,0.592963,0.662954,-0.695997,-12.484325,16.138335,-11.936545
800.000000,0.002000,-0.246487,0.109093,-0.013441,0.158222,2.996302,2.045105,22.947832,-12.334672,3.679244
801.000000,0.002000,-0.383852,0.176231,0.053248,2.668877,0.400625,-0.596072,23.126659,-12.144111,-3.340094
802.000000,0.002000,0.775131,0.083975,0.601295,-2.184086,-0.804090,-1.384203,-9.187639,-0.658558,-7.607168
803.000000,0.002000,0.281761,-0.293373,-0.320123,-0.070161,-1.906137,0.781621,-12.512530,13.957252,13.017343
804.000000,0.002000,-0.500601,0.495088,-0.551424,-1.780964,1.029319,1.887415,6.988774,-6.331899,6.970563
805.000000,0.002000,-0.204057,0.184839,0.027326,-0.667438,2.019787,0.062089,20.714762,-20.222731,-0.278410
806.000000,0.002000,0.479994,1.400449,0.253601,-2.694024,-1.990696,-1.834534,-1.845807,-6.077136,-1.045630
807.000000,0.002000,0.845586,-0.656712,0.531882,-1.548604,1.706542,-0.770935,-6.252226,4.699261,-3.707134
808.000000,0.002000,0.430345,-0.035918,-0.371253,-0.624917,3.111319,2.447562,-16.082215,1.884682,12.036314
809.000000,0.002000,0.181187,0.363560,-0.139067,-1.612194,-0.511669,3.180816,-12.450294,-24.593863,11.615442
810.000000,0.002000,-0.308536,-0.079311,-0.115305,-0.111913,1.609807,-0.892057,27.659494,7.604575,10.909457
811.000000,0.002000,-0.732794,-1.697356,-0.768675,-0.807196,-0.289893,1.703276,1.498289,3.810870,1.578016
812.000000,0.002000,0.008516,-0.192611,-0.293523,-0.840647,1.625500,5.507676,-1.781055,17.899296,22.201731
813.000000,0.002000,-0.201119,-0.207282,0.507688,1.259555,3.014661,-2.607189,7.184983,7.554538,-18.722422
814.000000,0.002000,-0.878774,0.989554,-0.281499,-1.130503,-1.004462,1.494635,4.810050,-5.890340,1.924981
815.000000,0.002000,0.394803,-0.035791,-0.406059,-2.946034,-0.562599,2.223395,-14.710477,2.322694,14.843089
816.000000,0.002000,-0.355143,-0.357985,-0.247439,2.674797,-1.539730,2.311537,14.073831,11.962259,8.905963
817.000000,0.002000,0.929973,0.424097,0.883972,-0.026613,-1.509870,-2.828372,-5.521972,-2.243646,-5.198447
818.000000,0.002000,0.283816,0.565857,-0.818836,-2.824988,-1.387341,2.507750,-2.774044,-5.914263,8.435260
819.000000,0.002000,0.029352,-0.946523,0.312081,1.336891,1.242005,-3.254300,-0.815607,10.816251,-3.326751
820.000000,0.002000,0.190917,-0.163218,-0.039066,-0.241495,1.262150,-1.313758,-24.347934,18.497759,3.625264
821.000000,0.002000,-0.273719,-0.288273,-0.181232,4.176856,0.295053,-0.576397,16.132131,17.950474,9.474467
822.000000,0.002000,-0.765638,1.664907,-0.441002,1.258441,-0.323951,2.901527,1.857864,-4.157221,1.086794
823.000000,0.002000,0.179000,0.717045,-0.045417,1.079525,-2.974718,2.796310,-1.860535,-13.780582,5.380702
824.000000,0.002000,-0.017210,0.087213,0.074682,-1.898502,4.632063,-1.266604,-2.984351,-8.480396,-10.836188
825.000000,0.002000,-1.453698,0.299858,-1.626564,1.976719,1.624010,0.586590,2.384383,-0.555311,2.691742
826.000000,0.002000,0.483450,0.012254,-0.945572,0.621961,0.718829,1.899457,-4.806689,-0.088493,8.770147
827.000000,0.002000,-0.243411,0.206312,-0.180807,-0.893697,1.750320,-1.353664,19.691591,-14.808143,14.997233
828.000000,0.002000,2.378005,-0.327119,-1.143323,0.174109,-0.607318,0.067078,-2.385563,0.296637,1.217899
829.000000,0.002000,-0.114905,0.388022,-0.237562,4.492027,0.105604,-0.730544,6.304032,-20.548463,12.398782
830.000000,0.002000,-0.036116,0.320568,0.037766,-0.271675,-4.557703,-2.389263,2.655091,-28.850271,1.371723
831.000000,0.002000,-0.371671,-0.094434,0.483758,0.296370,-0.782378,-4.707676,12.403743,2.677966,-16.867353
832.000000,0.002000,0.987851,-0.317202,1.051424,-1.729814,0.351721,-1.017096,-4.010574,1.897653,-4.718205
833.000000,0.002000,-0.095416,-0.626688,0.277968,-1.450186,-1.244461,-3.107387,1.618358,15.244962,-6.639863
834.000000,0.002000,-0.108819,0.105488,-0.387465,3.248822,4.141730,0.568725,3.501976,-4.874921,23.983879
835.000000,0.002000,2.228555,-0.540779,0.837837,-0.544106,0.650052,1.224352,-2.825847,0.743396,-1.048479
836.000000,0.002000,-1.299548,1.582987,-2.747975,-0.138683,0.294310,-0.117313,0.628351,-0.775652,1.347758
837.000000,0.002000,-0.760046,1.260705,1.296092,3.138040,0.513947,1.279318,1.489386,-2.879051,-3.563123
838.000000,0.002000,-0.008388,-0.351119,-0.128322,1.145605,3.573170,-1.448614,-1.786421,26.811463,9.408631
839.000000,0.002000,-0.340201,-0.199402,0.320056,2.232905,3.813812,1.227051,15.873592,8.404848,-15.614570
840.000000,0.002000,1.645340,-0.063301,-2.693802,0.614631,0.747950,-1.151057,-1.003713,0.032639,1.638131
841.000000,0.002000,1.120030,1.270560,0.286538,0.555749,-0.116865,-2.257417,-3.613588,-3.981505,-0.831971
842.000000,0.002000,-1.109481,-0.012875,0.514206,-0.127231,1.529760,-1.260284,9.812808,-1.672575,-4.054499
843.000000,0.002000,0.382996,0.162368,0.219758,-3.621429,-0.357493,-0.809574,-14.832656,-3.023646,-13.572106
844.000000,0.002000,-0.679954,0.697473,1.466511,-0.855383,0.512367,0.110103,1.836651,-2.199040,-4.514768
845.000000,0.002000,-0.036136,-0.178829,0.189102,3.075071,4.582304,1.127183,5.379420,18.070397,-20.749282
846.000000,0.002000,-0.242155,-0.140883,-0.451160,-1.374080,0.975338,-0.232797,8.364120,6.057626,19.486616
847.000000,0.002000,0.029897,-0.431531,0.656840,0.265703,2.559700,-2.727901,-1.079040,9.036131,-12.555390
848.000000,0.002000,0.640297,0.566006,0.008683,-0.463086,-3.318660,-1.353727,-10.849556,-8.990990,0.160079
849.000000,0.002000,0.719942,1.564680,0.728878,-3.078521,1.694895,-0.883532,-1.888337,-3.969348,-1.880856
850.000000,0.002000,0.104733,-0.387044,-1.033726,-2.058620,1.390243,0.637265,-0.762473,3.964984,9.786719
851.000000,0.002000,-0.810896,-0.289644,0.554350,2.564088,2.890759,-0.195266,8.455710,4.415940,-6.239906
852.000000,0.002000,-0.170426,0.264709,-0.574914,-1.879263,-2.637026,0.978990,7.575388,-10.601995,12.277261
853.000000,0.002000,-0.371360,0.251805,0.129913,-0.215607,-0.185094,0.350490,20.632770,-14.694012,-6.466599
854.000000,0.002000,0.172799,0.215355,-0.068091,-3.568899,-2.798316,1.224252,-17.615565,-19.435904,3.760025
855.000000,0.002000,-0.018609,-0.199352,-0.621976,-2.915290,3.154151,1.893637,0.265521,6.496391,16.387885
856.000000,0.002000,-0.210131,0.408190,0.147639,1.751469,-3.581005,-0.527753,10.686813,-20.328808,-7.198189
857.000000,0.002000,-1.136249,-0.418594,0.566361,1.645711,-1.175490,-1.739073,6.231351,2.823920,-3.341730
858.000000,0.002000,1.253607,0.027598,-0.415290,-0.715296,-1.085420,3.168847,-7.292436,-0.187614,2.351087
859.000000,0.002000,0.301719,-0.210624,-0.176384,0.834591,-0.367351,3.050140,-25.420674,15.375204,12.571919
860.000000,0.002000,-0.198030,0.008606,-0.120012,0.234187,4.821999,1.398078,23.208902,-0.029387,15.490061
861.000000,0.002000,-1.054045,-2.496064,0.493220,0.851872,0.004535,0.142204,0.934287,2.300429,-0.451129
862.000000,0.002000,0.157603,-0.113627,-0.507227,-2.929331,-0.235319,1.933412,-5.214714,4.974981,21.406301
863.000000,0.002000,-1.057096,0.945643,-0.445493,2.010282,-1.120105,-0.207414,4.723163,-4.368485,2.101755
864.000000,0.002000,1.970438,0.025301,-2.865612,-0.356017,-1.377730,-0.746906,-0.933643,-0.022997,1.332391
865.000000,0.002000,1.424751,-0.713529,-1.697307,0.221302,1.533205,-0.582667,-2.038141,1.011771,2.422408
866.000000,0.002000,0.836378,-0.375814,-0.691255,-0.187072,0.585546,-0.347728,-6.607613,3.135182,5.442693
867.000000,0.002000,-0.924938,-0.472553,-0.557678,1.805087,2.193151,-1.267976,7.096763,3.825086,3.744409
868.000000,0.002000,-0.662027,0.385197,-1.469117,-0.559016,-0.013573,2.417945,2.184777,-1.423017,4.951629
869.000000,0.002000,0.180619,0.237613,0.221538,-2.289477,1.980398,2.297292,-11.083506,-14.053578,-16.712083
870.000000,0.002000,0.653195,0.591363,0.192590,-2.909915,1.910167,2.215197,-9.871478,-8.746247,-2.813323
871.000000,0.002000,-0.000815,-0.275075,-1.483094,0.577517,-1.037242,1.026171,0.077929,1.046853,6.581641
872.000000,0.002000,2.043786,0.934877,-1.028090,0.343946,-1.258766,0.229792,-2.444955,-1.193773,1.179880
873.000000,0.002000,-1.121114,-0.432674,-0.516004,0.010215,1.289731,2.850665,6.853575,2.799392,3.069889
874.000000,0.002000,0.550687,0.248684,0.220017,-1.312443,-1.793364,-4.435094,-15.763334,-6.578851,-5.955858
875.000000,0.002000,-0.660773,1.197874,0.463941,1.131919,-1.481461,-2.004676,3.276435,-6.104640,-2.375713
876.000000,0.002000,-1.455964,0.262590,0.400809,-0.840917,-1.230368,-1.649990,6.276157,-1.255058,-1.887404
877.000000,0.002000,0.880856,-0.122064,-0.221014,-3.828350,-0.868842,0.137103,-12.201635,2.442008,2.670158
878.000000,0.002000,-0.297017,-0.267171,0.129235,3.352670,0.115765,-3.270076,18.643540,13.958182,-7.002840
879.000000,0.002000,-0.452395,-0.052315,-0.097614,1.744601,3.084789,0.161667,24.020216,1.586180,5.302332
880.000000,0.002000,-0.699971,0.291384,-0.779877,0.172246,-0.518623,3.087694,5.832267,-3.094799,7.218325
881.000000,0.002000,-0.166335,0.225044,0.203457,-0.775891,-3.413054,-2.936784,14.378483,-22.777701,-15.166685
882.000000,0.002000,-0.214932,-2.084519,-0.641259,-0.219263,0.822026,-0.649449,0.316257,3.514904,1.000891
883.000000,0.002000,1.186646,0.233521,-1.372917,-0.611204,1.602818,1.935984,-3.165218,-0.656295,3.603318
884.000000,0.002000,-0.698686,1.037667,0.441337,2.600640,-0.215886,-0.515133,4.360630,-6.238271,-2.765315
885.000000,0.002000,-0.411642,-0.634715,-1.232888,-1.818257,-0.300028,2.142374,2.124983,3.053318,5.634823
886.000000,0.002000,-0.038522,0.048611,0.402165,2.644658,-2.537852,-2.556672,1.509453,-2.629275,-26.988919
887.000000,0.002000,-0.312645,-0.394055,-0.033847,-0.781460,1.518089,1.651189,15.076558,15.625180,2.778382
888.000000,0.002000,0.148157,0.211578,0.191201,-0.283859,-5.408866,-1.905012,-13.769466,-18.979368,-17.280153
889.000000,0.002000,0.057397,-0.161918,-0.083030,-2.102254,-0.153450,1.790626,-12.319479,22.672014,19.600233
890.000000,0.002000,-2.129730,0.676248,0.871615,0.834537,-0.208497,-1.793105,2.827430,-0.811316,-1.080008
891.000000,0.002000,-0.380224,-0.232930,-0.371481,2.868911,-3.092461,1.828091,14.363060,7.234195,13.693489
892.000000,0.002000,-0.120878,-0.146934,0.594745,-0.560459,-3.169855,-0.624256,1.721734,2.638301,-12.934494
893.000000,0.002000,0.639029,-0.272391,-0.995311,-2.104264,2.064447,1.259153,-4.805987,2.024116,7.341197
894.000000,0.002000,0.238554,-0.029650,0.354199,0.522304,-2.276870,-2.038587,-16.143577,3.241867,-21.641051
895.000000,0.002000,-1.039553,-0.724067,-0.977590,1.865282,-0.111668,0.678496,4.033726,2.776539,3.778767
896.000000,0.002000,-0.435950,0.048234,0.124017,0.343494,1.675337,-2.239808,24.996202,-2.695350,-6.350510
897.000000,0.002000,0.117036,-0.093482,0.014323,-0.727258,-2.467180,1.942166,-28.158171,23.471668,-2.651474
898.000000,0.002000,0.449622,-0.881622,-1.099475,-0.239326,3.760424,-0.928219,-1.517162,3.708518,4.718125
899.000000,0.002000,-0.335516,0.318934,-0.163507,0.904905,-1.656494,-2.097116,16.240951,-16.752655,8.854030
900.000000,0.002000,-0.161204,0.217988,0.147421,-1.108133,-4.987760,-1.165511,16.010471,-22.568251,-14.800026
901.000000,0.002000,-2.124851,-1.824263,-1.468642,0.103068,1.054586,0.487203,1.405674,1.262030,0.803599
902.000000,0.002000,0.273402,0.215262,-0.132063,-3.046809,-0.526564,-0.389434,-21.195388,-16.592381,10.332777
903.000000,0.002000,0.073749,0.155727,-0.089308,2.427630,1.849326,-2.373848,-15.837119,-24.920678,15.603824
904.000000,0.002000,-0.020769,-0.213986,0.001861,-3.128443,3.561295,-0.100727,5.374221,16.059082,-6.798779
905.000000,0.002000,-0.255732,0.102193,-0.484401,-0.415732,-1.659540,3.918567,8.736202,-3.219536,19.911447
906.000000,0.002000,0.242973,0.318406,0.209842,-0.073893,3.482156,-0.785281,-14.760471,-10.032358,-13.728889
907.000000,0.002000,0.035842,0.078042,0.054901,-3.366184,-2.682890,3.571544,-5.371656,-8.352114,-10.338361
908.000000,0.002000,0.263928,-0.224342,0.184646,-3.530192,1.320542,0.911217,-18.198985,15.368623,-11.651792
909.000000,0.002000,-0.731029,0.052150,0.558418,2.994695,0.338980,-1.450457,10.025710,-0.582726,-7.738172
910.000000,0.002000,-2.356190,0.324374,3.113563,0.048707,1.020376,0.830076,0.786520,-0.104523,-1.036858
911.000000,0.002000,0.322797,0.134771,0.114803,-3.885963,-1.245606,1.684072,-24.015942,-5.441109,-4.550729
912.000000,0.002000,-0.581125,-0.522688,1.626307,0.622063,-0.301113,-1.307443,1.535673,1.472666,-4.371670
913.000000,0.002000,-0.853115,-0.597519,0.893096,-1.284193,1.454104,-1.915070,4.180835,3.858155,-5.086883
914.000000,0.002000,0.220609,-1.499590,-0.456282,0.595320,-3.499335,1.680398,-0.950178,5.808325,1.552818
915.000000,0.002000,0.144938,-0.138057,-0.093353,2.369086,1.496001,-3.651590,-17.967648,17.646159,16.304983
916.000000,0.002000,1.098708,-0.282480,-1.286631,-1.024130,-0.534980,0.766010,-3.401974,0.572811,3.950548
917.000000,0.002000,1.129348,-1.839630,-1.880378,2.142002,0.952631,-0.832143,-0.919100,1.471548,1.542721
918.000000,0.002000,-0.050832,0.003452,0.159331,2.676397,-2.180844,-0.802280,2.189917,7.364484,-20.686806
919.000000,0.002000,-0.634609,0.201998,-0.165026,2.201209,0.509678,-1.831037,15.981857,-5.540002,5.370824
920.000000,0.002000,-0.369448,1.117003,0.743495,1.302782,-0.713441,-2.851369,1.951813,-5.797693,-3.818184
921.000000,0.002000,-0.001367,-0.064606,0.198563,-2.490788,3.554190,-0.279217,1.235837,9.460769,-21.411230
922.000000,0.002000,-0.045072,0.563140,-0.166077,-3.127555,0.972098,3.419855,0.681888,-19.557588,6.220630
923.000000,0.002000,0.751483,-0.952899,-1.324198,2.587276,1.464512,0.742057,-2.204837,2.558550,3.644315
924.000000,0.002000,-0.839732,0.928860,-0.252039,-1.701003,-2.058124,1.403709,5.472136,-6.137694,1.546303
925.000000,0.002000,0.394715,-0.138138,0.634459,-1.335725,-1.689444,-1.606641,-8.503573,3.392401,-12.582996
926.000000,0.002000,-0.688064,-1.303696,1.647541,0.810783,1.001875,0.118317,1.111662,2.099999,-2.657883
927.000000,0.002000,-0.003625,0.572304,-0.585616,-1.079224,-1.651016,2.830354,-0.013869,-10.041490,10.579583
928.000000,0.002000,-0.038439,-0.022432,0.011151,-1.576251,-3.155214,-2.948682,3.473938,7.411979,0.176780
929.000000,0.002000,0.114461,1.933193,-1.063108,1.361847,0.374530,1.292074,-0.203953,-3.079454,1.714453
930.000000,0.002000,0.154283,1.860596,0.933274,-1.355074,0.121110,-1.642926,-0.343190,-3.550854,-1.784835
931.000000,0.002000,0.306027,-0.845239,0.153550,0.549592,2.512209,-1.805388,-4.529339,12.309029,-2.121123
932.000000,0.002000,-0.783896,0.325912,0.170731,2.509271,-0.542307,0.866632,12.933190,-6.238052,-2.864470
933.000000,0.002000,-0.452650,0.150404,-0.112071,3.087175,-1.296817,3.544152,22.742559,-7.718270,6.691891
934.000000,0.002000,0.710602,-0.303564,-0.860641,-0.849572,1.487424,2.756169,-5.844209,2.503486,6.787969
935.000000,0.002000,-0.048090,-0.042172,-0.083566,1.691990,-1.760909,-3.129029,10.369491,6.108928,19.320473
936.000000,0.002000,0.752453,-1.566434,-0.781843,-0.539029,2.156212,0.783983,-1.984602,3.798071,1.924873
937.000000,0.002000,0.170180,0.490196,0.227455,-0.425204,-4.078180,-2.247162,-4.754920,-18.311179,-7.309468
938.000000,0.002000,1.843973,0.337028,0.261063,-1.440839,1.197187,-0.237667,-4.512235,-0.776256,-0.583740
939.000000,0.002000,0.240620,-0.139212,0.001187,1.739785,3.000559,3.192698,-27.067047,16.564482,-5.317699
940.000000,0.002000,-0.055597,-0.032841,0.296249,2.840828,1.961418,-2.518512,8.908457,5.057549,-28.729937
941.000000,0.002000,-0.394228,-1.488216,-0.335247,0.115277,-1.013820,-0.383741,1.365960,5.787237,1.192036
942.000000,0.002000,0.618870,0.253286,0.295675,-1.284393,1.154035,-0.253832,-13.432114,-4.301821,-6.066170
943.000000,0.002000,0.205208,0.395056,0.173912,0.307231,-2.637049,-3.420841,-11.695396,-15.124906,-9.096176
944.000000,0.002000,0.079254,0.353569,0.692725,-3.029388,1.597692,-2.109743,-2.677146,-7.142441,-14.418630
945.000000,0.002000,0.043398,0.815833,1.165791,2.533253,-0.272730,-1.425503,-0.358511,-4.079792,-5.913534
946.000000,0.002000,0.005855,0.932053,-1.532434,0.208679,-1.084528,0.644257,-0.214688,-2.616140,4.179190
947.000000,0.002000,-0.574395,0.466983,-0.837885,2.412442,0.032181,-1.802074,4.845992,-3.600212,8.276802
948.000000,0.002000,0.392762,0.299563,0.237974,-1.153711,-0.273882,2.504457,-16.298874,-10.594137,-8.980044
949.000000,0.002000,0.094195,-0.132147,-0.236922,-1.881779,-4.079189,0.096610,-8.964880,13.481864,23.019737
950.000000,0.002000,0.588690,-0.026953,-1.007032,-1.434448,0.419249,1.196117,-5.090636,0.385143,7.803702
951.000000,0.002000,-0.616986,-0.061097,-0.000573,0.979954,0.622733,1.465797,21.287287,2.696149,0.747104
952.000000,0.002000,0.207623,0.281518,-0.104343,-3.899713,-0.528247,2.928724,-17.224877,-17.703393,8.564763
953.000000,0.002000,-0.320142,-0.156421,0.290825,-1.334789,2.071504,2.109350,18.235664,8.462173,-14.328547
954.000000,0.002000,-0.574539,1.011630,1.651941,1.144615,0.882315,-2.031291,1.139599,-2.176761,-3.556000
955.000000,0.002000,-1.388358,0.057039,-0.438705,0.486784,0.729474,-3.089198,6.907401,-0.161412,2.321196
956.000000,0.002000,0.871259,-0.058983,-0.216891,-0.395226,3.024760,3.238874,-12.922460,0.855477,2.860154
957.000000,0.002000,0.871885,0.063497,1.779764,-1.269650,-1.078943,0.207655,-1.940014,-0.195744,-3.814581
958.000000,0.002000,0.413356,0.496720,0.031114,-2.032161,0.490663,0.932615,-11.830626,-15.103414,-0.764252
959.000000,0.002000,-0.458698,-0.089799,-0.156937,1.794978,3.216732,-1.346752,21.676000,3.563046,8.370217
960.000000,0.002000,0.443566,0.101447,0.074924,1.081497,1.365786,-1.309447,-22.470532,-3.421612,-4.728518
961.000000,0.002000,-1.135224,-2.325193,0.080439,-0.274556,0.696272,-0.587541,1.206978,2.507266,-0.056078
962.000000,0.002000,-0.590949,0.689431,-0.336326,1.552237,-2.642089,0.750439,7.428831,-8.536635,4.100689
963.000000,0.002000,0.119811,0.192620,-0.511857,1.564439,-2.147393,-0.421169,-4.520001,-7.875609,19.865466
964.000000,0.002000,-0.200173,-0.424947,0.523565,1.446100,-1.618889,-3.907284,3.315247,10.934241,-13.909608
965.000000,0.002000,0.687321,0.795283,1.138245,-1.103585,-2.061561,-1.267544,-2.765424,-3.144488,-4.718492
966.000000,0.002000,-0.261777,0.668299,0.147224,-2.846260,-3.990578,-0.433555,5.331391,-17.177563,-2.903997
967.000000,0.002000,0.237683,-1.705661,-2.306122,0.946453,1.372882,-0.802089,-0.238501,1.350647,1.882800
968.000000,0.002000,-0.024872,0.411938,0.330638,1.941537,-0.719541,-1.839134,-0.063911,-17.964896,-14.444541
969.000000,0.002000,-0.882076,-1.487126,0.447950,0.957775,1.319902,0.633126,3.052892,4.722428,-1.383100
970.000000,0.002000,-0.023770,0.162709,0.156808,2.465395,2.295647,1.611038,-0.098622,-16.134136,-18.612309
971.000000,0.002000,-0.621846,0.093608,-0.038813,3.296025,0.692188,2.182970,19.631864,-2.655340,1.754168
972.000000,0.002000,-0.379667,0.212427,-0.854718,-2.469050,-0.634031,2.572816,4.369067,-2.725418,11.264093
973.000000,0.002000,-0.342136,-1.653890,0.828005,0.131630,0.562487,-0.990072,0.759167,4.089580,-1.982204
974.000000,0.002000,0.883120,-0.796094,-0.008362,-2.561430,-2.399797,2.189940,-6.474758,5.989808,0.037875
975.000000,0.002000,0.116653,0.022795,-0.253546,-2.018751,2.465284,-0.012011,-11.628223,-6.060492,31.963028
976.000000,0.002000,0.411075,0.654138,0.403039,2.070887,-0.033897,-0.314649,-6.853848,-9.836650,-6.626848
977.000000,0.002000,-0.131362,-0.505130,-0.071950,0.268982,0.503129,2.620860,4.598178,22.483222,2.119154
978.000000,0.002000,-0.301881,-0.393932,-0.526915,-1.109916,-1.372898,2.540800,7.779964,8.528038,14.182867
979.000000,0.002000,-0.742020,-0.667160,0.063341,2.238066,2.213864,-1.174879,8.182741,7.675173,-1.097188
980.000000,0.002000,-0.648224,-1.523931,-0.697792,0.255966,1.674664,-1.660989,1.764736,4.437291,1.826671
981.000000,0.002000,-0.070589,-0.645605,0.538959,-0.277052,2.948112,-2.514038,0.609616,11.515516,-9.696330
982.000000,0.002000,0.836457,0.673529,0.211208,-1.925514,-0.423234,2.574812,-8.156262,-5.994417,-2.074871
983.000000,0.002000,-0.333358,0.192288,-1.928596,1.947547,0.672389,0.901631,0.661410,-0.384003,4.256884
984.000000,0.002000,-0.047822,-0.011451,-0.306992,-1.122810,4.623417,1.886349,3.877407,3.572698,28.800666
985.000000,0.002000,-0.108729,-0.041229,-0.059055,2.409742,-2.487730,4.401078,18.662338,7.630128,8.695671
986.000000,0.002000,-0.129448,0.280046,-0.514501,-0.349511,3.634569,0.730667,0.000583,-13.588900,19.241825
987.000000,0.002000,-0.055865,0.228019,0.110964,0.790364,-3.715405,3.701146,4.493124,-24.022903,-12.590879
988.000000,0.002000,-0.446131,0.214266,0.299277,0.082460,-1.756237,-2.702127,15.034539,-8.638912,-7.972578
989.000000,0.002000,-0.483222,0.091421,0.219099,0.482743,0.238200,-4.261534,21.512300,-1.703803,-9.746957
990.000000,0.002000,0.042414,0.205947,0.001599,0.992431,1.101989,1.520958,-10.899768,-22.427329,-4.604481
991.000000,0.002000,0.133495,-0.735960,-0.062028,2.029620,2.502201,0.364026,-4.897077,15.797081,0.677571
992.000000,0.002000,-0.049397,0.681564,2.422957,0.532731,0.467216,-0.363797,0.033508,-0.791818,-2.826902
993.000000,0.002000,-0.192047,-0.318117,0.171097,-0.529416,-0.988152,1.211419,11.882799,19.517159,-11.439942
994.000000,0.002000,-0.638500,-0.578107,1.269606,0.835176,0.488313,-0.842117,2.548437,2.479440,-5.202792
995.000000,0.002000,-1.016056,-0.301437,-0.267298,3.363822,1.734728,-0.272405,9.280448,2.762796,2.382178
996.000000,0.002000,-0.162428,1.061186,-0.267459,0.337508,-3.328450,-0.793525,1.103661,-9.821641,2.555095
997.000000,0.002000,0.386673,-1.277173,-1.623854,1.530647,1.490343,-0.930943,-0.968195,2.583334,3.421049
998.000000,0.002000,0.816523,-0.039799,-0.245414,1.358845,-1.588895,0.632640,-12.890023,1.136898,3.973962
999.000000,0.002000,0.189880,2.269584,-1.584480,-0.274263,-0.467336,-0.500734,-0.265398,-1.940609,1.319888
1000.000000,0.002000,0.002095,0.085415,0.398940,0.363572,3.444825,-2.559819,-2.245370,-5.987916,-26.432738
1001.000000,0.002000,-0.232788,0.746408,-0.088799,-3.311253,-2.431276,0.496830,8.283410,-14.879137,1.116880
1002.000000,0.002000,0.235731,-0.619642,-0.578262,-0.909487,2.979654,0.954638,-4.495250,8.608753,8.441354
1003.000000,0.002000,0.001583,0.213149,0.366973,-0.305256,-2.861620,3.099684,1.108677,-14.948282,-22.085742
1004.000000,0.002000,-0.355315,0.094310,0.034037,1.828764,-2.526768,2.039762,29.010357,-9.419631,-1.456652
1005.000000,0.002000,-0.466804,-1.984937,-1.726428,-0.544306,-0.003976,0.307210,0.460734,1.990663,1.715314
1006.000000,0.002000,0.128192,-0.008881,-0.025712,-3.109071,3.620714,-0.143069,-14.333546,-4.021631,0.933352
1007.000000,0.002000,1.863410,0.782064,-2.543790,1.128613,1.267699,0.964221,-1.148563,-0.448462,1.446259
1008.000000,0.002000,0.014318,-0.848027,-0.871450,0.333525,1.229075,0.612369,-0.598535,5.895334,6.110041
1009.000000,0.002000,0.181381,-0.937607,-0.094485,-1.959653,2.933161,-0.481112,-2.942135,11.154990,2.164692
1010.000000,0.002000,1.616180,-0.151260,0.702318,-1.269050,0.954069,-0.221043,-4.621674,0.594552,-2.060248
1011.000000,0.002000,-0.051353,-0.009945,-0.604067,-2.495483,-0.587740,3.057725,1.015106,-0.277300,19.594870
1012.000000,0.002000,-0.768863,1.671405,-0.051398,0.718425,-0.127711,-1.149154,2.111157,-4.509867,0.243183
1013.000000,0.002000,-0.418348,-0.489178,0.381890,2.118313,3.185453,2.249304,9.345763,10.166128,-8.700655
1014.000000,0.002000,0.999142,-0.305023,0.692282,-2.094248,-0.083493,-3.453926,-6.524209,2.149147,-4.589686
1015.000000,0.002000,-0.124444,-0.276560,-0.141541,-2.624546,1.503263,0.228491,10.041921,22.581394,15.488267
1016.000000,0.002000,0.891773,-0.172763,2.207798,-0.540920,1.308740,-0.801693,-1.221955,0.264732,-2.905859
1017.000000,0.002000,0.146423,0.507505,0.484572,-0.102591,0.744115,-2.537696,-3.508930,-11.562870,-11.771068
1018.000000,0.002000,0.551092,0.140393,0.451008,-2.962876,2.213479,-1.711615,-12.141348,-1.804580,-10.716843
1019.000000,0.002000,0.167520,0.103107,0.083843,1.022368,0.345964,3.199909,-25.116378,-14.062796,-10.207538
1020.000000,0.002000,0.135486,-0.236979,-0.385970,-2.665836,3.859533,0.777138,-7.720691,14.569854,18.950598
1021.000000,0.002000,-0.006031,-0.460519,-0.028517,0.893437,3.602359,2.919285,0.383387,25.009962,0.290836
1022.000000,0.002000,-1.912694,-1.339469,0.243980,-0.180015,1.130346,-1.177491,2.728215,1.940564,-0.357698
1023.000000,0.002000,0.189330,-0.081368,0.210574,-0.512928,0.137946,-4.829190,-21.894115,7.646687,-21.248602
1024.000000,0.002000,-0.915598,-0.884873,0.488702,1.737024,1.285753,-0.236056,5.045112,5.169861,-2.789191
1025.000000,0.002000,-1.237115,-0.698525,-1.228763,1.863651,0.302146,0.370443,3.324276,1.955178,3.343733
1026.000000,0.002000,-0.229839,-0.106607,-0.206050,0.727995,2.618243,-4.898370,18.578933,7.072500,20.102515
1027.000000,0.002000,-0.337129,0.258539,0.096308,-0.996823,0.447810,1.932172,20.796290,-16.341331,-3.819585
1028.000000,0.002000,0.026162,3.781387,-1.236572,0.545428,0.251400,0.550454,-0.018047,-1.194781,0.394220
1029.000000,0.002000,0.211466,-2.309173,-0.299349,-0.077979,0.768042,-0.307879,-0.314148,3.263736,0.420850
1030.000000,0.002000,1.383598,-0.430086,1.311188,-1.703007,0.270271,-0.461878,-3.162392,1.037600,-2.836459
1031.000000,0.002000,-0.043626,0.129868,0.093086,1.464920,-1.269653,2.256124,4.351947,-19.979775,-13.572116
1032.000000,0.002000,-1.330319,-0.554432,-1.251336,-0.185240,0.505626,1.155136,3.294515,1.283832,3.139651
1033.000000,0.002000,0.172084,-0.935394,0.377626,-3.051518,0.974289,-0.717053,-2.236412,9.919146,-4.317842
1034.000000,0.002000,0.676820,-0.048117,-0.529453,1.256341,-2.752931,1.969465,-10.738875,1.152295,8.640183
1035.000000,0.002000,0.233180,-1.304033,0.100137,0.281040,2.514425,-0.585213,-1.521577,7.713084,-0.606656
1036.000000,0.002000,1.452895,-0.117864,-0.105353,-2.132918,1.414493,0.652469,-6.965816,0.825248,0.417886
1037.000000,0.002000,0.231347,-0.125769,-0.018232,2.606556,1.974788,0.030264,-27.501406,12.797634,-0.734824
1038.000000,0.002000,-0.345647,0.624364,-1.123923,-1.434264,-0.911313,1.244590,1.949259,-3.483684,6.443536
1039.000000,0.002000,0.011503,-0.143508,0.197370,-1.943665,3.052842,2.586731,0.515942,13.842706,-24.219844
1040.000000,0.002000,-0.344534,3.709245,3.369663,-0.294561,-0.363021,1.321030,0.053023,-0.584330,-0.531896
1041.000000,0.002000,0.003715,0.350102,-0.687281,-0.182427,-4.044865,0.809888,-1.051062,-8.637764,13.905257
1042.000000,0.002000,1.397711,-1.324007,-1.350797,1.582002,1.714547,0.057063,-1.957090,1.815002,1.876880
1043.000000,0.002000,0.165716,-0.022080,-0.016699,2.226851,0.557523,-2.171081,-28.977850,2.948388,-4.263790
1044.000000,0.002000,-0.453990,-0.426713,-0.310518,2.266616,1.950985,1.072717,12.501996,9.640979,8.514593
1045.000000,0.002000,-1.418695,-0.181935,-0.104353,1.735192,0.966287,0.595766,7.190379,0.678867,-0.257168
1046.000000,0.002000,0.551069,-0.243141,-0.547435,2.057457,0.997565,2.815997,-10.651729,4.073873,9.259967
1047.000000,0.002000,0.788717,-0.088173,-0.307739,-3.088474,0.717863,0.645164,-12.511356,1.696662,5.283820
1048.000000,0.002000,0.334799,0.202698,0.203890,-2.485612,-2.455021,3.844249,-22.271799,-10.715432,-10.217944
1049.000000,0.002000,-0.382869,0.161029,0.013821,3.605961,1.929198,0.469989,22.694503,-12.613383,-0.309915
1050.000000,0.002000,0.064098,0.039943,-0.620934,1.192818,-0.580568,3.506831,-1.255056,-1.156478,18.940226
1051.000000,0.002000,-0.829901,1.211804,-0.015382,1.072861,1.384168,-2.223730,3.978050,-5.731647,0.322124
1052.000000,0.002000,-0.048235,-0.039406,0.195769,-1.859361,-1.593020,-2.395084,8.731936,9.472135,-19.010125
1053.000000,0.002000,-0.013584,-0.245196,-0.010236,1.712934,0.636313,-3.946635,-1.293848,36.929084,2.344650
1054.000000,0.002000,0.067964,1.666707,-0.180518,0.008774,-0.900370,-2.386376,-0.495075,-5.558237,0.734726
1055.000000,0.002000,0.665643,-0.063463,0.053911,2.005503,-1.854366,-0.206703,-18.711118,2.605731,-1.165580
1056.000000,0.002000,-0.146785,-0.038666,0.438776,-0.092539,-3.992375,0.007019,5.937797,1.576377,-24.252818
1057.000000,0.002000,-0.717001,0.282103,-0.135292,3.259485,-2.275574,1.910493,14.546429,-6.218953,2.709582
1058.000000,0.002000,-0.354096,-0.266005,0.575365,3.072796,0.455729,0.452086,9.483926,6.996450,-13.602934
1059.000000,0.002000,0.300818,-0.134001,-0.011392,2.954606,1.307300,3.495401,-26.827937,12.530057,-2.609065
1060.000000,0.002000,-0.440790,-0.207145,-0.000743,0.351605,2.920809,2.287631,21.391655,11.531807,-2.063403
1061.000000,0.002000,0.209103,-0.018862,-0.222665,-1.611940,-4.225592,-1.547801,-17.314680,-0.583791,20.720776
1062.000000,0.002000,-0.284576,1.905819,-0.243292,1.402086,-2.348090,0.266268,0.644153,-4.419962,0.593060
1063.000000,0.002000,0.032003,-0.118313,0.117079,4.798671,-2.319867,-0.112884,-1.992291,16.823009,-18.453816
1064.000000,0.002000,3.176621,0.990493,0.132048,0.769428,-0.028036,0.473286,-1.685914,-0.520077,-0.065333
1065.000000,0.002000,-0.492608,0.696001,0.116484,-2.814940,-2.726849,2.709342,8.749797,-13.664571,1.185150
1066.000000,0.002000,-0.231909,0.279604,0.032444,-2.585432,-1.467236,0.651968,19.710071,-20.495321,0.283544
1067.000000,0.002000,-0.232999,0.546855,-0.643175,-0.072795,1.397575,3.424512,3.473754,-8.334317,9.844110
1068.000000,0.002000,0.394746,-1.471527,-2.035582,-0.095876,0.343975,1.491724,-0.477846,1.647953,2.322130
1069.000000,0.002000,-1.228364,0.432030,-0.336208,1.267265,-0.558166,0.463892,6.926709,-2.660936,2.079440
1070.000000,0.002000,-0.030452,0.138769,-0.093182,-3.950058,-1.560062,3.749445,2.574752,-14.277993,7.163765
1071.000000,0.002000,-0.130462,0.079750,0.187928,1.893607,3.638725,-4.351955,16.345883,-9.537635,-16.027034
1072.000000,0.002000,-1.045420,-0.586164,0.587926,1.958742,1.469991,0.544840,5.832115,3.726683,-3.306001
1073.000000,0.002000,0.506639,-0.794043,0.622837,-0.030868,3.018150,1.729637,-3.884797,6.660037,-5.338352
1074.000000,0.002000,0.367829,0.017272,-0.414745,-2.274992,-3.219710,0.493825,-14.825570,-0.539320,15.498344
1075.000000,0.002000,0.575006,0.952731,-0.345842,-0.620576,2.868894,1.996266,-4.403324,-7.729492,3.089290
1076.000000,0.002000,-0.076907,-0.208308,-0.175206,-2.062438,-1.570278,-2.656581,7.391605,24.668878,19.781215
1077.000000,0.002000,1.217230,0.607891,3.058366,1.371875,-1.014526,-0.326060,-0.656986,-0.323889,-1.589252
1078.000000,0.002000,-0.189921,-0.082839,0.637205,1.260981,1.697274,-3.805097,5.407694,1.753188,-17.643577
1079.000000,0.002000,0.127039,0.250126,-0.107974,-2.395201,-2.911333,-0.811328,-12.355173,-21.720116,12.064133
1080.000000,0.002000,0.034054,0.008549,-0.032768,2.570632,3.661864,3.596935,-4.500009,1.389979,9.743272
1081.000000,0.002000,-0.019102,-0.275125,0.971042,-2.530067,2.796880,-1.090082,-0.421872,3.418065,-10.822417
1082.000000,0.002000,-0.194330,-0.041831,-0.020422,3.665254,1.815213,-2.693778,24.039113,6.746298,2.333866
1083.000000,0.002000,0.403849,0.134481,-0.202115,-2.911680,-0.965763,4.644741,-22.586250,-8.800911,12.015673
1084.000000,0.002000,0.466276,-0.319135,0.191457,-4.407011,-2.169302,-0.670593,-16.401465,10.549432,-5.155881
1085.000000,0.002000,-0.260464,1.575305,-0.061200,-0.187818,-1.955133,-1.638917,0.941975,-6.040213,0.417959
1086.000000,0.002000,0.477925,0.041544,0.140153,-2.578563,1.170834,0.066996,-21.171590,-0.993182,-8.173639
1087.000000,0.002000,0.788391,0.108485,-1.287611,-1.377161,-1.677182,1.723778,-3.252647,-0.453959,5.380825
1088.000000,0.002000,0.974639,1.650326,-0.277204,0.102819,-0.000613,2.317635,-2.306217,-3.883312,0.674448
1089.000000,0.002000,0.097133,-0.952202,0.397284,-0.010899,3.206483,-0.177547,-1.129520,9.982083,-4.552071
1090.000000,0.002000,-0.340850,-0.458919,0.708138,4.163167,1.509316,0.849600,4.438088,6.772665,-10.201627
1091.000000,0.002000,0.121395,-0.032436,0.099896,0.989254,-4.880123,-2.954124,-24.285754,10.898033,-15.361945
1092.000000,0.002000,-0.190210,-0.141238,-0.386102,2.029951,2.897905,2.059548,8.542625,7.242821,22.882751
1093.000000,0.002000,-0.408680,1.648209,1.817572,1.146221,0.369455,-1.028385,0.450841,-2.042353,-2.294281
1094.000000,0.002000,0.987631,1.592718,0.555113,-1.150203,0.634889,0.808934,-2.296936,-3.589744,-1.248450
1095.000000,0.002000,-0.362752,0.816661,-0.355807,0.759268,-3.268547,1.165080,4.582808,-9.371003,4.946765
1096.000000,0.002000,0.170857,0.213183,-0.301814,-4.685702,2.182585,1.903559,-8.008291,-16.891111,20.159363
1097.000000,0.002000,-0.445387,0.378632,-0.488583,3.462108,-0.554022,2.692987,8.779513,-7.860041,9.789117
1098.000000,0.002000,0.550318,0.329645,-0.576556,-3.685155,-1.081736,-0.711274,-8.571266,-5.378130,9.558565
1099.000000,0.002000,0.305661,-1.749036,0.051439,-0.304257,0.645979,-0.181359,-0.857179,4.931290,-0.065289
1100.000000,0.002000,1.347695,1.431743,-0.122928,-1.781536,1.311872,1.608082,-2.951518,-3.119931,0.306106
1101.000000,0.002000,-2.261525,-0.921335,-1.203771,0.103357,-0.026008,1.255761,2.148114,0.842956,1.160982
1102.000000,0.002000,0.347133,0.634619,0.294705,-2.270689,-2.378634,1.790576,-7.108170,-11.843957,-5.823331
1103.000000,0.002000,-0.358053,0.141514,0.143527,0.703444,1.628714,-2.456254,23.021115,-11.256721,-12.538810
1104.000000,0.002000,-0.125005,0.150911,-0.138899,-0.260582,-1.123429,-1.584130,14.650053,-21.406473,14.891349
1105.000000,0.002000,-0.033913,0.234606,-0.014684,5.359651,-2.023674,0.552972,0.809056,-29.055800,2.088164
1106.000000,0.002000,-2.368573,-1.564686,-2.230860,-0.120734,0.612155,-0.196708,0.992992,0.655205,0.952873
1107.000000,0.002000,-0.151473,-0.015035,-0.101324,-0.519152,-0.276593,-0.131589,18.695607,3.134227,15.344725
1108.000000,0.002000,-0.962488,0.600743,0.481302,1.911599,-1.769026,-1.515323,6.832817,-4.295274,-3.607130
1109.000000,0.002000,0.185177,-0.353010,0.466018,1.805430,-2.226661,-1.934205,-8.223451,12.515103,-17.238716
1110.000000,0.002000,-1.147122,-0.042684,1.109162,2.016575,2.702706,-0.356375,4.221467,0.382542,-4.118904
1111.000000,0.002000,-0.007674,-0.261015,0.017732,0.681168,-0.835313,-2.127673,-0.002873,31.625218,-4.651597
1112.000000,0.002000,-0.295171,1.199008,0.853545,-0.631299,-2.603028,-1.686619,1.587712,-5.535212,-3.681761
1113.000000,0.002000,0.455054,-0.015787,0.355257,-0.108755,-1.181455,-2.984910,-15.431738,1.722616,-11.604996
1114.000000,0.002000,1.076246,-0.318872,-1.397958,-0.628182,-0.405781,-0.009781,-2.931556,0.651481,4.154903
1115.000000,0.002000,0.189105,0.026532,0.173561,-1.084683,1.372291,-5.466643,-21.521330,-3.120384,-18.616748
1116.000000,0.002000,1.419958,-1.160898,0.437108,-0.967990,-0.613353,-0.399287,-4.289433,2.026731,-1.173020
1117.000000,0.002000,-0.554818,0.672928,0.010372,0.664756,-2.879080,-2.186958,8.581000,-10.611874,0.775371
1118.000000,0.002000,0.744393,-0.387828,-0.200355,-2.375723,-1.666724,-1.279969,-11.065871,6.369915,2.696431
1119.000000,0.002000,-0.637716,0.100502,0.246228,-1.371098,-2.493017,-1.931889,16.380791,-1.675789,-7.044653
1120.000000,0.002000,-0.567164,-0.022743,0.078572,2.731902,3.906284,-0.108901,22.369993,1.536790,-3.917570
1121.000000,0.002000,0.060497,0.078630,-0.076958,2.313415,-1.455536,-4.484869,-8.804771,-9.814219,9.426421
1122.000000,0.002000,-0.069244,0.089525,0.218275,0.518823,1.378202,1.101503,-0.722617,-3.659349,-25.420076
1123.000000,0.002000,-1.275586,1.216403,-1.491609,0.762245,-0.689490,1.088439,1.844171,-1.746679,2.231345
1124.000000,0.002000,-0.718846,-2.164263,-0.706620,0.629051,1.127838,-0.320453,0.929805,2.927888,0.918065
1125.000000,0.002000,0.084016,0.093530,-0.001259,-0.551134,2.494086,-1.093776,-13.602664,-14.659676,4.038779
1126.000000,0.002000,0.099590,-0.854360,1.850992,1.414325,0.615157,-1.075339,-0.250066,1.734881,-3.572504
