# 
#                 columns are tag, mass, x, y, z, vx, vy, vz, ax, ay, az
#                 Time=1.000000
# 
1.000000,0.002000,0.320071,0.237467,0.300038,-4.923665,-1.558146,-3.088787,-17.797290,-7.448923,-9.056492
2.000000,0.002000,1.661789,1.861302,-0.754822,-1.336462,-0.775281,0.551847,-1.760972,-1.961580,0.775112
3.000000,0.002000,0.290835,0.266609,0.212385,3.112635,-0.851581,-0.970490,-22.006827,-10.021408,-12.026516
4.000000,0.002000,-0.345514,0.285752,-0.678426,-0.119428,1.867240,2.440789,8.440575,-6.491173,16.195572
5.000000,0.002000,0.034604,-0.135009,0.179180,2.886356,1.889485,-0.098093,-2.771992,13.593527,-15.459978
6.000000,0.002000,0.136663,-0.343089,-0.340961,0.689449,2.620431,-0.486289,-4.601064,12.191030,19.189692
7.000000,0.002000,-0.817199,0.212014,-0.848021,-0.088338,1.113810,4.108049,7.458522,-1.775924,7.974203
8.000000,0.002000,-0.368008,-0.751121,0.074086,-0.854500,-2.664156,-1.162215,8.801380,16.910344,-0.684550
9.000000,0.002000,2.962726,-0.518374,0.639903,-0.249855,1.241539,0.437447,-1.936775,0.350654,-0.410975
10.000000,0.002000,-1.918460,1.547169,1.917614,-1.194521,-0.636766,-0.337492,1.406864,-0.969646,-1.249623
11.000000,0.002000,0.266042,-0.057953,-0.311959,0.279399,1.532941,-3.843587,-15.212173,2.646637,18.735075
12.000000,0.002000,-0.485823,-1.061492,-1.562715,2.680211,0.315035,-0.504304,1.138040,2.515999,3.820812
13.000000,0.002000,0.016159,-0.673908,-0.084368,2.049235,0.663380,-0.996326,-0.540134,22.028048,1.244012
14.000000,0.002000,0.024869,1.143438,-0.404335,0.578179,0.352975,3.614500,-0.488839,-10.125660,3.884947
15.000000,0.002000,-1.168898,1.168979,-1.105702,1.538765,-1.827379,0.123883,2.704884,-2.694963,2.645338
16.000000,0.002000,-0.224706,0.727995,0.089001,-1.314203,-0.145472,1.789468,4.023734,-19.384523,-0.418121
17.000000,0.002000,0.176490,0.085632,0.178331,6.490389,-2.071093,1.445113,-13.003010,-4.537703,-16.046438
18.000000,0.002000,-0.255263,0.147932,-1.379272,-0.562589,0.745434,2.436228,1.457001,-0.878488,7.955591
19.000000,0.002000,-0.407382,-0.323761,0.062876,-4.645761,-1.687435,0.949048,20.954190,19.734320,-3.199783
20.000000,0.002000,0.077931,-0.208560,-0.022638,-0.702151,-0.704773,0.760057,-7.086703,22.200153,3.026283
21.000000,0.002000,-0.089852,0.000548,0.099443,5.299569,2.667766,3.620844,6.180855,4.337848,-6.452481
22.000000,0.002000,-0.087194,-0.247944,-1.166519,3.098910,-0.173685,1.886573,0.642264,2.002942,10.519026
23.000000,0.002000,0.009845,-0.243085,0.025393,5.741400,1.517165,3.633447,1.952459,28.460327,-3.855702
24.000000,0.002000,-0.373147,0.183301,-0.410603,-0.168213,2.037551,0.499118,18.539535,-6.884147,15.757750
25.000000,0.002000,-0.279635,0.326190,-0.069903,-4.777276,3.099699,2.757680,16.923650,-18.489689,3.271106
26.000000,0.002000,-0.129310,-0.101095,-0.067969,-0.923365,-2.884752,-2.225223,10.301360,13.331818,7.685069
27.000000,0.002000,0.023023,-0.016453,0.616706,-4.270711,-0.935876,-1.132216,-2.031551,0.940091,-22.729095
28.000000,0.002000,-0.220957,-0.134288,0.321520,-2.832109,3.006007,4.993603,9.083745,7.472657,-20.100299
29.000000,0.002000,1.238519,1.937345,0.913448,-0.919301,-0.919937,-0.758895,-1.587987,-2.385055,-1.103778
30.000000,0.002000,-0.474877,0.064396,-0.451819,-1.253635,-1.880121,1.042142,14.924611,-2.715765,16.036524
31.000000,0.002000,-0.095870,0.246451,-0.007012,-1.819660,2.379762,2.981349,4.767831,-18.948126,6.330014
32.000000,0.002000,-0.634003,-0.192290,0.033567,0.869070,0.266432,1.319171,22.024167,5.970818,1.770069
33.000000,0.002000,-0.419338,-0.593673,0.241428,-2.412130,1.842526,2.043282,10.215276,16.396072,-6.223072
34.000000,0.002000,-0.068910,-0.632668,0.586448,-3.959615,-2.626365,-0.956737,0.518308,13.236407,-12.271609
35.000000,0.002000,0.554505,-0.506507,-0.064646,0.817800,-1.015756,-3.296035,-13.080693,13.992928,0.089840
36.000000,0.002000,0.754171,-0.005751,1.235613,-3.285443,0.711110,0.669145,-4.290143,-0.005679,-6.653204
37.000000,0.002000,0.973521,1.982192,1.542598,-1.460207,-0.226435,-0.991575,-0.984604,-1.944168,-1.550722
38.000000,0.002000,1.551213,0.185608,1.203581,-0.549059,1.163800,-1.935685,-3.538333,-0.352521,-2.699751
39.000000,0.002000,-0.573591,1.483567,1.464331,0.209788,-0.585884,-0.820035,1.089834,-2.785944,-2.758089
40.000000,0.002000,0.087254,0.136284,0.014756,-2.065430,0.609026,3.382680,-14.076115,-15.154469,-0.742956
41.000000,0.002000,-0.312064,-0.279130,-0.275768,0.783113,-3.276771,1.192534,14.230469,15.619053,16.721529
42.000000,0.002000,-0.160377,-0.014046,0.391336,2.808520,-1.207101,-0.971328,7.985825,4.226389,-25.144016
43.000000,0.002000,-0.055043,-0.383128,-0.662031,-1.275049,1.805801,-3.287680,1.611882,9.879729,17.686681
44.000000,0.002000,-0.249267,-0.164586,-0.215067,1.112845,-1.542867,2.348750,13.016311,10.601719,16.096099
45.000000,0.002000,-0.360248,-0.195999,-0.218604,-1.446688,1.123747,-1.987625,19.149115,11.286134,10.059642
46.000000,0.002000,0.138725,-0.478939,-0.011346,-5.023123,1.974518,0.995959,-7.331857,22.285524,-0.398203
47.000000,0.002000,0.065467,0.753605,0.140147,1.602201,1.493039,-2.778235,-3.317960,-20.147550,-1.795429
48.000000,0.002000,0.192360,0.080879,0.355399,-0.842529,0.354713,0.524210,-15.786771,-4.543703,-22.619102
49.000000,0.002000,0.211859,0.065117,1.355273,-4.031303,-1.471341,0.467695,-1.498509,-0.262876,-8.555845
50.000000,0.002000,1.153302,0.160165,-0.430104,-2.525565,2.000938,0.960898,-9.386154,-1.300629,3.340629
51.000000,0.002000,-0.246800,-0.439450,0.455208,3.412270,-3.290955,-1.950970,6.183494,14.484126,-15.065547
52.000000,0.002000,0.400970,0.383780,-0.185852,0.284119,2.636899,-3.180774,-16.394827,-14.451598,8.090224
53.000000,0.002000,-0.282871,-0.479342,-0.360166,-1.425308,3.823795,3.514568,9.082834,15.264786,13.734160
54.000000,0.002000,0.027612,0.028955,-0.859273,-0.297950,-0.909598,-3.083782,0.255834,-0.494576,18.687772
55.000000,0.002000,-0.505223,0.083141,0.672158,-0.362669,-4.219824,0.035311,10.918326,-1.010480,-16.642423
56.000000,0.002000,-0.204329,-0.091172,0.090580,-0.122219,5.463780,4.705563,19.501119,14.773325,-3.974350
57.000000,0.002000,-0.006337,-0.216055,0.163765,3.382958,2.475681,2.043424,-3.414403,23.820552,-19.157557
58.000000,0.002000,-0.398619,-0.160951,0.152244,1.265116,1.674386,-1.292399,20.969131,5.509594,-7.866446
59.000000,0.002000,0.311738,-0.362260,0.265744,1.973873,-4.722437,1.074177,-15.891749,17.998686,-14.915881
60.000000,0.002000,-0.381151,0.163696,-0.103343,-0.724253,-2.291189,1.001881,21.599697,-10.143369,5.818116
61.000000,0.002000,0.395585,0.263334,0.464937,2.999730,-1.584503,2.553079,-14.296101,-9.218096,-15.748413
62.000000,0.002000,-1.206941,1.094842,-0.890312,2.263083,-0.342512,1.578792,3.404826,-3.148156,2.603307
63.000000,0.002000,0.519059,0.218977,0.454388,-0.388892,0.842181,0.131725,-16.336510,-6.485343,-12.781136
64.000000,0.002000,0.507313,0.032746,-1.193785,-3.001077,2.029788,0.397387,-3.784884,-0.180893,8.722777
65.000000,0.002000,0.070678,0.545266,0.018332,1.372440,2.506201,4.563135,-4.920918,-22.472293,1.661406
66.000000,0.002000,-0.427897,0.865273,0.829760,0.670229,-1.963131,-1.930074,3.356445,-7.193941,-6.781515
67.000000,0.002000,2.063272,-2.323738,-0.964549,-1.098220,-3.235712,-0.251051,-1.166170,1.289344,0.525104
68.000000,0.002000,0.246117,0.026669,-0.167067,-0.905935,4.136733,2.860650,-19.653303,-2.442579,14.071806
69.000000,0.002000,-0.448796,1.047290,-0.038689,2.026090,1.169359,-2.030538,4.801690,-11.511855,0.714795
70.000000,0.002000,0.194042,0.152078,-0.295707,-2.021338,0.183502,0.745653,-11.196675,-12.066752,16.596107
71.000000,0.002000,-0.463501,0.427188,-0.341450,0.427288,1.406793,1.065857,11.060203,-12.467526,11.541082
72.000000,0.002000,-0.051859,-0.036453,-0.024957,-2.414048,-3.144240,-0.179432,1.313152,3.374651,5.325722
73.000000,0.002000,-0.006632,-0.656280,-0.862301,-0.097006,-2.603905,0.597947,-0.797532,7.652471,10.805803
74.000000,0.002000,0.057058,0.256230,0.653063,0.386834,-0.700986,3.554470,-1.295150,-7.483586,-21.105614
75.000000,0.002000,-1.837355,0.844695,-1.043290,-0.217583,-0.230678,1.568797,2.922911,-1.318785,1.649649
76.000000,0.002000,-0.240261,-0.485204,0.337863,-0.081478,-0.195687,0.697043,7.541945,15.015628,-13.205305
77.000000,0.002000,-0.120891,-0.045314,-0.093372,-2.125748,0.293293,-4.373125,8.875741,9.400009,11.242273
78.000000,0.002000,-0.210256,-0.177739,0.336774,-3.044017,-2.862712,1.416276,9.172730,12.948199,-22.158055
79.000000,0.002000,-2.202704,1.435947,3.534857,-0.658384,0.390254,1.455447,0.512809,-0.343495,-0.834958
80.000000,0.002000,-0.649676,-0.593181,-0.538601,4.300597,0.144616,-0.420849,8.375228,8.418113,8.467742
81.000000,0.002000,-0.402445,-0.222643,-0.027586,-0.060950,-1.906334,0.168535,24.905302,12.838987,1.970438
82.000000,0.002000,-0.049652,-0.493109,0.303434,0.925974,4.497538,3.223254,0.335533,18.661266,-12.558464
83.000000,0.002000,0.630735,-0.525925,-0.207180,-3.853645,-1.105037,2.283314,-13.592554,11.717905,4.285446
84.000000,0.002000,-2.788827,0.971842,-0.164288,-0.129758,0.015657,0.602405,2.104405,-0.733297,0.151076
85.000000,0.002000,-0.024748,-0.195343,0.149110,0.216365,0.490196,2.930029,-0.354383,14.712548,-15.799924
86.000000,0.002000,-0.098167,-0.056860,-0.378387,-1.140574,2.199887,5.793032,4.331303,4.545902,24.899814
87.000000,0.002000,1.071414,0.466727,-0.988500,2.049129,-1.193419,2.420381,-4.973508,-2.204440,4.458321
88.000000,0.002000,-0.184734,-0.211966,-0.006530,-1.513494,0.944248,-2.082684,13.448442,15.733813,0.679750
89.000000,0.002000,0.790071,-0.125820,-0.312365,-0.686670,-2.016308,-3.514912,-16.631135,2.325208,6.006035
90.000000,0.002000,0.325293,0.100501,0.550866,0.966193,-0.223032,1.437928,-10.350157,-2.598325,-18.531562
91.000000,0.002000,-0.054735,-1.536577,0.991008,-0.505200,2.500365,-1.818025,0.051322,4.428195,-2.868078
92.000000,0.002000,-0.197979,-0.387247,-0.236815,1.779956,-2.118256,-0.556771,8.072643,17.996516,13.677961
93.000000,0.002000,-0.016842,-0.467587,0.719905,-1.955774,3.698307,2.257394,-0.812168,10.767110,-16.057994
94.000000,0.002000,-0.058983,-0.108959,0.379879,-4.509020,0.895101,-4.772751,3.658634,9.472297,-25.883832
95.000000,0.002000,0.420813,-0.741537,0.101029,1.082669,-1.579986,0.659925,-9.440858,15.411357,-3.053346
96.000000,0.002000,0.283321,0.454512,-0.674034,-4.277701,1.257955,-0.172057,-6.997978,-10.437723,14.388814
97.000000,0.002000,0.234067,0.355180,-2.171177,-0.824248,-1.638306,0.054858,-0.435791,-0.583407,3.664405
98.000000,0.002000,0.052337,0.023926,0.505323,0.562410,-6.182605,-1.198997,-3.516594,-0.510210,-25.453589
99.000000,0.002000,-0.507956,-0.463725,0.035345,-1.298489,1.367672,0.108776,17.082753,16.269158,-0.661623
100.000000,0.002000,0.296852,-0.242048,0.317381,-0.013356,-0.032333,0.508975,-15.318338,12.670274,-15.457011
101.000000,0.002000,0.068010,-0.486110,-0.175680,4.802650,-0.786774,3.561565,-3.649885,20.668061,9.633113
102.000000,0.002000,-0.200211,0.113182,-0.179869,-2.236788,2.155642,1.066305,15.995466,-9.406956,16.884625
103.000000,0.002000,0.521869,0.406805,0.013817,4.069112,1.571296,3.034123,-17.675088,-14.536702,0.677270
104.000000,0.002000,-0.009732,-0.142681,0.323744,-1.330972,1.518884,2.260746,-2.477569,10.308120,-24.397872
105.000000,0.002000,0.233417,0.121403,0.023968,-3.409842,-1.940499,-0.567515,-20.566001,-9.966497,-4.950366
106.000000,0.002000,-0.188629,0.046468,0.874517,0.096755,0.145730,-3.206079,3.603226,-0.312128,-17.029947
107.000000,0.002000,-0.449386,0.331353,0.345608,-0.832051,0.006040,-1.048749,17.125615,-11.092577,-11.609781
108.000000,0.002000,-0.209435,-0.205028,-0.078854,-1.605413,2.182236,-2.966286,13.499913,14.005119,6.946717
109.000000,0.002000,0.053044,-0.171625,0.454930,-2.828432,-0.455885,-0.912988,-2.736548,9.099816,-22.430209
110.000000,0.002000,0.828000,0.340586,2.447097,-2.188194,1.073752,0.413204,-0.898045,-0.353089,-2.591920
111.000000,0.002000,-0.316184,0.469536,-0.693609,-0.263535,0.411395,-2.153778,5.780483,-8.924075,13.683714
112.000000,0.002000,-0.636960,-0.120304,0.925642,2.052748,3.898034,-1.475786,6.549795,2.025792,-10.696153
113.000000,0.002000,0.098742,-0.768504,0.104672,4.091071,2.421268,1.528406,-3.250374,21.454003,-0.249673
114.000000,0.002000,1.400289,0.707689,1.460409,-1.649350,-1.129875,1.198174,-2.612227,-1.268303,-2.645341
115.000000,0.002000,-0.692829,-0.874542,-1.101591,1.056595,1.887331,0.786337,3.025617,3.740612,4.913326
116.000000,0.002000,-0.741412,-0.820956,0.561837,1.371005,1.800888,-1.043821,6.132582,7.215490,-5.014803
117.000000,0.002000,-0.474066,-0.072375,0.242743,1.156363,0.544862,-1.408375,21.150654,1.507180,-10.724402
118.000000,0.002000,0.109097,0.109246,-0.332673,2.780492,-4.041799,4.327394,-6.992904,-5.779120,19.324653
119.000000,0.002000,0.118191,0.090998,0.444069,-2.036854,-0.008358,5.895492,-8.097122,-3.919291,-24.674999
120.000000,0.002000,0.286059,-0.020755,0.331987,-2.305067,-1.146369,0.853877,-20.740992,1.304799,-19.004872
121.000000,0.002000,-0.232932,0.161746,-0.089761,2.052006,-0.461452,3.147302,17.621264,-8.685154,8.636398
122.000000,0.002000,0.319143,-0.303422,0.285126,0.775405,0.716800,0.017943,-15.171193,13.628518,-13.986404
123.000000,0.002000,-0.359658,-0.173312,-0.283003,0.186421,-1.313062,0.513789,18.822779,9.650618,16.583481
124.000000,0.002000,0.546808,-0.212457,0.145126,3.977782,-1.932156,-2.204648,-20.611667,7.685585,-5.513880
125.000000,0.002000,-0.219807,0.503649,0.450097,1.356586,2.218013,2.553292,6.511630,-15.833690,-20.128619
126.000000,0.002000,-0.100062,-0.147010,0.864195,0.227457,0.440839,1.015133,1.532487,3.123343,-17.366041
127.000000,0.002000,-0.224269,-1.051931,0.175464,1.244955,0.841884,3.788789,2.179239,12.598390,-2.248486
128.000000,0.002000,0.673615,-0.733744,-3.080725,0.059016,2.029144,-1.169703,-0.388936,0.410269,1.745893
129.000000,0.002000,-0.045842,0.928796,0.209522,-0.085342,2.173813,-0.145183,-0.223125,-16.493712,-2.460351
130.000000,0.002000,-1.012150,-0.328282,1.612777,1.856383,-2.352045,0.054331,2.467639,0.832972,-4.063039
131.000000,0.002000,-0.195985,-0.457576,-0.309949,1.273905,-2.108945,-1.971619,7.934758,17.275638,14.355105
132.000000,0.002000,-1.222871,-0.998150,-0.357065,2.229870,0.371749,1.050544,4.996449,4.112365,1.515444
133.000000,0.002000,-0.291249,0.593258,-0.068162,-0.881673,-4.699985,-2.627836,9.668687,-22.097382,1.589240
134.000000,0.002000,-0.360285,-0.063798,0.672550,0.942892,-3.570438,-0.319940,10.082736,1.079061,-17.931601
135.000000,0.002000,0.152666,-0.490680,0.618515,2.393501,-2.024334,-0.450695,-4.673190,12.381071,-14.149762
136.000000,0.002000,0.380073,-0.000305,-0.292726,1.241674,2.195032,0.944665,-21.329382,1.928500,15.527132
137.000000,0.002000,-0.305836,0.364974,0.621813,-3.703754,1.231058,2.297029,7.316746,-9.556314,-16.451207
138.000000,0.002000,-0.738742,0.104935,-0.373692,0.879558,0.453513,3.755556,17.561223,-2.609760,9.354186
139.000000,0.002000,-0.325377,-0.213351,-0.066432,-5.809700,2.798559,-1.477275,19.645181,11.442727,6.988946
140.000000,0.002000,1.311178,-0.440278,-0.438003,-1.458169,-2.269090,-2.763996,-7.277571,2.136934,2.334415
141.000000,0.002000,1.184935,0.327513,-0.522570,-1.543846,-0.875288,2.971743,-7.876893,-2.145297,2.276835
142.000000,0.002000,0.221501,-0.418875,-0.056316,-0.524680,0.646750,0.339537,-13.548920,21.563644,4.314704
143.000000,0.002000,0.298216,-1.538431,0.105486,-1.162499,2.946870,0.815162,0.067210,4.129168,-0.448322
144.000000,0.002000,0.149841,0.249523,0.598999,3.070505,1.993611,3.235373,-7.464214,-7.823648,-19.648355
145.000000,0.002000,-0.356196,0.027240,-0.290433,2.370357,0.710079,-2.080427,17.092745,-2.662337,13.920318
146.000000,0.002000,0.134653,0.088689,-0.230888,0.343482,2.122790,2.132828,-10.512154,-6.661872,17.726795
147.000000,0.002000,0.200778,0.050148,-0.084392,2.996411,0.016323,0.358585,-21.070071,-1.205442,17.564592
148.000000,0.002000,0.027161,-0.440987,-0.250161,-3.760864,-1.934934,0.336218,-2.419177,20.077971,11.818573
149.000000,0.002000,-0.232536,0.478904,0.008395,2.639570,3.327354,2.238260,14.356770,-19.735948,-3.427230
150.000000,0.002000,0.264632,0.133523,-0.316189,-2.085704,-1.894080,0.153572,-16.290816,-12.138231,17.542235
151.000000,0.002000,-0.236562,-0.805325,-1.068299,2.880787,-0.766382,0.663636,1.419522,5.282741,7.157105
152.000000,0.002000,0.238482,0.970213,2.192119,-0.229922,0.157142,-1.216133,-0.385892,-1.348794,-2.933225
153.000000,0.002000,0.247307,-0.793173,1.379815,0.665552,3.021457,-0.241225,-1.085569,3.092886,-5.526783
154.000000,0.002000,0.258537,0.308794,0.312325,4.401058,2.719059,0.278894,-13.715960,-15.418239,-14.610484
155.000000,0.002000,-0.193957,0.456416,-0.237458,-1.616737,-0.013189,-1.542431,6.148225,-19.604982,12.223109
156.000000,0.002000,0.286395,0.485076,-1.579069,-3.232985,1.309756,0.917545,-1.728353,-1.784513,5.868455
157.000000,0.002000,-1.945934,-0.557609,0.910067,1.859061,-0.551922,2.900849,3.386883,0.986387,-1.604784
158.000000,0.002000,-0.218606,0.466749,-0.259414,-2.039245,-0.813550,-1.626100,8.343223,-18.499522,13.158894
159.000000,0.002000,3.158107,1.240262,1.716723,0.759204,-0.043886,-0.004173,-1.126890,-0.432427,-0.613380
160.000000,0.002000,0.333555,-0.275424,-0.277442,3.678302,1.680135,-3.915083,-15.387193,11.954184,11.649519
161.000000,0.002000,0.775698,-0.450039,-0.164239,-3.412806,-0.980437,2.227613,-14.327573,8.345950,2.544356
162.000000,0.002000,0.437869,-0.855754,-0.362394,-0.066757,-0.240610,4.877198,-5.872515,11.270854,5.088067
163.000000,0.002000,-0.105689,-0.650724,-0.092072,2.956700,-1.165128,-0.531997,2.773422,21.724970,3.366672
164.000000,0.002000,0.437194,0.459853,0.287932,1.890505,-0.659858,0.493595,-14.050331,-12.038792,-7.844999
165.000000,0.002000,1.792626,2.678078,2.336600,0.402531,0.972398,-0.831469,-0.551702,-0.828658,-0.752615
166.000000,0.002000,-0.080645,-0.307837,-0.154001,-0.212937,-0.102500,0.081306,4.954236,22.394100,12.204063
167.000000,0.002000,-1.580719,0.273815,-0.808602,1.649165,0.123509,-0.539683,4.833277,-0.966703,2.566478
168.000000,0.002000,-0.058824,-0.984002,-0.166099,0.790643,0.666750,3.033489,0.025521,14.532973,2.590840
169.000000,0.002000,-1.049128,-1.460225,0.288760,0.536427,0.898928,2.440873,3.108303,4.379221,-0.799045
170.000000,0.002000,-1.030444,-1.762559,2.077570,1.066374,0.122365,-0.008295,0.645068,1.425830,-1.737989
171.000000,0.002000,0.259932,0.721619,-1.622693,-1.107037,-1.639012,1.309230,-0.746970,-2.210453,4.838768
172.000000,0.002000,0.678355,0.645208,0.262956,-1.514701,1.233927,1.402044,-11.228011,-9.723824,-3.757666
173.000000,0.002000,0.134579,-0.391701,0.495988,1.260710,1.422802,1.631533,-4.314242,15.501159,-15.874191
174.000000,0.002000,-0.451355,0.088042,0.409473,-0.249109,1.367465,5.264748,16.566175,-2.684485,-15.590747
175.000000,0.002000,0.722648,0.061056,-0.130159,3.653814,-2.284595,-1.062699,-22.374911,-2.104347,2.548680
176.000000,0.002000,0.686346,0.338737,0.183128,-0.460788,-3.006324,-3.763244,-16.616221,-7.687568,-3.731949
177.000000,0.002000,-0.793488,-0.294788,-1.018974,2.938919,-1.101131,2.821365,5.192139,1.959259,7.195018
178.000000,0.002000,1.043566,-0.910939,0.029599,-2.320132,-1.576322,-0.196247,-6.351532,5.364324,-0.254884
179.000000,0.002000,0.139650,0.627228,-0.064836,-1.820826,-0.171649,-0.419828,-6.402425,-21.623080,3.010239
180.000000,0.002000,0.058626,0.097782,-0.004932,-2.211684,-2.920951,0.708200,-12.066481,-13.161655,1.293890
181.000000,0.002000,0.319301,-0.481598,0.196654,-1.887664,4.853591,-0.048518,-12.851787,14.675915,-9.889894
182.000000,0.002000,-0.759032,-0.232578,0.006408,1.198835,-2.837061,-1.569872,18.883380,6.330610,1.618120
183.000000,0.002000,0.275207,-0.688609,0.563857,-1.750304,4.076417,-2.083156,-5.323540,11.786663,-9.584440
184.000000,0.002000,-0.292155,0.306095,0.101770,-0.710029,-1.371121,0.612106,14.518441,-17.755540,-1.501177
185.000000,0.002000,0.081105,0.364641,-0.039656,3.873782,-0.969046,-2.562664,-8.281415,-24.539684,2.401490
186.000000,0.002000,1.242088,0.423400,-1.547349,-1.412394,3.259179,-0.443917,-2.678451,-0.901865,3.290678
187.000000,0.002000,-0.677707,-0.251975,-0.091545,3.974706,2.113808,-3.245563,18.531875,5.879583,1.134106
188.000000,0.002000,-0.520824,-0.114969,-0.134776,2.841171,0.065515,5.036483,23.233578,5.776251,7.609031
189.000000,0.002000,0.327884,-0.354527,0.338132,-1.176345,-0.220682,1.054081,-13.462281,14.423674,-13.348752
190.000000,0.002000,0.050025,-0.189558,0.000082,1.776206,1.173408,2.938394,-3.170800,18.071948,0.754141
191.000000,0.002000,0.131709,0.883617,-0.047624,1.550085,1.524187,-0.131354,-2.457974,-17.606212,1.078742
192.000000,0.002000,-0.444555,-0.114414,0.278299,1.432139,0.962731,-0.771122,18.817958,3.669970,-13.570002
193.000000,0.002000,0.257244,0.359181,-0.354788,-0.701317,-1.521626,-4.194610,-12.767903,-14.860206,14.361655
194.000000,0.002000,0.045490,-0.843696,-0.808293,-1.659254,3.269002,1.307661,-0.361490,8.653960,8.102516
195.000000,0.002000,0.472085,-0.108987,-0.055579,-2.883339,2.413776,-1.985714,-24.905476,5.299399,2.612709
196.000000,0.002000,0.526872,0.001311,0.013206,-1.036762,-0.672813,0.708746,-29.937443,4.870417,-5.446200
197.000000,0.002000,-0.346649,-3.172471,0.920180,0.130151,0.704352,0.167591,0.148229,1.697572,-0.504265
198.000000,0.002000,-0.159344,-0.181715,0.569510,1.356489,-2.815708,-2.680959,6.115799,10.287724,-19.165319
199.000000,0.002000,-0.174384,0.094360,0.178682,1.644254,5.549700,-1.077912,15.970075,-9.555543,-17.860097
200.000000,0.002000,-0.257926,-0.758619,-0.736225,0.725541,2.947485,1.321704,4.604433,11.147817,8.946254
201.000000,0.002000,-1.738939,-0.176188,0.579400,1.898308,-0.637867,1.456908,6.016714,0.429948,-1.191582
202.000000,0.002000,0.148765,0.528804,-0.309328,1.451440,-1.213426,-2.989667,-5.785302,-19.478206,10.037583
203.000000,0.002000,0.078876,0.410538,0.546646,0.019273,-1.470061,2.903491,-3.454471,-14.618432,-16.084176
204.000000,0.002000,-0.443910,-0.972762,-0.857594,0.563872,2.499092,1.956755,2.775758,6.191121,5.502415
205.000000,0.002000,-0.156958,0.096206,-0.306881,2.275582,4.095053,-0.780313,9.829322,-3.214763,25.368689
206.000000,0.002000,-0.166126,-0.202628,0.362747,1.329329,1.119890,-0.229227,5.458238,13.830962,-21.247814
207.000000,0.002000,-0.072848,0.341696,-0.343970,-5.490733,2.123343,2.107752,0.791618,-19.063682,18.822726
208.000000,0.002000,-0.309869,0.040719,-0.297404,-3.893362,-1.425882,-2.549596,13.840728,-3.882014,17.315983
209.000000,0.002000,-0.391858,0.652552,-0.198396,-2.937988,0.771642,-0.628318,10.372953,-17.704546,4.567443
210.000000,0.002000,-0.188342,0.161924,-0.004133,-6.416481,-3.149344,0.063343,17.824009,-11.854866,2.640379
211.000000,0.002000,-0.184532,0.231354,-0.068713,-1.360306,-1.563718,2.541232,12.420281,-21.026593,13.149424
212.000000,0.002000,0.310168,0.023293,0.036877,-2.368416,-1.343105,0.996817,-25.335780,-0.947288,-4.336554
213.000000,0.002000,-0.138102,0.159380,0.285632,-4.053085,0.245117,2.222208,3.459519,-10.840594,-17.149646
214.000000,0.002000,-0.934316,-0.287438,-0.501022,0.149050,2.729083,-2.779237,10.942624,3.534133,6.082143
215.000000,0.002000,-0.590434,0.225983,0.754956,-0.691670,-3.041910,0.742196,9.639819,-3.477924,-12.545785
216.000000,0.002000,-0.085655,0.389612,0.016555,-2.679318,2.389015,-0.809857,3.462913,-24.873543,0.643082
217.000000,0.002000,0.192063,-0.475762,-0.351118,0.063200,1.240749,-4.805944,-10.021766,18.988131,12.845357
218.000000,0.002000,-2.224557,-0.647603,-0.484565,1.533677,-0.760470,-0.916207,3.164347,0.915854,0.680581
219.000000,0.002000,0.589533,-0.075364,-0.073628,2.536911,1.208856,-0.771047,-23.585480,2.433013,1.287648
220.000000,0.002000,-0.312373,0.157200,0.265133,6.105475,-0.002172,0.865783,18.451988,-9.493757,-16.833433
221.000000,0.002000,0.212004,0.475486,-0.319376,0.483979,3.443430,-4.170672,-8.629998,-16.847033,9.950022
222.000000,0.002000,0.248865,0.318283,0.132911,4.394482,2.238233,-1.365900,-16.573055,-17.997563,-5.441008
223.000000,0.002000,-0.018013,-0.174086,0.352500,-0.958202,-3.316668,5.656952,-2.039385,16.769395,-22.209488
224.000000,0.002000,-0.114516,0.057175,0.539763,-0.828275,-4.017509,4.202646,2.303848,-1.154185,-24.823464
225.000000,0.002000,0.755449,0.478612,0.527786,-0.438937,0.444154,2.020408,-10.268273,-5.390142,-6.660392
226.000000,0.002000,0.536655,-1.527379,-1.133425,-0.648560,1.339139,-1.685333,-1.237749,3.439815,2.771075
227.000000,0.002000,-0.351937,0.287792,0.492217,1.873422,1.016599,-0.396744,13.071134,-10.906380,-18.744283
228.000000,0.002000,-0.138021,1.140599,-0.427988,-1.995579,-2.587887,-1.070776,0.926299,-9.908635,3.954446
229.000000,0.002000,-1.148865,-1.935875,1.696028,-0.180719,1.603799,-0.998605,0.980533,1.706976,-1.457294
230.000000,0.002000,-0.347017,0.193472,-0.374903,5.597524,-1.119263,-2.963066,14.757984,-8.763011,18.119856
231.000000,0.002000,2.388652,1.162959,-0.226849,0.925261,-0.553753,1.797873,-2.334970,-1.137902,0.261015
232.000000,0.002000,0.188156,-0.020531,-0.079003,4.116983,4.027624,-4.089568,-28.257539,1.193349,11.527251
233.000000,0.002000,0.105510,0.149892,-0.522274,0.595790,2.781871,4.277052,-4.858671,-8.404999,23.351634
234.000000,0.002000,-0.306256,0.335560,0.428090,-2.161399,0.413019,5.521643,10.295674,-12.789604,-16.992978
235.000000,0.002000,-1.699936,-0.179067,0.593755,1.195399,-1.726032,-0.343642,4.138271,0.608495,-2.051844
236.000000,0.002000,-0.924965,0.061865,-0.210019,-1.282080,1.398339,-0.874187,16.882220,-1.146609,4.352594
237.000000,0.002000,-0.513883,-0.067613,0.180235,1.900990,0.212139,-0.819961,24.087837,1.309681,-6.197393
238.000000,0.002000,-0.632189,0.201614,-0.048697,-4.096479,-0.656046,-1.355082,22.510697,-6.183581,3.221143
239.000000,0.002000,-0.578404,-0.373453,0.582293,-0.596482,-2.170443,1.492831,12.020764,8.556851,-10.232259
240.000000,0.002000,0.918920,1.124667,-0.914897,0.693381,-1.704218,0.919207,-3.119884,-3.755058,3.056666
241.000000,0.002000,-0.222922,-0.180264,0.114531,-0.630829,1.130775,0.023477,14.588555,17.655642,-8.910439
242.000000,0.002000,0.519926,0.609013,0.360046,2.526096,1.076955,0.676975,-12.260043,-12.172919,-7.665476
243.000000,0.002000,0.314980,-0.557286,-0.151182,-1.020284,0.870701,0.752498,-13.914434,19.092279,5.640750
244.000000,0.002000,0.193148,0.546590,-0.074031,1.648697,-0.578783,-1.899541,-8.910289,-22.318538,2.534068
245.000000,0.002000,-0.869249,-1.347373,1.444334,0.101235,0.525410,-2.175934,1.565156,2.598731,-2.589346
246.000000,0.002000,-2.337238,-0.947464,0.319306,1.233378,-1.278385,1.715244,2.665036,1.127706,-0.345677
247.000000,0.002000,-0.198047,0.231365,1.210837,1.060201,3.049150,-0.491006,1.385049,-1.781861,-10.318419
248.000000,0.002000,-0.718716,-0.422863,0.044814,4.343336,-2.441919,0.174878,16.632138,11.130108,-0.921950
249.000000,0.002000,0.375303,-0.363199,-0.042190,1.045945,4.124524,2.482558,-20.973136,16.885655,-1.066064
250.000000,0.002000,-0.323377,0.641319,-0.485357,-0.888714,1.164243,-3.130444,6.110982,-13.315717,10.412285
251.000000,0.002000,-0.393118,0.575343,-0.548164,0.045516,-1.817036,-2.581067,6.346008,-9.194511,11.503295
252.000000,0.002000,-0.880589,-0.249486,-0.217847,-1.192643,-1.142574,0.174253,15.448668,4.209601,4.816928
253.000000,0.002000,-0.784435,0.084574,0.131715,-1.567916,-1.223999,0.539167,20.534857,-2.787730,-3.409547
254.000000,0.002000,0.569069,0.046725,-0.119021,4.825216,-1.180706,-1.389198,-21.986805,-6.002524,6.318527
255.000000,0.002000,0.239675,0.145464,0.323438,1.917608,-1.122426,2.236473,-17.634835,-3.029210,-18.552768
256.000000,0.002000,-0.366967,-0.113951,-0.022515,-2.664793,0.783807,1.526189,24.643600,7.546154,5.200724
257.000000,0.002000,2.774761,0.015183,-0.501392,-0.320516,0.275771,0.225340,-2.364403,0.004237,0.400894
258.000000,0.002000,-0.505918,-0.068884,0.029368,-1.257706,-3.963356,1.031537,24.196760,4.324220,-0.239402
259.000000,0.002000,0.283893,0.998840,0.125209,-2.880816,1.738959,-1.823456,-4.652139,-13.263593,-1.632576
260.000000,0.002000,2.143898,-3.151432,-0.222982,2.073085,-0.615413,-0.095043,-0.760440,1.094363,0.072615
261.000000,0.002000,0.280432,-1.385859,-0.760951,-2.960146,-0.088008,-0.770973,-1.264541,6.039435,3.063349
262.000000,0.002000,0.039471,-0.395204,-0.430414,-2.900907,-0.083656,-0.189537,-2.329914,14.303680,18.604421
263.000000,0.002000,-0.130829,0.052402,-0.035952,2.646451,0.975357,-3.378675,10.071957,0.250213,11.793589
264.000000,0.002000,-0.105671,-0.355461,-0.059574,-0.581843,0.123730,-1.512372,4.592428,22.729818,6.360948
265.000000,0.002000,0.415957,0.589809,1.282940,1.225859,-2.936535,0.494474,-2.312719,-3.046744,-6.811716
266.000000,0.002000,-0.184826,0.439544,-0.112990,3.446082,-2.894395,3.685862,6.442744,-22.540233,8.162022
267.000000,0.002000,0.639530,0.431092,-0.829385,-2.693707,1.585333,-1.780989,-6.805246,-5.173743,8.123618
268.000000,0.002000,-0.257078,-0.281693,0.577231,0.316249,-2.016564,2.694914,6.086821,10.046526,-18.706064
269.000000,0.002000,-0.613846,-0.429226,-0.038744,-2.804129,-2.868597,0.707107,17.877427,12.356501,0.744485
270.000000,0.002000,0.414349,0.610285,-0.261271,1.549427,-0.412724,-1.015246,-12.654873,-17.337677,8.462352
271.000000,0.002000,0.080020,-0.205023,-0.250705,3.955168,2.439309,-4.163260,-4.201301,13.281560,26.894862
272.000000,0.002000,0.317825,-0.335513,-0.163682,-1.625107,2.143604,-5.403958,-17.804916,16.177940,8.177508
273.000000,0.002000,0.407396,-1.164239,0.585214,-0.063572,0.034906,0.148561,-2.641172,7.359274,-3.700056
274.000000,0.002000,-0.070154,0.062563,0.084207,-0.914957,0.677660,0.620262,6.763542,-6.015699,-12.199003
275.000000,0.002000,0.632615,0.066600,0.017127,3.315098,-1.388870,-2.337622,-22.975957,-3.806198,-2.791663
276.000000,0.002000,-0.133479,-0.363354,0.670190,-0.458580,0.214198,-5.092463,3.003347,9.209131,-17.091426
277.000000,0.002000,-0.341680,-0.145227,0.438851,-2.182174,2.757258,-4.293422,13.693647,7.592511,-19.277099
278.000000,0.002000,0.294163,-0.281853,0.185264,3.695388,0.399217,-0.982489,-19.217737,16.767947,-10.621527
279.000000,0.002000,-0.132358,0.050233,0.129682,1.787527,-6.048923,2.886276,7.135408,-8.667412,-20.287172
280.000000,0.002000,-0.497832,-0.271582,0.213208,-2.310212,0.727261,1.668687,21.292948,12.476244,-8.736002
281.000000,0.002000,-0.836233,0.091064,-0.354509,3.113035,1.199189,-1.731215,15.769331,-2.285281,7.330063
282.000000,0.002000,0.502859,0.855779,0.099484,-4.023424,-1.590392,0.236300,-7.729058,-12.450938,-1.748399
283.000000,0.002000,-0.412729,-0.448525,0.073615,0.886282,-2.607418,-1.713923,16.878466,17.066379,-2.705661
284.000000,0.002000,0.234547,-2.002885,-1.204089,0.129594,1.658050,0.597068,-0.393192,2.864042,1.748955
285.000000,0.002000,-2.769035,-0.938467,-1.025532,-1.467851,1.053109,0.583078,1.933313,0.699801,0.920518
286.000000,0.002000,0.635708,0.274916,0.037037,1.938199,-2.529276,-1.055152,-18.931049,-8.244668,-0.279699
287.000000,0.002000,0.040101,-0.010018,-0.091786,-1.853160,0.144405,4.095766,-3.782467,0.306501,14.912191
288.000000,0.002000,-0.085954,-0.402880,-0.349736,0.230399,-3.577584,-2.134943,4.652433,17.412076,17.082777
289.000000,0.002000,-0.194819,0.561100,0.153020,-1.182132,-3.592712,2.585859,5.898363,-21.796633,-3.027404
290.000000,0.002000,-0.277742,0.494908,-0.308458,-4.905701,-1.003963,0.011219,8.687277,-17.089182,12.870158
291.000000,0.002000,-0.008870,0.608861,0.203323,2.189274,-0.399462,-0.079161,2.063632,-22.134713,-5.258076
292.000000,0.002000,0.617664,0.075177,0.244933,2.716877,2.963905,-1.310186,-21.188906,-2.403018,-8.812822
293.000000,0.002000,-0.003966,0.374559,0.013510,-0.714986,-2.891689,0.280178,-4.252879,-25.653683,0.935919
294.000000,0.002000,0.880722,-0.288986,0.261504,3.555425,-0.013581,0.426464,-14.037249,4.330590,-4.008902
295.000000,0.002000,-0.378931,-0.484282,0.036670,-1.303985,-1.925428,-2.865229,16.362726,21.697667,-6.507455
296.000000,0.002000,0.408030,-0.621339,0.357477,0.661607,-1.824777,0.873451,-8.859420,13.579495,-8.098150
297.000000,0.002000,0.088377,0.221977,0.495729,3.185117,-0.570105,4.195698,-5.631515,-7.604549,-21.265460
298.000000,0.002000,-0.073741,-0.254451,-0.311690,1.971281,3.426645,-3.029822,3.867589,15.333298,20.425353
299.000000,0.002000,-2.004468,1.483803,-2.185240,-0.011135,-1.048663,-0.770658,1.075288,-0.805005,1.193054
300.000000,0.002000,-0.884258,2.512828,-0.137263,1.089283,-1.100348,0.350719,0.879090,-2.558451,0.134631
301.000000,0.002000,0.630233,0.001858,-0.418155,-0.523330,-1.059109,-0.455498,-17.551385,-1.085329,10.893366
302.000000,0.002000,0.036236,0.608801,1.093504,-0.423260,1.023928,-3.394333,-0.592783,-4.943514,-9.282432
303.000000,0.002000,-1.198657,-1.669258,0.599158,0.216693,0.897299,-0.999540,2.262004,3.162597,-1.125985
304.000000,0.002000,0.139627,-0.886334,-1.189982,-1.864952,1.105109,2.063441,-0.662170,4.317994,6.049086
305.000000,0.002000,3.166284,-2.184025,-1.044941,1.603250,0.351434,0.426072,-0.973260,0.668296,0.310066
306.000000,0.002000,-0.231880,-0.589034,0.018617,1.648200,-1.097854,-0.608514,6.486369,21.620351,-1.322398
307.000000,0.002000,-0.170455,-1.559467,-0.620920,-0.531586,0.405108,2.217426,0.424884,5.506434,2.198943
308.000000,0.002000,0.323996,0.884819,1.546522,-1.794908,-1.754001,-0.121211,-1.090264,-2.596133,-4.655796
309.000000,0.002000,0.839717,1.348121,-0.440354,0.085492,-2.785801,0.308802,-3.468409,-5.255167,1.957529
310.000000,0.002000,0.094898,0.054056,0.000644,-1.301023,0.396035,4.569915,-11.610723,-9.059941,-1.322007
311.000000,0.002000,-0.280418,0.121057,0.219525,-4.035289,-0.292954,-5.195186,18.464431,-8.425593,-14.623247
312.000000,0.002000,0.080496,0.189424,-0.079182,-3.808775,-1.740585,-1.037134,-11.193141,-16.344624,7.081101
313.000000,0.002000,0.231227,-0.419489,0.235877,0.875519,-4.761531,-3.245823,-8.005516,18.047857,-15.096005
314.000000,0.002000,-0.396233,-0.131698,-0.198597,-1.603123,0.749040,3.691760,23.462957,8.505058,14.462785
315.000000,0.002000,0.723773,0.166351,-1.223936,-0.873737,-3.973901,0.410080,-4.087989,-0.916518,6.849689
316.000000,0.002000,-0.501130,-0.345417,-0.397566,-3.123347,-2.278100,0.555474,14.689661,10.014945,13.447117
317.000000,0.002000,0.029613,0.581721,0.350975,1.557113,2.335180,-0.883699,-1.987785,-19.772804,-11.383655
318.000000,0.002000,-0.374698,-0.726916,-0.011070,-2.000999,-2.146473,-1.208140,9.084934,17.407475,0.283440
319.000000,0.002000,0.153421,0.001944,0.291529,-0.263344,2.162272,2.342997,-16.717576,-0.345393,-20.148127
320.000000,0.002000,-3.219768,1.515733,-0.841987,-1.775201,-1.348878,0.722534,1.305226,-0.609115,0.351111
321.000000,0.002000,0.458391,-0.406081,-0.468490,1.410611,0.100470,-1.213908,-12.410860,11.168389,13.446257
322.000000,0.002000,0.327644,-0.071409,0.047767,0.465150,-2.093648,-1.401421,-25.142811,4.313529,-6.257452
323.000000,0.002000,-0.493684,1.505518,0.857767,-0.080483,-1.863688,-0.791006,1.511118,-4.695945,-2.648666
324.000000,0.002000,-0.540630,0.388702,-0.346741,-1.746537,0.059449,3.708824,16.015883,-10.363391,10.750043
325.000000,0.002000,0.628424,0.478576,0.546563,-1.018531,-2.526386,-3.607783,-10.361026,-7.097141,-8.574554
326.000000,0.002000,0.410448,0.132660,-0.263206,-0.842037,-1.377358,-1.924248,-20.318257,-8.236558,12.943853
327.000000,0.002000,-0.415176,-0.079286,-0.253627,-3.892770,-2.923731,-0.203505,20.194288,5.644844,13.866812
328.000000,0.002000,-0.022560,0.128899,-0.295094,5.450825,-0.102212,-2.807568,0.205739,-11.235867,24.009260
329.000000,0.002000,0.558734,-0.360927,-0.156905,2.341587,-1.771858,-2.922984,-16.439148,13.903575,1.981780
330.000000,0.002000,-0.422453,-0.271825,0.124972,1.848856,3.661621,-0.675083,16.641706,16.225215,-7.197006
331.000000,0.002000,-0.058696,0.174740,0.102634,1.088992,-0.750787,-3.655531,2.402351,-19.595690,-14.980745
332.000000,0.002000,0.220309,-0.250529,0.180880,-0.569220,1.826108,0.483408,-17.652151,16.336131,-10.224300
333.000000,0.002000,0.121093,-0.220649,-0.200588,-1.643020,1.659332,-2.774838,-6.596403,18.406359,10.653934
334.000000,0.002000,-1.112979,-0.608162,0.806659,1.106769,-0.674632,-1.989246,5.563014,3.170861,-4.108151
335.000000,0.002000,-0.515132,-0.222283,-0.128181,-1.030242,-0.053479,1.177625,20.754551,8.408493,10.028216
336.000000,0.002000,0.169300,0.088832,-0.274323,-1.629702,-1.760087,6.033745,-11.253996,-3.883483,19.678370
337.000000,0.002000,-0.034189,0.028450,-0.276808,-1.971546,0.749803,-1.296853,0.928877,-4.863296,26.557691
338.000000,0.002000,-0.295533,-0.028312,-0.178625,-2.437069,0.656997,-6.479524,19.807469,3.210522,13.910650
339.000000,0.002000,0.208675,0.344553,0.281003,-1.932617,-0.800947,4.624763,-12.426019,-16.085252,-12.910015
340.000000,0.002000,0.490070,0.490449,0.261952,-1.394967,2.187641,0.863118,-16.202909,-14.227517,-7.124637
341.000000,0.002000,-0.756295,-0.078824,0.111419,-3.049576,0.715649,-0.148534,22.016122,2.922764,-2.087372
342.000000,0.002000,-1.501189,0.668197,0.439974,1.275495,-2.251112,1.136269,5.415827,-2.407810,-1.536275
343.000000,0.002000,-0.840146,-1.726950,0.654082,1.049093,0.733127,-1.225708,1.749340,3.713476,-1.520857
344.000000,0.002000,-0.253260,0.573267,-0.108986,-3.934268,2.157857,-0.305554,8.360966,-21.875620,4.484610
345.000000,0.002000,-0.529221,-0.128804,-0.271563,-1.220235,-2.005712,1.692026,21.204759,5.464758,12.600213
346.000000,0.002000,0.101841,-0.174985,-0.551822,2.313051,1.448657,1.226000,-2.600003,7.774474,22.771452
347.000000,0.002000,1.049254,0.115073,0.078444,-1.978255,2.786561,-2.817224,-12.848160,-1.257007,-1.091590
348.000000,0.002000,-0.442452,1.113183,0.852465,-0.488570,-1.348584,-2.070675,2.130744,-6.441049,-4.260374
349.000000,0.002000,-0.249842,0.248003,0.048594,3.740061,-0.000968,1.078019,17.300828,-19.925659,-2.820677
350.000000,0.002000,-0.259130,-0.151639,0.098154,-2.684130,-0.316974,-4.383327,18.742659,14.717965,-8.719660
351.000000,0.002000,0.028462,0.561147,0.732907,2.372396,0.597996,-3.009607,-1.138029,-10.359552,-14.254567
352.000000,0.002000,0.501039,2.218316,-0.148899,-0.864967,-2.156259,-0.305343,-0.791485,-3.435807,0.294019
353.000000,0.002000,-0.744681,2.918338,-1.062371,1.056212,0.648193,-0.425466,0.443073,-1.755656,0.637969
354.000000,0.002000,-0.118047,-0.102061,0.479043,5.464727,0.630407,-0.203229,4.038662,7.655828,-22.415284
355.000000,0.002000,-0.015522,-0.486395,0.259773,0.693594,-3.385215,1.923697,-1.345479,18.884378,-11.038823
356.000000,0.002000,0.036808,-0.215920,-0.179469,3.480930,-3.861231,-2.608344,0.822715,14.451897,15.813945
357.000000,0.002000,0.032331,0.203630,-0.248252,1.747263,-0.268256,-2.314035,-3.333770,-12.911712,19.285060
358.000000,0.002000,0.673633,-0.107225,0.683310,1.917634,-0.652120,1.749412,-11.860750,1.603576,-11.591016
359.000000,0.002000,0.327716,-0.861649,1.910846,-0.178499,-1.590760,-0.697780,-0.637550,1.651242,-3.536736
360.000000,0.002000,-0.132221,0.001110,-0.014240,-2.959394,-2.778717,2.703125,12.271100,5.563708,0.780798
361.000000,0.002000,-0.020065,-0.456087,-0.254861,-0.910747,-0.960596,2.098703,-1.650582,24.495855,12.588602
362.000000,0.002000,0.304069,-0.077135,0.366188,1.306786,-4.449315,2.470392,-17.496218,4.763721,-17.924859
363.000000,0.002000,0.565819,0.101803,-0.506420,0.247708,-0.948999,-0.577692,-16.459692,-0.337479,14.322033
364.000000,0.002000,-0.103410,0.350440,0.218329,0.732137,-2.129281,-0.830397,4.009683,-18.953692,-13.479848
365.000000,0.002000,-0.899073,0.996169,2.467669,1.246942,1.538987,-0.689285,0.717103,-0.974169,-2.145042
366.000000,0.002000,-0.244951,0.181057,-0.098757,-1.504006,5.112485,-0.853812,20.411723,-15.404908,10.647916
367.000000,0.002000,0.132450,0.148540,0.549256,2.163292,3.513073,-0.952052,-7.098722,-4.128361,-21.271095
368.000000,0.002000,-0.736751,-0.069638,0.374397,2.956464,-3.754914,0.670415,18.581675,2.525891,-8.591395
369.000000,0.002000,0.043399,-0.367935,-0.506542,-1.256752,-1.785154,0.016716,-1.617214,14.251362,22.291984
370.000000,0.002000,-0.285187,-0.546435,0.451721,-0.265006,-0.028930,3.233749,5.602022,14.428117,-12.529828
371.000000,0.002000,0.096067,-0.345116,-0.307184,3.291909,-0.627840,-4.601530,-4.209305,17.055308,15.046623
372.000000,0.002000,-1.629926,1.195615,1.060980,0.625253,-2.096584,-1.355935,2.606431,-1.938670,-1.708647
373.000000,0.002000,0.242816,0.363337,-0.455837,1.640273,3.686740,0.900030,-8.826910,-13.709082,15.625440
374.000000,0.002000,0.061113,0.005481,-0.605665,0.633205,2.541712,-3.983884,-5.231339,-0.457559,25.997950
375.000000,0.002000,0.305607,0.338657,0.237567,-2.097706,-0.905360,1.841933,-10.432245,-17.474939,-6.840312
376.000000,0.002000,-0.248434,-0.397583,0.027770,-2.859040,-4.775911,-1.029577,10.430030,22.470188,-2.580919
377.000000,0.002000,0.447827,-0.538458,-1.477828,0.451612,2.587312,1.409843,-1.794763,2.035439,5.818203
378.000000,0.002000,0.617387,-0.222742,-0.118192,2.951467,1.226274,0.791876,-22.998642,8.632601,2.509219
379.000000,0.002000,-0.328633,-0.495449,-0.163132,-1.590862,-3.052626,0.135585,14.074886,19.509360,4.981710
380.000000,0.002000,0.413318,-0.397187,-0.250315,2.912511,2.496942,-1.069292,-15.465170,14.835358,8.088318
381.000000,0.002000,-1.379299,-1.291251,1.110712,0.994672,0.820737,-1.212422,2.389778,2.303144,-1.901977
382.000000,0.002000,0.047978,-0.070375,-0.085518,-4.529664,3.047361,-0.753307,-4.965869,7.438436,8.597316
383.000000,0.002000,0.044648,-0.029542,0.100906,-0.834706,-0.064875,4.457269,-7.989230,8.152135,-7.840711
384.000000,0.002000,0.237861,0.010326,0.309485,-0.932767,-0.008812,-3.228338,-18.043526,-1.139024,-21.569068
385.000000,0.002000,-0.356254,0.223211,0.425831,0.255969,2.215554,1.223948,14.474365,-5.630112,-17.308149
386.000000,0.002000,-0.524752,-0.168052,-0.554320,0.046572,-1.149049,-2.720249,13.276540,5.259556,15.477675
387.000000,0.002000,0.095772,-0.311324,-0.113203,-4.284735,5.052648,1.646342,-6.395931,21.581948,7.948254
388.000000,0.002000,-0.650468,-0.148040,0.369653,0.332739,1.010627,2.512384,18.482830,5.482560,-9.931506
389.000000,0.002000,-0.208138,-0.349953,-0.532627,2.044017,-4.092220,0.169982,6.279338,13.198768,18.131111
390.000000,0.002000,0.405529,0.129854,0.064929,-0.557484,-0.183054,1.191274,-23.498876,-7.134731,-3.712681
391.000000,0.002000,-0.061362,0.309146,-0.512124,1.093923,-3.946971,-1.673060,2.288955,-12.042293,21.867985
392.000000,0.002000,0.448870,-0.698040,-0.215071,1.462416,-0.072670,-1.021978,-9.633037,14.174863,4.627554
393.000000,0.002000,-0.153561,-0.643963,0.180410,0.241305,-1.550778,-1.101972,1.402824,20.389649,-4.392213
394.000000,0.002000,0.000806,0.224163,0.187703,-2.731228,-6.293331,-1.343386,-1.122583,-18.398685,-15.229755
395.000000,0.002000,0.447754,0.009059,1.006843,1.278464,-1.079090,-0.754804,-5.419409,0.150984,-11.375728
396.000000,0.002000,-0.103727,0.201762,-0.112551,-0.047183,-0.070301,3.936202,5.861584,-18.214269,11.387466
397.000000,0.002000,-0.154740,-0.365052,0.399764,1.939497,-3.345847,0.949311,6.102583,14.859091,-16.232669
398.000000,0.002000,-0.515582,-0.514129,0.285315,0.534820,-2.034957,0.140628,13.815348,14.812749,-6.903314
399.000000,0.002000,-0.314488,-0.494496,-0.010826,1.884395,1.194997,0.020731,10.178415,20.822243,0.995787
400.000000,0.002000,0.625319,0.532533,-0.022178,3.850158,-0.253941,1.222922,-15.543783,-12.196294,0.524248
401.000000,0.002000,-0.289707,0.335669,-0.733633,3.825056,3.624146,-0.143785,5.554734,-7.187069,16.042618
402.000000,0.002000,0.129987,0.083676,0.000161,-4.505759,2.968210,4.456509,-11.858565,-10.870417,0.821444
403.000000,0.002000,-0.295503,0.751591,-0.480362,1.416750,0.895391,1.847676,4.563544,-12.436031,8.819117
404.000000,0.002000,-0.489008,-0.406833,-0.427908,0.702657,-0.181829,3.772890,13.476152,13.034245,13.633712
405.000000,0.002000,0.234071,0.278487,-0.192687,-0.853567,2.288803,-1.711915,-9.551952,-18.918221,13.620188
406.000000,0.002000,0.420244,0.164852,-0.014128,1.250775,3.134506,2.329739,-22.183685,-9.296497,1.430184
407.000000,0.002000,0.091457,0.493229,-0.374385,-3.145962,2.017385,-1.990824,-6.326527,-18.194024,15.849657
408.000000,0.002000,-0.046534,-0.649423,0.198902,-4.561091,-1.592720,1.377081,0.332724,19.694195,-7.172498
409.000000,0.002000,0.247025,-0.057684,-0.034303,-2.198492,2.322020,0.959104,-24.138384,7.303052,4.434103
410.000000,0.002000,-0.306731,-0.296713,-0.008236,0.786200,-2.197690,1.969992,19.479005,22.707510,-0.840103
411.000000,0.002000,0.029751,0.354455,0.223644,2.871312,1.231396,-2.589597,-2.386909,-21.176182,-13.521775
412.000000,0.002000,-0.773214,0.304902,0.651087,-3.138412,-0.164510,2.520214,10.350656,-4.117727,-9.036460
413.000000,0.002000,-0.308956,-0.088974,0.184447,-2.312023,-5.781584,0.065647,14.664385,6.949940,-14.540690
414.000000,0.002000,-0.054047,-0.889787,-0.400393,3.626869,-2.199578,2.227160,0.310512,14.011765,6.289322
415.000000,0.002000,-0.021534,-0.070772,-0.228432,1.366636,0.812328,2.735942,-0.156671,7.791474,19.134765
416.000000,0.002000,-0.444429,-0.650360,0.392893,2.360335,1.890868,1.067447,9.031708,14.738020,-8.153190
417.000000,0.002000,0.099109,0.736109,0.282318,0.742331,4.648948,1.390084,-3.177446,-18.285742,-6.946163
418.000000,0.002000,0.532688,-0.204232,-0.094197,2.602961,2.347954,1.301949,-19.910402,10.157900,2.871143
419.000000,0.002000,-1.503908,0.179392,-0.628450,0.235802,1.645807,3.548565,5.835969,-0.712597,2.527980
420.000000,0.002000,-0.565573,0.034607,0.425916,-2.718394,-1.642784,3.536289,15.885420,-0.776003,-14.022222
421.000000,0.002000,-0.075569,-0.082242,0.054663,1.204634,-4.736065,-2.033944,6.161162,9.845304,-1.106306
422.000000,0.002000,-0.217525,0.545678,0.262577,-3.797555,-3.773087,-1.940218,7.470948,-21.057320,-8.018379
423.000000,0.002000,-1.097177,0.930252,-0.008141,1.873362,-2.767078,1.760010,6.216226,-5.247952,0.160408
424.000000,0.002000,0.711313,-1.704680,0.710250,-1.884987,1.554421,-1.276215,-1.664162,3.841281,-1.585400
425.000000,0.002000,1.134678,-1.323903,1.659095,-1.428669,0.363797,0.368512,-1.600358,1.758785,-2.175792
426.000000,0.002000,-0.439148,-0.110191,0.758347,0.686002,4.316436,0.308631,7.798106,2.396822,-16.620821
427.000000,0.002000,0.560079,0.222244,-0.348466,-0.294234,1.818015,-1.301374,-16.271589,-7.898397,11.858852
428.000000,0.002000,-0.074234,-0.465125,-0.228621,-0.831662,1.539424,0.945552,3.850732,22.316804,14.654120
429.000000,0.002000,0.605768,0.095859,-0.274657,2.879099,-3.024211,-0.733416,-19.841610,-2.928908,7.995356
430.000000,0.002000,0.543273,-0.080339,-0.231340,0.202844,0.097970,2.156141,-21.357484,1.937800,8.121102
431.000000,0.002000,0.121411,-0.348878,0.049948,1.743686,-1.114458,1.922972,-5.511802,23.558978,-4.580577
432.000000,0.002000,0.032155,-0.576800,0.473104,-2.675305,-0.927219,3.327203,-2.508607,15.641989,-12.155347
433.000000,0.002000,0.016383,0.096068,0.113273,-0.972413,-0.459003,2.911730,-8.902926,-14.179645,-13.364562
434.000000,0.002000,-1.880729,-1.224392,-0.570880,1.218555,1.005870,0.178503,2.890424,1.880834,0.840296
435.000000,0.002000,0.084368,-0.202943,-0.318699,0.938615,1.210345,-2.734063,-4.485503,8.824088,19.763039
436.000000,0.002000,0.412161,0.601106,-0.060116,-0.007602,3.122613,-1.500782,-11.756974,-15.983325,-0.569101
437.000000,0.002000,0.316480,0.339749,0.242262,2.144704,-0.701010,2.813915,-22.054580,-18.262086,-12.286954
438.000000,0.002000,-0.214655,-0.048011,-0.137253,0.249957,0.766732,-1.381841,18.999644,5.472451,11.630768
439.000000,0.002000,0.252210,-0.605531,0.472098,0.095066,-2.346133,1.011113,-5.127714,15.172223,-10.377891
440.000000,0.002000,-0.178628,-0.090159,-0.143696,-0.463504,0.838960,-4.228914,11.254119,9.567171,13.541114
441.000000,0.002000,0.392531,-0.147337,-0.167799,0.555697,-3.375750,-2.599514,-19.954580,11.721551,6.823146
442.000000,0.002000,0.061958,-0.119212,-0.013234,-2.901302,-2.303700,-0.151258,-10.545462,13.044764,6.826053
443.000000,0.002000,-1.381790,-0.601380,-0.428065,-0.867932,1.658742,-2.522545,6.217535,2.744168,1.939055
444.000000,0.002000,0.427317,0.729002,-0.504324,-1.279106,-2.553529,2.239110,-6.681852,-10.815408,7.820643
445.000000,0.002000,-0.206327,0.014512,0.092503,2.138972,0.799715,-2.468165,18.528550,7.282939,-11.684458
446.000000,0.002000,-0.387795,0.610323,-0.544184,4.350224,1.376879,-1.258193,5.795174,-12.809743,10.739863
447.000000,0.002000,0.032642,0.320017,-0.215977,1.938762,-5.403718,2.674463,-2.514677,-19.881498,14.201516
448.000000,0.002000,0.152205,-0.231726,0.317544,4.956282,0.089899,-3.126820,-9.736731,16.016055,-21.035327
449.000000,0.002000,-0.102338,0.319958,0.129503,1.802635,-2.008210,1.063494,5.637540,-20.361890,-10.435828
450.000000,0.002000,0.335231,-0.031123,0.413076,-1.871759,1.533051,1.379672,-17.419504,0.701411,-17.084721
451.000000,0.002000,-0.525086,1.992949,0.120944,0.808148,-2.069048,-0.574757,1.067412,-4.143554,-0.232827
452.000000,0.002000,-0.212674,0.598074,0.092233,-3.547148,-4.972958,0.216925,7.122429,-23.379192,-3.143137
453.000000,0.002000,-0.314008,0.257965,0.805945,-2.041200,0.766860,1.113754,5.178548,-4.793400,-16.748706
454.000000,0.002000,0.364007,0.232361,-0.698674,1.245997,2.110863,-1.750395,-9.819640,-6.029551,16.772765
455.000000,0.002000,0.379977,-0.277844,0.444371,3.845408,-1.478935,2.957185,-13.811441,10.473951,-14.032185
456.000000,0.002000,0.331555,-0.174680,0.401219,-0.620302,-2.244122,2.892715,-13.975227,9.131688,-16.618508
457.000000,0.002000,-0.315377,-0.238175,-0.560517,-2.310866,0.054426,-4.296557,9.116034,8.153773,18.621184
458.000000,0.002000,-0.619259,0.977991,0.374030,0.063327,-1.601452,-3.102057,5.925119,-9.137224,-3.004248
459.000000,0.002000,0.007087,-0.157738,0.731976,-0.964956,-0.077168,4.874238,-1.144143,5.905162,-20.029957
460.000000,0.002000,-0.435357,-0.265233,0.112479,-1.775198,-4.480043,0.828147,22.982276,13.418028,-1.064334
461.000000,0.002000,-0.354848,0.279077,0.664386,-1.475717,-1.164692,-4.189508,7.931549,-6.341404,-17.458778
462.000000,0.002000,-0.047949,0.214558,-0.166320,-5.229259,-4.073542,-1.837544,-1.249064,-17.173946,18.482116
463.000000,0.002000,0.477301,0.228146,0.228494,-0.598450,0.199828,-1.077716,-20.119895,-8.241693,-8.929122
464.000000,0.002000,-0.156604,0.110906,0.171832,2.983128,0.526486,-2.165275,17.055260,-9.032988,-11.920306
465.000000,0.002000,0.178329,0.259206,0.071690,-1.452959,3.513363,-0.625937,-15.962294,-19.074276,-0.813170
466.000000,0.002000,-0.198440,0.499459,-1.093346,1.420001,-0.377532,3.293609,1.608904,-4.293476,9.591461
467.000000,0.002000,0.238575,-0.036186,-0.094940,0.589162,-2.735142,-1.744391,-20.985726,3.238372,6.335534
468.000000,0.002000,-0.073043,0.102238,-1.022506,1.025565,-1.471976,-1.698019,0.866216,-1.198770,13.728466
469.000000,0.002000,0.523109,0.025787,-0.142855,-0.440328,-1.003690,1.781593,-23.655855,-1.732313,7.407262
470.000000,0.002000,-0.109832,0.205829,0.255064,-1.052207,-6.931476,-1.109633,5.740372,-13.122545,-16.308869
471.000000,0.002000,-0.465551,0.317625,0.425540,-1.063226,-1.890393,0.310159,15.433759,-9.972994,-13.886866
472.000000,0.002000,-0.671504,-0.387461,-2.199756,0.520442,0.336721,0.977836,0.961051,0.550138,3.223211
473.000000,0.002000,0.706353,-1.368481,-2.927758,-1.199392,0.379667,0.568271,-0.385585,0.741246,1.567547
474.000000,0.002000,0.616272,0.868400,0.395037,1.225263,-2.029602,2.713076,-6.898822,-9.070016,-3.918271
475.000000,0.002000,-0.409533,-0.372833,0.452052,0.736559,-2.302526,2.466858,11.700662,10.275840,-16.179936
476.000000,0.002000,-0.018899,0.228295,0.150499,2.613949,-1.170976,2.757072,1.755630,-17.215791,-13.319952
477.000000,0.002000,0.037452,-0.629218,1.559019,1.678267,0.925542,-1.134464,-0.284705,2.346979,-5.546371
478.000000,0.002000,0.432834,-1.407651,0.142755,3.386249,2.168824,-0.699635,-2.415340,7.095467,-0.696399
479.000000,0.002000,0.199026,-0.586543,-0.229215,-2.132942,-1.465571,3.586254,-8.600307,19.976438,7.915293
480.000000,0.002000,0.149732,-1.030382,0.473044,1.956334,0.737822,-3.000353,-1.985525,10.423694,-4.958143
481.000000,0.002000,-0.207928,0.186224,-0.094538,0.097352,-4.051107,3.486978,14.781763,-14.383277,12.079601
482.000000,0.002000,0.195910,0.174796,0.274551,1.455313,1.296898,0.615798,-13.509167,-10.171968,-15.549912
483.000000,0.002000,-1.344303,0.914299,0.844710,2.833736,-0.578938,-1.674806,4.358728,-1.259301,-1.629789
484.000000,0.002000,0.005194,0.399266,-0.603018,-2.214090,-3.480654,1.117756,-0.483558,-11.242326,16.795776
485.000000,0.002000,0.091462,-0.257620,-0.474588,1.123754,1.156958,0.351357,-2.083070,9.882310,20.962035
486.000000,0.002000,-0.756431,0.394368,-1.782895,0.863680,1.489011,0.974308,1.644011,-0.910620,4.012567
487.000000,0.002000,0.570712,0.411065,-0.461876,3.532861,2.150527,-1.556619,-13.152658,-8.885919,9.255348
488.000000,0.002000,-0.219219,0.483533,-0.470587,1.111792,0.276732,-2.502054,5.733764,-14.137178,15.270776
489.000000,0.002000,0.153976,-0.282216,-0.188515,1.079910,-4.777928,0.089344,-10.730402,20.885149,13.810276
490.000000,0.002000,0.079426,0.119156,0.151313,2.648172,-1.725164,-0.187029,-8.933432,-14.748338,-11.136046
491.000000,0.002000,0.186633,0.089840,0.242515,2.248659,-1.513647,-1.016948,-20.878421,-7.393151,-15.465180
492.000000,0.002000,-0.144930,-0.052958,-0.125352,-1.496996,0.393916,2.294985,10.314023,6.635216,16.307812
493.000000,0.002000,0.209700,-0.172029,-0.514432,-0.729534,0.248089,0.495162,-9.352897,7.372480,19.240192
494.000000,0.002000,-0.127141,0.470796,0.047929,1.098804,1.535563,-2.804600,3.135869,-26.145004,-1.817618
495.000000,0.002000,0.335246,-0.540822,-0.462677,-0.219929,-2.165889,-1.130933,-9.388484,13.785352,11.821124
496.000000,0.002000,-0.308272,-0.618766,-0.520777,-0.976941,-0.608595,-0.643398,6.361439,12.678679,11.498279
497.000000,0.002000,-0.104643,-0.342623,-0.646494,-4.307366,1.203744,3.389513,2.157477,9.628416,17.729051
498.000000,0.002000,0.164408,-0.272929,0.303541,-2.703920,-2.132608,1.801284,-10.161697,17.880759,-18.949866
499.000000,0.002000,0.469129,-0.402416,0.010073,4.580955,1.777281,3.001699,-15.746553,13.704921,-0.793706
500.000000,0.002000,0.029470,0.769678,0.035133,-2.478511,-2.107234,-1.484845,-0.097081,-20.204366,0.887369
501.000000,0.002000,0.284423,-0.123400,-0.475197,0.424165,-0.298586,0.639191,-11.057321,5.582428,21.126500
502.000000,0.002000,0.119170,-0.111104,-0.180891,-2.064683,-1.603746,2.739917,-10.595308,7.582172,17.122678
503.000000,0.002000,-0.165981,0.227179,-0.588478,-0.992858,2.650953,-3.113901,5.974846,-8.546710,19.795070
504.000000,0.002000,0.468393,0.534394,-0.779143,-2.618971,1.927010,-1.381729,-6.168615,-6.761053,9.603770
505.000000,0.002000,-1.240684,-1.249040,-0.300955,1.622688,1.399979,-1.141353,3.833577,3.910753,0.984645
506.000000,0.002000,-0.011885,-0.027197,0.025152,-6.588081,0.950403,0.527728,2.177230,0.654118,1.225625
507.000000,0.002000,0.162477,-0.066931,0.168839,-1.144454,0.254760,4.652250,-17.790995,6.964314,-10.284361
508.000000,0.002000,0.510858,1.536094,0.013117,0.408380,-0.399884,-3.082914,-2.099462,-6.181060,0.161012
509.000000,0.002000,0.783536,1.774326,0.548348,0.229525,-2.071380,0.345455,-1.980833,-3.946789,-1.181251
510.000000,0.002000,-0.977604,-2.243991,0.278616,-2.286120,0.948504,-0.006168,1.358675,3.105064,-0.355304
511.000000,0.002000,0.231072,0.625439,0.261012,2.335293,-4.417208,1.789592,-8.575586,-17.924302,-7.107045
512.000000,0.002000,-0.151607,0.423316,-0.212204,1.019763,-0.648183,-3.388314,8.245761,-23.040284,16.357124
513.000000,0.002000,-0.384564,1.014688,3.216442,1.538350,1.376999,0.517075,0.174731,-0.522380,-1.637137
514.000000,0.002000,0.120904,0.410129,-0.077666,-1.945211,1.993131,0.380037,-6.470674,-19.364466,5.518584
515.000000,0.002000,-0.623744,1.001821,-0.229631,-0.161511,1.776987,3.487223,5.669972,-9.504399,2.167028
516.000000,0.002000,-0.109063,0.610539,0.333534,2.056209,2.161829,1.515664,2.280445,-19.656879,-9.613825
517.000000,0.002000,-0.077732,-0.006887,-0.257626,-0.768596,2.625222,2.602440,10.623660,1.520809,23.142468
518.000000,0.002000,0.018111,0.155367,0.153033,1.990266,2.138457,0.419885,-3.853460,-13.579963,-13.333909
519.000000,0.002000,-0.053567,-0.239218,-0.126608,-0.109975,-4.868511,4.443206,4.729458,17.255984,15.361694
520.000000,0.002000,-0.090565,0.556732,-0.055350,-2.791277,-3.954380,0.069746,0.718339,-24.841951,3.734333
521.000000,0.002000,1.077926,-0.613775,0.471165,-2.761991,1.234627,1.473233,-7.595568,4.050920,-3.235776
522.000000,0.002000,-0.125958,-0.088353,-0.162263,5.351658,-1.397309,0.342729,8.700768,10.577042,18.141814
523.000000,0.002000,-0.372703,0.070338,0.190759,1.398544,-0.307478,2.698625,20.958474,-8.385657,-10.071318
524.000000,0.002000,0.038689,0.551467,-0.351033,-1.378343,-0.816570,-0.337237,-1.597437,-20.797081,12.135291
525.000000,0.002000,-2.181370,-1.155281,0.662686,0.402077,0.811703,-1.727417,2.560497,1.296587,-0.724814
526.000000,0.002000,0.223631,-0.320870,-0.211199,1.710773,-0.178379,3.396925,-13.398279,17.950464,11.384832
527.000000,0.002000,0.291907,-0.083260,-0.395842,2.324442,4.029318,2.890127,-13.420651,3.234464,18.024971
528.000000,0.002000,0.474409,-0.417096,0.375509,-4.005580,0.584647,3.853181,-13.107375,11.454770,-10.923458
529.000000,0.002000,0.376536,-0.217641,0.611749,-0.166341,-0.028950,2.048159,-16.203969,3.594121,-15.390323
530.000000,0.002000,2.140600,0.573898,0.372597,-1.708527,-0.732465,-0.412806,-3.357243,-0.816386,-0.554330
531.000000,0.002000,-0.095255,-0.004431,0.442461,-4.066622,0.061953,0.267538,4.044078,3.369350,-28.063392
532.000000,0.002000,-0.037159,0.241812,0.102649,-3.131971,-4.688117,-4.069820,0.644216,-21.768754,-9.185482
533.000000,0.002000,-0.539730,0.743862,-0.785611,1.464420,-2.278578,2.311829,4.798070,-6.637701,7.298444
534.000000,0.002000,-0.339506,-0.272572,-0.422402,-2.214649,0.834083,-1.055991,11.366036,10.726981,18.348001
535.000000,0.002000,-0.847529,-0.016652,0.215037,3.737833,1.565495,2.509847,18.235103,0.411897,-3.774250
536.000000,0.002000,0.057478,0.253596,0.014962,2.291331,3.542386,0.902514,-9.764026,-19.749487,2.598808
537.000000,0.002000,0.185519,0.477239,-0.402718,1.945246,2.859889,-3.919820,-6.670404,-16.096948,15.346566
538.000000,0.002000,1.538246,-3.808537,-0.512874,-1.017627,-1.441759,0.682348,-0.438044,1.053898,0.135833
539.000000,0.002000,0.362391,0.363909,-0.421712,-0.560065,-0.293520,-0.533128,-12.674792,-12.110283,12.851034
540.000000,0.002000,0.875802,0.378703,0.048384,-3.577726,-2.018958,-0.881894,-14.127963,-6.013107,-0.908594
541.000000,0.002000,-0.140317,-0.090218,0.173841,-0.974602,-1.659379,-3.788398,6.694536,13.243519,-11.220976
542.000000,0.002000,-0.514949,-0.123261,0.166869,-3.773729,-4.199652,1.139006,24.349678,4.394987,-5.207106
543.000000,0.002000,0.571259,0.034261,0.454818,2.712565,2.022259,-0.344355,-15.864043,-0.131052,-11.110285
544.000000,0.002000,1.870907,-0.262227,-0.612607,-1.368717,-0.282064,0.076302,-4.124707,0.799138,1.234791
545.000000,0.002000,-0.311358,0.303074,0.112470,-0.403447,5.177885,-0.844104,20.598908,-16.220612,-4.772577
546.000000,0.002000,-0.007050,-0.262127,0.217233,-2.012560,-1.413753,1.384424,-1.688402,24.718836,-13.154427
547.000000,0.002000,0.463944,-0.020964,0.404895,-0.199089,-2.285866,1.394973,-18.137241,0.027799,-14.446518
548.000000,0.002000,-0.867368,0.239474,0.146225,-2.181704,1.150471,-0.297788,17.135453,-4.714277,-2.643823
549.000000,0.002000,-0.841498,0.396265,-1.092988,-0.538743,-2.693927,2.219789,4.617097,-2.115674,6.242453
550.000000,0.002000,-0.018447,0.459852,-0.268851,0.667963,0.654712,2.475130,1.846124,-19.239141,12.552326
551.000000,0.002000,-0.133329,-0.011073,0.656975,2.993867,-0.907058,3.761819,5.214084,0.407948,-23.707966
552.000000,0.002000,-0.225861,0.190702,0.462377,1.124344,-0.925848,-1.586785,16.001607,-6.917009,-21.613770
553.000000,0.002000,0.974625,-1.089193,-0.294745,-1.815433,1.472449,-2.012404,-4.992247,5.116541,1.390918
554.000000,0.002000,0.159924,-0.250353,-0.132118,0.392835,1.622968,2.045363,-8.697572,21.473560,10.971620
555.000000,0.002000,0.809342,0.833595,-0.054246,0.048357,-0.042397,0.219030,-7.993544,-8.135273,0.676331
556.000000,0.002000,-0.553243,0.113539,0.475741,-0.415077,0.472767,-0.371331,14.891313,-3.187745,-14.418901
557.000000,0.002000,-0.064069,0.017125,-0.245239,1.450774,-1.427839,-1.367229,6.472824,-6.931139,21.062496
558.000000,0.002000,0.787364,-1.246015,-1.562781,-1.043152,1.809153,-1.392436,-1.501290,2.249105,2.856023
559.000000,0.002000,-0.434581,0.098710,0.141046,1.073234,2.589906,-2.899045,24.638227,-4.050369,-8.022578
560.000000,0.002000,0.748062,1.734251,-0.684160,0.163632,-2.063623,-1.098594,-1.700747,-3.787885,1.542545
561.000000,0.002000,-0.475771,-0.489175,-0.206166,-2.713443,-2.002849,-1.095440,13.430811,13.164094,7.301174
562.000000,0.002000,-0.720303,-0.321942,0.275610,-0.768131,-0.971790,4.593008,17.593260,7.364720,-7.492494
563.000000,0.002000,-0.210414,0.326207,-0.814432,-3.032600,-0.831451,1.336502,4.301053,-5.645249,15.390427
564.000000,0.002000,-0.243801,-1.177142,0.225522,1.949572,2.659807,-2.150242,1.927896,10.559376,-2.313569
565.000000,0.002000,1.853603,-0.017092,0.164849,-2.082644,-0.583805,-0.119600,-4.902699,0.063025,-0.468919
566.000000,0.002000,0.286508,-0.258148,0.176760,0.235729,-1.208457,-0.125825,-18.051167,12.104282,-8.928077
567.000000,0.002000,0.165628,0.267874,0.437022,-0.107877,1.666794,-3.110992,-7.128068,-10.472444,-16.103610
568.000000,0.002000,-0.099738,-0.767343,0.989492,2.222407,-0.572225,-1.131045,0.482236,6.070442,-8.014206
569.000000,0.002000,-0.136401,1.226703,0.260600,1.417053,-3.251586,-0.085714,1.005169,-10.099132,-1.876614
570.000000,0.002000,0.472896,0.588562,-0.464602,1.167061,0.165525,-0.878103,-9.465884,-10.847704,8.705746
571.000000,0.002000,-0.495531,-0.461664,0.726962,-0.457604,3.576955,0.478535,7.029145,7.397620,-11.709543
572.000000,0.002000,0.106513,0.652869,0.396564,0.407610,1.017881,-0.273139,-4.047240,-16.800413,-10.995843
573.000000,0.002000,-0.347862,-0.142570,0.091451,1.197477,-3.365017,1.184232,22.342945,9.346383,-5.655070
574.000000,0.002000,0.520039,-0.410426,-0.062128,-2.929873,3.072335,2.812784,-16.958782,15.705015,1.746286
575.000000,0.002000,1.391147,-0.669536,-1.332397,-1.437090,0.950502,0.284745,-2.874822,1.448856,2.796904
576.000000,0.002000,-0.126076,-0.485456,0.090012,0.413815,1.618245,-0.538878,2.347245,22.659682,-5.022949
577.000000,0.002000,-0.064727,-0.140054,-0.302046,3.033864,-0.629753,-1.929129,5.318057,9.766463,23.526582
578.000000,0.002000,1.745189,3.209739,1.402188,0.017793,0.179041,-0.570226,-0.585387,-1.062226,-0.454029
579.000000,0.002000,-0.033384,-0.819847,-0.113116,0.098034,-4.346423,-0.529380,-1.000418,19.365506,4.110929
580.000000,0.002000,0.215087,-0.127191,0.045454,5.219305,3.157523,-0.292040,-21.517744,13.486625,-5.997604
581.000000,0.002000,0.323180,0.470155,-0.322050,-3.258700,3.283693,0.623420,-14.290759,-15.156219,10.879164
582.000000,0.002000,-0.699172,1.184511,-0.335882,2.547518,-0.937459,2.241210,4.029512,-7.034283,2.049933
583.000000,0.002000,-1.372950,-0.942758,1.826220,1.420930,1.400224,-0.930276,1.748093,1.186227,-2.330683
584.000000,0.002000,0.297462,0.709659,0.139579,-0.731358,-2.413763,-3.845663,-8.481163,-17.892825,-1.801699
585.000000,0.002000,-0.295354,-0.314682,-0.780396,-1.492505,4.223982,0.492996,5.569617,5.704976,15.206160
586.000000,0.002000,0.040223,0.191827,0.178884,0.527299,-2.299475,-1.591549,-8.775985,-15.482376,-16.113670
587.000000,0.002000,-0.543552,0.119869,0.419327,1.199841,-1.707023,2.594303,16.179886,-3.487516,-12.790512
588.000000,0.002000,0.348862,0.554346,0.505243,3.213629,0.669940,2.527359,-8.081688,-9.755962,-12.195645
589.000000,0.002000,0.411935,-0.334006,-0.195499,0.885133,2.718164,1.941554,-17.495025,13.823509,6.261834
590.000000,0.002000,0.740039,-0.919650,0.458418,-1.234232,1.569907,-2.739310,-5.832861,6.849222,-3.514216
591.000000,0.002000,0.254469,-0.297968,-0.102021,-0.448448,-3.558163,-0.171682,-17.445983,17.398259,4.683124
592.000000,0.002000,-0.398722,0.061552,-0.264144,-3.938754,2.333118,3.144732,20.363910,-4.440955,15.356383
593.000000,0.002000,0.194303,-0.224237,0.501341,2.038046,0.743782,-1.379146,-9.399269,10.340777,-18.454258
594.000000,0.002000,0.468657,-0.461490,-0.437245,-2.907647,2.223949,-3.124713,-12.149813,11.879608,11.247019
595.000000,0.002000,-0.749057,0.250574,-0.063901,4.625844,-0.446280,1.345129,19.451447,-7.499397,1.737600
596.000000,0.002000,-1.631163,-0.109819,-0.219073,-0.110674,3.695146,-1.566761,6.559408,0.578007,0.885086
597.000000,0.002000,-0.260931,0.418668,-0.234363,-0.250564,-2.783166,-0.147913,9.374401,-17.369022,13.345709
598.000000,0.002000,-0.056555,-0.004065,-0.277831,-1.627951,5.487430,3.465875,5.233139,-0.175674,29.563797
599.000000,0.002000,-0.291827,0.437287,-0.033048,-2.751722,-1.602584,0.328841,15.554127,-20.128638,1.926774
600.000000,0.002000,-0.459644,-0.355855,0.170909,-0.506982,-3.050275,1.662037,18.526171,11.944144,-3.031084
601.000000,0.002000,-0.732966,-0.042068,-0.082211,-0.924386,-0.589501,2.574750,20.321659,1.217994,2.932685
602.000000,0.002000,-0.345192,-0.048285,0.607365,1.789939,-1.994879,3.235350,10.400850,3.097808,-19.943630
603.000000,0.002000,0.403387,0.030244,0.278764,-3.819796,-0.368378,-0.918331,-20.510865,-2.550658,-12.786092
604.000000,0.002000,0.021010,0.272203,0.348021,1.120826,-3.051391,-1.161468,-0.840181,-14.579208,-19.009643
605.000000,0.002000,-0.301793,0.195798,-0.265541,2.539519,-1.831184,-1.225708,13.775244,-11.384726,17.688219
606.000000,0.002000,0.168713,-0.229059,0.178560,1.957298,-7.064946,-0.300648,-10.435370,22.714618,-14.963781
607.000000,0.002000,0.316659,0.251740,0.330825,-0.700388,1.902290,5.322891,-15.411399,-12.677792,-18.713040
608.000000,0.002000,0.433081,0.130941,-0.221984,0.374340,3.595095,-1.635579,-22.116980,-7.847949,11.050449
609.000000,0.002000,0.649430,0.541901,-0.203147,-0.320091,-2.205655,-0.647600,-13.766538,-11.476655,3.686192
610.000000,0.002000,-0.265316,-0.100681,0.326291,0.044432,3.899519,-0.674726,13.896656,6.608877,-19.177425
611.000000,0.002000,-0.030508,-0.328318,-0.103929,-0.405698,-2.788819,1.775243,1.650676,22.272130,6.615135
612.000000,0.002000,-0.382251,0.278941,0.429894,-4.273639,0.850539,0.308909,16.411711,-10.719891,-16.703222
613.000000,0.002000,0.116483,-0.200621,-0.103809,1.699291,1.499584,1.201863,-9.105140,17.251558,9.778794
614.000000,0.002000,0.396062,-0.116100,-0.098766,4.893246,0.319690,3.709228,-22.843037,8.731232,4.018069
615.000000,0.002000,-1.281032,1.582796,-0.171464,0.635861,-0.737307,1.741081,2.685567,-3.406597,0.379677
616.000000,0.002000,-0.315104,0.078962,0.175560,-0.243355,-0.918067,-4.756491,21.560213,-5.376707,-10.228608
617.000000,0.002000,-0.291139,-0.401784,0.399055,-0.408165,2.243910,0.390835,7.588586,14.632864,-14.694436
618.000000,0.002000,-0.033218,0.139581,-0.617465,-1.317642,1.432049,-0.718292,1.254949,-10.327710,23.831805
619.000000,0.002000,0.004867,0.115555,-0.262778,-3.429770,-0.500467,-5.709509,-5.909330,-7.632265,23.375041
620.000000,0.002000,0.167874,-0.029961,0.040702,-0.909114,-3.339817,0.388879,-23.217164,-0.099293,-4.098721
621.000000,0.002000,-0.273019,-0.192657,-0.152596,-3.034302,-1.740851,-2.507355,13.508877,10.743730,9.783375
622.000000,0.002000,-0.244286,0.376898,-0.069741,4.108704,-4.214854,1.314375,14.091491,-10.506797,7.543468
623.000000,0.002000,-0.192393,0.560495,-0.138669,-2.300623,-3.071163,2.896230,5.326277,-22.270979,6.181688
624.000000,0.002000,-0.070627,-0.179982,-0.107078,-1.567125,3.182355,0.129705,8.639632,16.580982,11.787894
625.000000,0.002000,-1.296953,-0.861156,-0.724770,0.859254,2.285854,-0.455495,4.483898,3.139891,2.536507
626.000000,0.002000,0.179449,0.278794,0.449080,-1.314166,0.259800,-0.763268,-12.143574,-14.861116,-20.080942
627.000000,0.002000,-0.375556,0.021801,-0.402676,2.027982,3.981281,-1.917270,15.202347,-4.537412,20.609098
628.000000,0.002000,0.447179,-0.679324,-1.123122,-0.349489,1.881703,-2.489734,-2.927061,3.867525,6.834833
629.000000,0.002000,0.183384,-1.404571,0.158202,1.307953,0.978469,2.964446,-1.208190,7.912890,-0.935836
630.000000,0.002000,-0.351929,0.062120,-0.064452,-1.434061,2.918043,-5.569922,23.966390,-3.465576,5.423108
631.000000,0.002000,-2.114141,2.329023,-0.462670,0.269936,-0.203080,0.043493,1.280561,-1.433817,0.298729
632.000000,0.002000,0.144735,0.134122,-0.145674,1.468697,-1.006564,2.057799,-10.650209,-10.995932,13.858963
633.000000,0.002000,1.842618,-2.368737,0.577815,-0.519347,0.073465,0.104972,-1.248732,1.572920,-0.371206
634.000000,0.002000,-0.101203,0.094186,-0.608242,2.177044,0.108095,-1.183108,4.217637,-3.050646,23.134672
635.000000,0.002000,-0.130934,0.695571,-0.057145,-2.372582,-2.801692,0.002389,3.090913,-21.853957,2.082471
636.000000,0.002000,0.379062,0.347375,-0.143543,1.863377,-0.043529,-0.413762,-17.633022,-14.846278,6.184289
637.000000,0.002000,0.424114,-0.200133,-0.364359,2.988337,-3.469548,0.787158,-17.306522,7.055457,14.440077
638.000000,0.002000,0.459694,-0.187954,-0.039979,3.350301,3.960341,3.216754,-15.902934,9.609118,0.956144
639.000000,0.002000,-0.092943,0.158106,0.370526,-3.063599,-0.967239,-5.693818,3.039134,-9.593889,-22.269405
640.000000,0.002000,-2.459775,-0.933218,-1.024035,0.907079,-1.185101,-0.997112,2.072213,0.802125,0.914582
641.000000,0.002000,0.244210,-0.118486,1.163270,-2.621059,2.836098,-0.809927,-2.442432,1.379918,-10.833906
642.000000,0.002000,0.257637,-0.186492,-0.617516,1.167956,-1.596552,-0.027352,-8.476711,4.688257,19.510448
643.000000,0.002000,0.645876,1.925991,1.536780,0.823293,-1.196701,-0.285156,-0.729937,-2.201240,-1.792252
644.000000,0.002000,0.378302,-0.352818,-0.947544,-2.065771,-0.622818,2.861545,-4.541117,4.140920,10.830128
645.000000,0.002000,-0.223521,0.292091,0.305345,-0.361665,0.152154,2.663123,11.009246,-15.229475,-16.679636
646.000000,0.002000,0.916913,-0.332327,-0.300558,-3.148279,1.162961,1.704039,-12.861684,4.505033,3.720980
647.000000,0.002000,0.375005,0.088638,-0.966264,-3.237727,1.769743,0.296211,-5.184909,-0.996807,12.673405
648.000000,0.002000,-0.621909,0.146098,-0.144458,-2.671561,2.771311,-2.633797,21.513893,-4.334667,5.490921
649.000000,0.002000,0.037268,-0.180421,-0.035262,-0.985335,3.172085,-0.477269,-2.530460,18.850057,6.789846
650.000000,0.002000,3.617272,-0.509643,-0.122996,0.587209,0.673811,1.032120,-1.439584,0.204657,0.052571
651.000000,0.002000,-0.101794,0.608320,-0.431119,1.873434,-0.430157,4.947550,2.604903,-16.916367,11.656693
652.000000,0.002000,-0.394352,-0.044834,0.181922,0.271399,-2.638314,0.083351,19.929547,1.211010,-11.669949
653.000000,0.002000,-0.144761,0.495513,-0.306455,-4.393922,-1.849771,-2.220631,3.697443,-16.353938,13.288014
654.000000,0.002000,0.398234,-0.236273,0.880250,-3.035525,0.561487,-3.048066,-6.213480,4.017595,-12.795750
655.000000,0.002000,-0.705813,1.130638,0.153922,-0.132561,-3.129847,-1.576200,4.793255,-7.984746,-0.820302
656.000000,0.002000,-0.119341,0.312788,1.587145,2.198692,0.027398,-1.586235,0.381596,-1.139912,-6.490241
657.000000,0.002000,-0.557521,-0.087179,-0.264601,-3.094077,-1.136211,2.443537,20.794373,3.721240,12.164015
658.000000,0.002000,-0.273250,0.017020,0.171517,-1.055515,-0.776313,1.146668,22.265713,-0.151446,-12.686770
659.000000,0.002000,0.060293,0.229362,-0.049204,0.455568,-4.484513,-4.549681,-8.761190,-20.054103,6.088846
660.000000,0.002000,0.007361,0.487777,0.068498,-2.348048,-2.498054,4.665928,-1.407076,-24.385345,-1.123993
661.000000,0.002000,-0.165534,0.089049,0.445462,-4.329617,0.574608,1.621382,6.823804,-1.814806,-22.195341
662.000000,0.002000,0.218077,0.535488,0.625658,-0.072773,2.293127,1.086114,-5.693624,-11.839330,-13.637253
663.000000,0.002000,-0.246723,-0.451890,0.598447,-0.957000,-2.806252,1.135964,5.578924,11.345646,-14.465061
664.000000,0.002000,0.104533,-0.336453,-0.214484,-1.453300,-1.736224,5.645288,-6.296479,18.534648,15.248817
665.000000,0.002000,0.054750,0.419727,0.085042,3.199665,-1.411920,0.675140,-5.042670,-24.767407,-1.803400
666.000000,0.002000,-0.110499,0.091843,-0.069609,1.618630,3.794147,1.828613,5.556298,-9.693662,16.001440
667.000000,0.002000,-0.246118,-0.479637,0.031166,3.099715,4.319199,2.932189,9.255109,22.151677,-2.440799
668.000000,0.002000,0.640622,0.527068,0.470087,-1.167453,2.387052,-0.270212,-10.869507,-8.217550,-7.341492
669.000000,0.002000,-0.204692,0.212432,0.460349,4.635098,2.080580,-1.437891,9.641527,-12.422400,-20.566976
670.000000,0.002000,-0.407400,-0.318616,-0.516602,-2.384169,-0.165159,0.093797,10.852284,9.254983,16.217655
671.000000,0.002000,-0.167486,0.062469,-0.593691,0.432911,-1.628747,0.550725,5.990261,-2.533381,21.607571
672.000000,0.002000,-0.613138,-0.185695,0.515572,-1.365870,-0.240325,0.807531,13.705782,7.402527,-13.386028
673.000000,0.002000,-0.481946,0.437441,0.088211,0.655421,-2.726478,5.724126,18.043164,-15.663007,-2.005545
674.000000,0.002000,-0.417797,-0.509217,0.858644,-0.789531,3.482872,-1.951440,4.713580,6.224352,-10.711933
675.000000,0.002000,0.384606,-0.298019,0.165437,-0.147756,1.925938,-0.597843,-20.033284,11.962020,-7.322900
676.000000,0.002000,0.426012,0.380132,-0.433189,0.039321,0.679818,0.276754,-12.377213,-10.673847,11.507889
677.000000,0.002000,-0.338071,-0.296304,0.234034,0.763235,-0.249967,2.406150,13.946093,16.228742,-14.275916
678.000000,0.002000,0.299206,0.221237,-0.455516,3.446274,1.259054,2.228787,-12.729342,-8.719486,17.327984
679.000000,0.002000,0.411947,0.283017,0.237151,-5.062964,-2.388648,-0.278980,-18.077459,-13.419657,-6.570780
680.000000,0.002000,-0.446595,-0.511173,-0.094465,-1.983403,-4.886533,0.207679,14.943539,20.760196,3.188964
681.000000,0.002000,0.235525,0.417845,0.373704,-2.148116,0.625025,-0.934276,-9.462486,-15.311093,-12.745525
682.000000,0.002000,-0.094011,0.038165,0.057732,-0.076493,2.067684,1.748125,5.561893,1.251474,-3.794251
683.000000,0.002000,-0.094997,-0.239321,0.750961,-0.820405,1.177532,-0.782072,3.684528,8.638308,-20.605977
684.000000,0.002000,-0.339337,0.097826,-0.250954,1.005185,5.898936,1.909810,14.276040,-9.662495,10.985014
685.000000,0.002000,0.096918,0.095981,0.085836,-4.106206,1.819847,-0.293459,-13.173700,-12.316088,-7.216600
686.000000,0.002000,-0.112576,0.202924,0.156706,0.938889,6.472162,1.341195,6.842199,-14.712912,-15.455063
687.000000,0.002000,-0.306220,0.247089,2.890509,-0.469681,-0.442978,-1.047364,0.249029,-0.180739,-2.254935
688.000000,0.002000,-0.054835,1.171988,-0.194693,-0.206805,-2.472082,2.745684,0.982903,-11.043139,1.143210
689.000000,0.002000,-0.482788,0.126147,0.811321,4.292477,0.699067,0.383187,8.096378,-1.095701,-14.281070
690.000000,0.002000,1.421303,0.623437,1.112669,-1.453957,0.766139,-1.418982,-3.606302,-1.514395,-2.715812
691.000000,0.002000,-0.554824,-0.078457,-0.143496,-0.429171,4.657845,-2.704175,23.407829,2.427840,6.942335
692.000000,0.002000,-0.165117,0.068532,0.093900,1.888484,1.411568,2.299478,6.879201,-13.111636,-12.997999
693.000000,0.002000,-0.100713,0.154292,-0.127962,1.834014,-4.439299,-5.101464,6.538349,-11.595279,14.495381
694.000000,0.002000,0.253082,-0.049515,0.399553,1.741149,1.352429,-0.773390,-13.841044,3.229681,-19.752918
695.000000,0.002000,0.107116,0.046372,0.275902,-3.681346,-3.288257,0.144669,-9.097397,-5.995961,-20.920300
696.000000,0.002000,-0.605811,-1.234275,2.046902,1.302936,0.206321,-0.394308,0.698873,1.549299,-2.615012
697.000000,0.002000,1.407835,-2.140759,2.086635,-0.948809,0.062264,-0.063793,-0.794519,1.153417,-1.108719
698.000000,0.002000,-0.216728,0.138195,-0.489472,-0.476380,-0.183733,0.327394,8.680235,-6.008005,22.394349
699.000000,0.002000,1.699757,0.636814,-0.706561,-1.331274,2.471327,-0.785359,-3.981181,-1.377340,1.677250
700.000000,0.002000,-1.357456,0.328515,1.752853,0.522749,-0.570066,-1.104674,2.267066,-0.538981,-2.933253
701.000000,0.002000,-1.128241,0.017899,0.918811,0.842272,-0.808126,-1.682820,6.237707,-0.175659,-5.389399
702.000000,0.002000,-1.683210,0.514775,1.412832,0.066646,-1.570938,-1.330072,2.759845,-0.841783,-2.322880
703.000000,0.002000,-0.209531,-0.182778,0.296792,4.469594,-2.123317,-1.539130,10.154252,15.167385,-18.230914
704.000000,0.002000,-0.605754,0.621777,0.752670,1.235842,-2.819443,-2.434201,6.686060,-6.858200,-8.120811
705.000000,0.002000,-2.587113,-1.230427,-0.766562,-1.805897,0.911031,2.675465,1.927712,0.940568,0.569037
706.000000,0.002000,0.070048,-0.073432,-0.455864,-1.733487,-0.148427,2.806008,-3.481193,4.772641,23.374237
707.000000,0.002000,0.207690,0.311124,-0.180984,-1.727561,0.929433,3.477825,-12.414830,-18.639448,11.741814
708.000000,0.002000,-0.120997,-0.214953,0.000271,0.371712,1.495572,-3.822777,7.406899,17.092370,0.722632
709.000000,0.002000,-2.782900,0.329182,-1.810818,-0.535830,-0.286731,-1.060830,1.472244,-0.193610,0.954162
710.000000,0.002000,-0.403616,-0.037188,0.461702,-0.211419,-0.476476,3.302330,13.815499,0.762231,-19.168304
711.000000,0.002000,-0.778453,-0.830008,1.816840,0.567187,0.038310,-1.518564,1.364023,1.583263,-3.442993
712.000000,0.002000,-0.116307,0.447729,0.462874,-1.959779,0.387953,-0.586517,2.128458,-15.275400,-16.724023
713.000000,0.002000,-0.233268,-0.186624,-0.046061,1.770398,4.615247,-2.102931,17.766005,15.375019,5.116641
714.000000,0.002000,-0.489264,0.173885,0.100717,-2.482644,-0.879898,2.849394,25.084987,-8.444499,-1.897688
715.000000,0.002000,0.778198,-0.920053,-1.893451,1.305802,-0.045518,1.876208,-1.316091,1.467265,3.084986
716.000000,0.002000,0.567558,-0.277354,-0.432062,1.956440,-2.460915,-1.615257,-15.546723,7.745315,11.646139
717.000000,0.002000,0.352303,0.105028,0.578758,0.908372,-1.284675,-1.227456,-12.501423,-3.091719,-18.892155
718.000000,0.002000,0.049554,0.239892,1.007573,-0.553059,2.607723,-3.221640,-1.270153,-3.054826,-13.934655
719.000000,0.002000,0.147732,-0.259341,-0.623904,-0.549824,3.725072,3.488248,-4.177118,8.277322,19.584972
720.000000,0.002000,-0.150178,0.439441,0.756570,-1.840057,1.060614,1.512684,1.998003,-7.781049,-16.601855
721.000000,0.002000,-0.310256,0.573042,0.140733,-2.601895,-0.604486,-0.941153,10.515644,-21.026584,-4.880980
722.000000,0.002000,-0.113001,-0.456207,0.204939,2.452515,-0.837234,-2.808966,3.241433,21.542263,-8.376961
723.000000,0.002000,0.020226,0.746667,0.141231,-0.434908,3.050705,0.435486,-1.082436,-20.733042,-2.012507
724.000000,0.002000,-0.243674,-0.397106,-0.856151,-0.238622,-2.511548,-2.374050,3.878066,5.787399,13.658857
725.000000,0.002000,-0.003508,-0.191981,0.215438,2.954302,-2.501358,1.705243,0.658350,17.486549,-19.304737
726.000000,0.002000,0.051833,1.422234,-1.609316,-1.408714,-0.802639,0.710000,-0.187475,-2.604890,2.895034
727.000000,0.002000,0.093239,-0.499745,0.495504,1.086809,-4.401441,2.141372,-3.979247,15.232494,-13.234776
728.000000,0.002000,0.544856,0.298763,0.279405,3.688755,-1.849033,-0.747530,-18.655088,-7.793044,-8.986167
729.000000,0.002000,0.620501,-0.521759,0.299665,1.088777,-0.260872,0.714469,-13.060261,10.297690,-6.124837
730.000000,0.002000,0.454467,-0.065023,-0.434050,0.356193,-3.246440,-2.197911,-16.528008,1.956835,14.598555
731.000000,0.002000,0.262856,-0.099311,0.137381,-1.040872,4.028141,0.763974,-23.066901,8.330946,-10.132316
732.000000,0.002000,0.278153,0.200175,-0.254285,5.790788,-1.751702,0.621048,-13.493084,-10.271473,15.788197
733.000000,0.002000,0.003403,-0.814480,0.480394,-0.747866,-0.984507,0.279969,-1.021243,13.386566,-8.084025
734.000000,0.002000,0.255353,-0.001219,0.569761,1.882629,-1.692295,0.146110,-9.808986,0.590908,-20.126066
735.000000,0.002000,-0.540618,0.402692,-0.454922,-1.287989,2.455063,-1.440817,13.866303,-9.023559,12.009885
736.000000,0.002000,0.116628,-0.436206,0.215236,2.816483,1.099141,-3.218273,-7.106023,21.891665,-12.425971
737.000000,0.002000,0.134887,0.057140,0.379991,0.369327,5.324027,-0.825791,-6.657225,-3.636749,-25.605990
738.000000,0.002000,0.338502,0.749342,-0.779220,-3.395647,0.468229,1.531798,-3.664938,-7.769672,8.037098
739.000000,0.002000,0.263861,0.476195,-0.332688,4.977751,3.273156,-1.345623,-10.185882,-16.420067,10.764509
740.000000,0.002000,0.072486,-0.230532,0.632708,-0.753757,-2.005720,1.274881,-3.333875,7.857458,-21.061864
741.000000,0.002000,0.375128,0.028309,-0.881848,-3.839705,1.972605,0.558677,-6.221196,-0.181349,13.992532
742.000000,0.002000,-0.094018,0.174336,0.045417,-0.792634,-3.208713,2.331998,7.532656,-16.609477,-0.345471
743.000000,0.002000,0.263465,0.818737,0.309696,-3.795716,-1.386794,1.114255,-6.449646,-15.783173,-5.576186
744.000000,0.002000,0.018486,-0.432257,-1.042688,2.067155,-1.486039,2.606966,-0.535492,4.269724,11.079055
745.000000,0.002000,-0.803573,0.229612,-1.599815,1.996736,-1.672429,1.168423,2.336901,-0.640813,4.770628
746.000000,0.002000,0.248575,0.078689,0.122499,1.053174,1.181300,0.025595,-21.562372,-9.117917,-9.298474
747.000000,0.002000,0.325656,-0.091404,0.028731,-2.085865,-0.454491,6.123385,-24.060863,9.064839,-2.398501
748.000000,0.002000,0.124092,-0.191572,-0.670787,1.772565,2.133896,-0.760543,-4.159587,6.759782,19.152880
749.000000,0.002000,0.503975,0.158407,0.052028,0.692595,5.872367,-0.806170,-22.727562,-6.974342,-2.426890
750.000000,0.002000,0.290777,0.076089,-0.007404,-1.214782,-0.395405,-2.969044,-26.724695,-6.331848,-2.292168
751.000000,0.002000,-0.071097,-0.709272,-0.222052,0.796852,-2.471775,-2.568530,-3.073392,19.929413,8.675213
752.000000,0.002000,1.552842,-2.369169,-1.314048,0.409140,0.990448,-0.008545,-0.994436,1.479597,0.813899
753.000000,0.002000,-0.141344,-0.290210,0.143201,-1.949136,1.046253,0.719018,3.103447,26.788055,-11.055321
754.000000,0.002000,0.172993,-0.112863,0.217680,3.165920,2.199966,-2.922001,-17.617838,12.942775,-17.009805
755.000000,0.002000,-1.626243,0.958566,-0.157916,1.389180,-0.376479,2.319805,3.928381,-1.954405,0.345199
756.000000,0.002000,-0.330415,-0.372540,0.350839,0.314904,4.753594,2.098891,9.421283,14.610766,-14.315928
757.000000,0.002000,0.255866,-0.325415,-0.111498,-0.128102,1.516242,0.296956,-11.914381,19.871289,4.792633
758.000000,0.002000,-0.074994,0.110918,0.349829,-0.791345,1.672435,1.747378,3.691324,-8.167512,-21.925695
759.000000,0.002000,-0.390522,0.200115,-0.273657,1.669317,2.058923,0.100394,19.074534,-8.943232,13.257527
760.000000,0.002000,-0.573872,-0.291483,0.193544,-3.894003,-3.154979,1.004219,20.084160,10.705741,-7.328906
761.000000,0.002000,0.307465,-0.102356,0.294875,-0.990291,2.170766,5.604519,-19.388621,7.962669,-15.906179
762.000000,0.002000,-0.203371,0.210000,-0.178241,-3.520755,-0.865897,-0.507097,11.410913,-14.844707,12.934225
763.000000,0.002000,0.504788,-0.176421,-0.018815,4.299048,-2.787718,-0.448647,-24.613470,8.746463,-1.826350
764.000000,0.002000,-0.152448,0.195794,0.251051,0.290396,-2.455253,2.075856,8.991751,-12.142620,-14.235245
765.000000,0.002000,-0.396970,-0.211484,0.629064,0.134355,0.790231,-5.269923,8.902938,5.861934,-17.472833
766.000000,0.002000,-0.178312,0.278249,0.240531,0.821066,3.227024,-2.320577,8.302652,-17.688942,-14.249286
767.000000,0.002000,0.498927,0.603039,-0.121733,-0.323182,0.832554,-0.801945,-13.793717,-14.946277,3.008665
768.000000,0.002000,-0.229287,-0.507995,0.404917,-3.296447,0.355359,2.123499,2.726886,14.966979,-13.265888
769.000000,0.002000,0.100045,-0.154081,-0.338409,1.881974,0.923485,0.588062,-1.456376,6.657838,21.702226
770.000000,0.002000,1.096626,1.604497,-0.823861,0.389326,-1.532738,0.650583,-2.126354,-3.027126,1.592735
771.000000,0.002000,0.201374,0.185864,-0.183981,-4.927640,1.646575,3.548123,-11.028143,-13.990807,10.700142
772.000000,0.002000,-0.241683,-0.205279,-0.751767,-0.752032,-0.393627,-0.727403,5.007623,4.847785,17.537197
773.000000,0.002000,-0.375751,0.345898,0.344491,-0.516552,-1.197933,3.060502,15.945292,-13.433100,-13.197732
774.000000,0.002000,-0.199606,-0.093968,-0.128054,0.089235,1.818030,1.794265,18.237814,10.551895,10.378330
775.000000,0.002000,0.507805,-0.559594,0.009931,-1.022559,-3.498045,1.524681,-13.810098,14.858859,-0.450728
776.000000,0.002000,0.220589,-0.794028,-0.341950,-2.878646,-1.444375,3.799100,-4.826931,15.352006,6.841377
777.000000,0.002000,0.383870,0.110530,-0.223412,0.470249,1.666931,-1.318351,-19.074152,-5.584912,10.670589
778.000000,0.002000,-0.125199,-0.432627,-0.115793,0.844410,1.447756,-2.693315,5.269541,21.458187,7.177085
779.000000,0.002000,-0.007775,-0.180014,-0.115754,2.749303,-2.141498,-0.698252,-1.621218,17.599677,11.845968
780.000000,0.002000,0.575069,-0.310396,-0.272576,-1.328176,-2.432917,-1.699551,-17.888975,9.572763,10.402848
781.000000,0.002000,-0.105294,0.069222,0.491057,-5.130097,-2.938694,1.027712,1.994885,-1.539512,-23.310894
782.000000,0.002000,-0.243967,0.113479,-0.321442,0.949315,2.096274,-5.198784,12.061136,-6.806857,20.041488
783.000000,0.002000,-0.071258,0.193367,1.066623,-1.372686,-2.157655,-3.443129,0.458510,-2.560474,-13.103076
784.000000,0.002000,-0.051750,-0.088671,-0.296211,-0.502362,2.714257,-2.599297,3.971367,10.033227,25.371210
785.000000,0.002000,-0.456874,0.643682,0.880197,-2.315072,-2.118465,2.784136,4.698741,-6.442787,-9.051013
786.000000,0.002000,0.108249,0.034497,-0.567937,3.551121,-1.854682,-1.097230,-6.715608,0.568918,22.193737
787.000000,0.002000,0.834194,-1.554861,-2.237883,0.183147,0.610866,1.293204,-0.700397,1.279421,1.837671
788.000000,0.002000,0.502345,-0.339099,0.246096,-0.237346,-2.624680,-2.776649,-15.728549,11.369897,-8.080285
789.000000,0.002000,-0.107021,0.049514,0.036776,-1.741258,-4.929255,0.770714,11.707933,-3.399530,-2.278156
790.000000,0.002000,0.164280,-0.033297,-0.145156,0.106813,-1.607593,4.895754,-10.426835,2.558989,15.537425
791.000000,0.002000,-0.344691,-0.176908,0.385304,-3.758631,3.627691,3.373700,14.580465,9.967756,-18.007530
792.000000,0.002000,-0.379935,-0.504756,0.185986,4.728706,1.505400,0.803485,12.391708,19.857329,-7.584948
793.000000,0.002000,0.110479,-0.333117,-0.081806,1.663183,-5.907038,0.417054,-6.975066,22.707770,3.877413
794.000000,0.002000,-0.449520,0.087896,-0.644871,2.177500,-2.217178,-2.948096,14.363047,-2.464761,13.138414
795.000000,0.002000,0.680158,-0.406269,-0.033545,2.483844,0.565340,-0.019646,-17.523413,10.162004,0.292563
796.000000,0.002000,-2.239732,-1.651480,0.024114,-0.425813,0.917051,0.394338,2.006290,1.500098,-0.022529
797.000000,0.002000,0.412686,0.255154,0.014723,-0.486462,3.171688,-0.707464,-20.257276,-13.074592,-2.614702
798.000000,0.002000,-1.317234,-0.385013,1.119773,1.263869,-1.862865,0.088434,4.153487,1.228217,-3.751952
799.000000,0.002000,-0.294810,0.289047,-0.188018,-1.889583,0.711584,0.116932,15.110071,-15.704002,11.416146
800.000000,0.002000,0.196808,-0.076555,0.013367,-0.079335,-2.821396,-2.040601,-23.549716,7.467051,-2.075390
801.000000,0.002000,0.475571,-0.193156,-0.042793,-0.300241,-0.953028,0.186330,-25.279052,13.530236,4.947567
802.000000,0.002000,-0.487900,-0.065757,-0.316724,-4.228232,0.336733,-3.214679,22.110956,2.648374,19.173501
803.000000,0.002000,-0.232467,0.116624,0.232934,-1.635764,3.781925,0.894112,14.035647,-10.305308,-17.458433
804.000000,0.002000,-0.565325,0.382419,0.241704,1.938572,-2.066367,2.736658,18.016164,-11.684418,-5.928957
805.000000,0.002000,0.188128,-0.182424,0.011932,0.679522,-1.920013,-0.163332,-16.368823,14.104491,-3.486932
806.000000,0.002000,-0.359376,0.316832,-0.270117,-2.095512,-6.054195,-0.907235,15.988102,-14.128489,12.969940
807.000000,0.002000,-0.137407,0.173582,-0.044609,-5.104345,3.261239,-3.371455,10.807467,-21.073606,7.204726
808.000000,0.002000,-0.450419,0.198606,0.459333,-2.655232,-1.909412,0.860578,15.218805,-6.583384,-15.429587
809.000000,0.002000,-0.252671,-0.441351,0.235995,0.159637,-1.550257,-1.629631,7.140111,18.850002,-11.269318
810.000000,0.002000,0.249189,0.065236,0.162870,0.578659,-1.550889,1.032732,-17.507736,-5.957216,-14.745113
811.000000,0.002000,-0.895225,-1.607194,-0.199876,-0.228386,0.930321,2.042598,2.482775,4.568270,0.589730
812.000000,0.002000,-0.123754,0.451666,0.860866,-0.066705,1.241049,0.912599,1.533110,-6.891791,-14.503417
813.000000,0.002000,0.266747,0.361824,-0.677532,0.610378,-0.242854,-2.244628,-6.650353,-4.784930,16.446694
814.000000,0.002000,-0.922105,0.421608,0.199878,1.256546,-2.808798,1.533943,13.062015,-6.230893,-2.533782
815.000000,0.002000,-0.599466,0.063491,0.555193,-1.165113,0.733453,1.611664,15.012959,-1.988596,-15.498406
816.000000,0.002000,0.427326,0.245879,0.326750,0.186694,3.633297,-0.139397,-18.641551,-9.222913,-13.254916
817.000000,0.002000,0.442316,-0.125085,-0.195098,-4.444007,-1.819456,-3.897791,-27.003283,9.981292,9.312131
818.000000,0.002000,-0.334857,-0.322355,0.506304,0.219629,-3.380152,4.554235,10.136402,8.139322,-15.770762
819.000000,0.002000,0.204801,0.155945,-0.509655,-0.864458,5.437245,-0.541125,-9.693344,-6.622047,20.329028
820.000000,0.002000,-0.242706,0.178614,0.139128,0.338950,-1.048193,1.515288,15.769148,-14.157623,-9.995526
821.000000,0.002000,0.426657,0.354766,0.199631,-1.299375,1.572358,1.524912,-18.132708,-13.004949,-6.065758
822.000000,0.002000,-0.301043,1.335968,0.448033,1.844065,-2.051714,2.859072,1.800978,-7.570646,-2.438142
823.000000,0.002000,-0.092118,-0.675840,0.236330,-2.460835,-3.261097,-1.625112,1.369530,20.086001,-8.253984
824.000000,0.002000,-0.124160,0.193486,-0.125487,1.079827,-3.526835,0.825268,10.152183,-15.232791,14.707486
825.000000,0.002000,-0.746740,0.741437,-1.302855,2.752699,1.222425,1.683632,2.640581,-2.647077,4.895083
826.000000,0.002000,0.172703,0.130981,0.149174,-3.830038,-0.663988,4.982193,-16.375302,-10.588005,-12.624229
827.000000,0.002000,0.136924,-0.105951,0.132393,1.616900,-2.702298,2.250083,-16.468640,10.992669,-10.776149
828.000000,0.002000,2.327376,-0.491203,-1.071160,-0.516754,-0.470145,0.408317,-2.434501,0.561162,1.097982
829.000000,0.002000,0.500670,-0.253558,0.091779,-1.707148,-2.397882,1.701630,-20.197215,10.037784,-3.969566
830.000000,0.002000,-0.007523,-0.693393,-0.112782,0.241164,0.106158,1.033903,-0.044921,22.018377,4.233821
831.000000,0.002000,0.440150,0.068708,-0.766179,2.812546,1.175619,-1.230418,-8.783236,-1.826025,14.760021
832.000000,0.002000,0.185798,-0.091832,0.398983,-4.137130,1.359528,-4.192826,-11.553933,7.490200,-22.772549
833.000000,0.002000,-0.256860,-0.159849,-0.546125,0.844958,3.911071,-0.773025,10.559262,6.415797,21.244715
834.000000,0.002000,0.485218,0.531781,0.370292,-0.032746,-1.162051,2.476811,-14.824144,-12.212050,-8.380720
835.000000,0.002000,1.939120,-0.315043,1.149493,-1.393094,0.842767,0.820309,-2.974218,0.510613,-1.719204
836.000000,0.002000,-1.312885,1.636457,-2.723166,0.050330,0.061600,0.281900,0.640039,-0.787563,1.331343
837.000000,0.002000,0.223760,1.283710,1.526386,3.305945,-0.365408,0.244608,-0.553526,-2.902869,-3.460255
838.000000,0.002000,-0.022267,0.575881,0.168366,-0.857365,-0.305671,2.034151,0.230467,-20.251335,-3.477733
839.000000,0.002000,0.460099,0.451786,-0.215900,0.813848,-0.563437,-2.758266,-15.598500,-13.851417,7.866248
840.000000,0.002000,1.787684,0.160453,-2.970166,0.342076,0.738443,-0.703917,-0.839627,-0.073125,1.380478
841.000000,0.002000,1.108831,1.051585,-0.396887,-0.698129,-1.356554,-2.178986,-4.961603,-4.370945,1.713596
842.000000,0.002000,-0.666337,0.353391,-0.026988,3.574878,0.399200,-2.148234,18.289894,-10.813501,1.624770
843.000000,0.002000,-0.577784,-0.214080,-0.265691,-0.052831,-0.864392,-0.578031,17.845175,6.952951,9.759974
844.000000,0.002000,-0.839229,0.753409,1.300130,-0.151932,-0.154139,-1.216857,2.972304,-2.571080,-4.643525
845.000000,0.002000,0.213846,0.629829,-0.175239,-1.157161,-0.591882,-1.486544,-6.412964,-19.282153,5.751919
846.000000,0.002000,0.086431,0.150825,0.327529,2.776478,-0.250311,2.964702,-8.778887,-6.927878,-23.062292
847.000000,0.002000,-0.081645,0.517219,-0.647475,-0.818716,1.731988,-3.079261,2.148749,-11.337981,14.842594
848.000000,0.002000,-0.318013,-0.511731,-0.108111,-4.591443,-1.574749,1.129172,11.870620,20.284204,4.152978
849.000000,0.002000,-0.251578,1.876429,0.390425,-3.273619,0.334891,-1.325809,0.668206,-4.796966,-0.955445
850.000000,0.002000,-0.389845,0.162093,-0.213200,-0.185098,1.754697,5.394228,19.424713,-7.567406,13.186041
851.000000,0.002000,0.412164,0.395331,-0.128299,3.867670,0.129056,-4.163513,-17.187444,-15.057346,4.535855
852.000000,0.002000,-0.048061,-0.340737,0.444315,2.435782,0.335107,3.227670,-0.662958,14.497732,-18.919332
853.000000,0.002000,0.330515,-0.236704,-0.114203,1.589377,-1.000567,-0.977841,-22.571619,14.076376,6.561491
854.000000,0.002000,-0.436560,-0.397795,0.188551,0.956610,0.254677,-0.325054,16.584494,18.583929,-7.743502
855.000000,0.002000,-0.238073,0.437910,0.601163,1.701957,-0.140950,3.561751,6.329517,-12.097057,-16.435357
856.000000,0.002000,0.272041,-0.606145,-0.215858,-0.046757,-0.481182,-0.681581,-9.305035,18.196894,6.539841
857.000000,0.002000,-0.234781,-0.479278,-0.099209,4.815776,1.836528,-2.412390,9.532830,21.816836,5.682989
858.000000,0.002000,0.587894,-0.253321,0.535641,-4.125062,-0.514393,2.482059,-13.341350,5.943944,-11.616121
859.000000,0.002000,-0.324224,0.232214,0.231860,-2.335083,1.483913,-2.098801,18.395665,-11.378743,-12.564003
860.000000,0.002000,0.212638,0.273548,0.257410,0.409051,-2.856960,-0.298257,-14.949849,-16.927861,-12.455681
861.000000,0.002000,-0.758019,-2.384767,0.512236,1.113840,0.762315,-0.022100,0.792760,2.752250,-0.602216
862.000000,0.002000,-0.248178,0.121904,0.614623,1.043244,1.125713,1.876732,9.238628,-3.111487,-22.278270
863.000000,0.002000,-0.160149,0.296800,-0.304463,4.359876,-3.863753,1.978948,8.093258,-14.677663,17.739864
864.000000,0.002000,1.823559,-0.385989,-3.030212,-0.616162,-1.355038,-0.352649,-0.802628,0.158268,1.290935
865.000000,0.002000,1.397865,-0.217305,-1.759124,-0.410944,1.743293,0.188173,-2.265899,0.364606,2.770608
866.000000,0.002000,0.406399,-0.070778,-0.459839,-3.150648,1.497245,2.427344,-15.096610,2.833422,18.483369
867.000000,0.002000,0.004304,0.284282,-0.490714,4.166849,2.054442,2.908123,-4.223288,-10.223156,22.353218
868.000000,0.002000,-0.652068,0.287020,-0.456055,1.152804,-0.865408,4.658778,13.873662,-6.797893,11.255363
869.000000,0.002000,-0.344807,-0.051380,0.005498,0.908191,-2.743500,-2.737360,25.175501,0.071541,0.580581
870.000000,0.002000,-0.454259,0.644107,0.569813,-3.563446,-1.690452,-0.091862,8.054596,-10.457268,-10.136732
871.000000,0.002000,0.156081,-0.491775,-0.827312,0.347172,-0.122223,3.639633,-2.746298,7.588447,12.584815
872.000000,0.002000,2.025848,0.507681,-0.904394,-0.498296,-1.567905,0.608507,-3.174461,-0.804342,1.393536
873.000000,0.002000,-0.638249,0.068366,0.410427,3.919922,1.826425,2.651281,18.034213,-2.845500,-14.071714
874.000000,0.002000,-0.576566,-0.322396,-0.514148,-3.610592,-0.896853,0.692670,10.165829,9.061771,13.507019
875.000000,0.002000,-0.092644,0.266096,-0.206477,3.011873,-5.714074,-1.714215,10.433827,-14.333654,17.175693
876.000000,0.002000,-1.397252,-0.136958,-0.141123,1.332562,-1.339131,-1.819146,8.395647,0.869169,1.022922
877.000000,0.002000,-0.740343,0.031181,0.187265,-3.828433,1.747197,1.977396,20.865740,-1.009404,-4.767627
878.000000,0.002000,0.471469,0.342145,-0.324440,-0.083081,1.646391,0.878419,-15.184270,-10.936150,11.011731
879.000000,0.002000,0.522244,0.142288,0.170147,1.108136,-1.773339,0.512568,-22.601897,-6.066314,-7.376478
880.000000,0.002000,-0.003900,-0.040641,0.425469,4.931182,-1.484805,3.045903,0.464539,5.456601,-26.753555
881.000000,0.002000,0.169338,-0.454628,-0.362870,1.219870,0.489713,0.733674,-7.093396,16.638304,16.465331
882.000000,0.002000,-0.260323,-1.667314,-0.778994,-0.066519,2.016687,-0.206846,0.641375,4.741700,2.269567
883.000000,0.002000,0.813036,0.644414,-0.607224,-2.096242,0.883079,3.247217,-7.295737,-5.739444,5.217804
884.000000,0.002000,0.224604,0.493418,0.120462,2.867087,-4.436316,-1.749199,-11.999640,-22.638496,-0.945690
885.000000,0.002000,-0.776814,-0.524889,-0.306403,-0.137674,1.300808,4.027622,12.364551,8.392666,5.236906
886.000000,0.002000,0.096729,-0.154308,-0.605093,-1.331073,1.155063,-0.867345,-2.836948,6.094182,22.086541
887.000000,0.002000,0.279451,0.412250,0.073744,2.270635,0.928574,-1.374317,-15.007783,-18.562940,-2.456740
888.000000,0.002000,-0.298965,-0.681550,-0.420341,-1.047636,0.132365,-0.735655,5.252611,15.866391,9.735048
889.000000,0.002000,-0.059042,0.214391,0.090596,1.763461,-0.089557,-1.603820,-0.523185,-21.337690,-10.186697
890.000000,0.002000,-1.728422,0.565759,0.287107,1.943863,-0.565700,-2.090687,4.981850,-1.621429,-0.780757
891.000000,0.002000,0.515181,-0.128313,0.428325,1.084234,3.249634,1.526414,-13.741564,6.336226,-14.085633
892.000000,0.002000,-0.073085,-0.347591,-0.276337,0.884268,2.802361,-3.316156,4.800032,19.920655,15.679569
893.000000,0.002000,-0.233148,0.301497,0.011870,-2.955636,0.376166,5.985325,15.796541,-21.366684,-0.070522
894.000000,0.002000,-0.264103,0.004619,-0.400505,-1.710097,1.852793,0.083749,13.305601,-3.024628,21.856572
895.000000,0.002000,-0.276962,-0.562503,-0.541776,3.323243,1.597850,2.667264,6.067615,12.848894,13.198738
896.000000,0.002000,0.431199,-0.010325,-0.137629,1.878337,-1.912471,1.348926,-23.930345,-1.449197,8.543588
897.000000,0.002000,-0.142185,0.148453,-0.043647,1.057082,2.172816,-1.943720,14.463254,-12.780310,6.509786
898.000000,0.002000,0.268467,0.355302,-1.052143,-1.015947,4.134246,1.567148,-2.687371,-3.713386,11.035537
899.000000,0.002000,0.324267,-0.356771,0.128570,0.877846,-0.426538,2.754036,-19.806319,17.301856,-6.402600
900.000000,0.002000,0.182523,-0.532999,-0.241958,1.469449,1.363069,-0.273842,-9.328988,19.109187,9.186221
901.000000,0.002000,-2.028049,-1.455227,-1.280382,0.559490,1.412341,0.783894,1.759952,1.278743,1.134610
902.000000,0.002000,-0.403779,-0.269383,0.199312,1.027468,-0.618287,0.844789,17.062307,14.838443,-9.766193
903.000000,0.002000,-0.042294,-0.065485,0.051010,-2.460114,-1.897983,2.518240,3.760160,9.643152,-1.499713
904.000000,0.002000,-0.108018,0.450164,0.021189,1.897183,-1.394311,0.136465,2.846627,-23.092248,0.527491
905.000000,0.002000,0.276851,-0.152443,0.713319,2.182805,0.449688,1.116445,-5.154065,4.445779,-17.651930
906.000000,0.002000,-0.135155,0.262190,-0.178777,-1.487639,-3.971812,-0.339999,8.707607,-19.230150,14.280515
907.000000,0.002000,-0.341582,-0.277739,0.207353,1.474951,0.936547,-1.940727,16.429753,11.090049,-12.412069
908.000000,0.002000,-0.475164,0.305824,-0.185307,0.651315,0.316441,-1.545648,19.709901,-10.611378,7.782025
909.000000,0.002000,0.567390,-0.023005,-0.393597,2.907685,-0.809773,-3.159383,-17.208240,0.536549,10.252988
910.000000,0.002000,-2.307999,0.624722,3.317030,0.266954,0.978646,0.529428,0.673625,-0.171783,-0.975263
911.000000,0.002000,-0.636079,-0.198748,-0.098149,0.116275,-0.207637,-1.623773,20.587951,6.297075,3.668871
912.000000,0.002000,-0.315254,-0.514171,0.989260,1.211293,0.526909,-3.199819,2.795660,5.259739,-10.221549
913.000000,0.002000,-0.893852,-0.002245,0.085406,1.689701,2.363671,-3.337814,18.114244,0.389754,-1.588597
914.000000,0.002000,0.361768,-2.335066,0.083799,0.364628,-2.192001,1.838267,-0.566164,3.259864,-0.102660
915.000000,0.002000,-0.016854,0.264644,-0.183144,-2.340274,-0.433001,2.874508,-1.202080,-17.433226,13.738874
916.000000,0.002000,0.614622,-0.381680,-0.834766,-2.369309,0.044813,2.475716,-6.840521,4.385789,8.866748
917.000000,0.002000,1.726139,-1.495680,-2.064357,1.825047,1.313948,-0.406042,-1.163376,0.952530,1.313680
918.000000,0.002000,0.021430,-0.029815,-0.185365,-2.079865,1.423440,0.809860,-2.398796,1.774305,18.643307
919.000000,0.002000,0.503645,-0.091366,0.020676,2.389503,-1.872836,2.813058,-23.806203,3.725289,-2.330115
920.000000,0.002000,0.083564,0.389674,-0.257919,1.391334,-5.308962,-3.108402,-7.524480,-16.903021,9.683190
921.000000,0.002000,-0.117657,0.207556,-0.214398,1.670529,-2.318318,0.039578,3.839637,-15.240649,16.953783
922.000000,0.002000,-0.567810,0.076125,0.675072,0.097023,-3.038939,1.078787,11.958775,-1.120773,-14.813353
923.000000,0.002000,1.391839,-0.410043,-0.937903,1.556672,2.095567,1.809570,-4.657503,1.283623,3.188785
924.000000,0.002000,-0.981769,0.054003,0.199195,1.284537,-3.556901,1.399540,15.084416,-1.622044,-3.032390
925.000000,0.002000,-0.329619,0.001880,-0.444506,-1.899475,2.677425,-3.117496,12.087075,-0.615479,21.643477
926.000000,0.002000,-0.397426,-0.903664,1.542590,1.121585,1.693121,-0.908096,1.068152,2.619871,-4.563524
927.000000,0.002000,-0.038448,-0.500672,0.538185,0.948834,-3.174357,2.068781,-0.151365,14.993284,-14.652331
928.000000,0.002000,-0.017811,-0.093968,-0.074653,1.236241,2.573186,2.715594,0.411653,9.336045,2.589912
929.000000,0.002000,0.502994,1.895313,-0.602792,1.185696,-0.669485,1.754520,-1.014910,-3.973997,1.329431
930.000000,0.002000,-0.254859,1.712534,0.367925,-1.304428,-1.199479,-2.098918,0.974840,-5.440687,-1.176737
931.000000,0.002000,-0.115158,0.486688,-0.173731,-3.289721,4.028621,0.856319,2.601797,-23.471462,9.438986
932.000000,0.002000,0.530739,-0.196063,-0.062152,3.457693,-1.847428,-2.591865,-21.210824,8.385819,-1.199636
933.000000,0.002000,0.733814,-0.232968,0.328703,1.858517,-0.527037,-0.865522,-16.470397,4.999926,-6.858701
934.000000,0.002000,-0.153236,0.189194,0.365300,-5.093001,0.746413,4.003779,7.216796,-8.974940,-20.061642
935.000000,0.002000,0.063547,-0.013780,0.029660,-1.310073,1.739932,3.003090,-8.960821,-6.192192,-0.187400
936.000000,0.002000,0.467599,-0.696720,-0.430984,-1.614065,3.975699,1.776778,-7.925479,11.324647,7.182909
937.000000,0.002000,-0.275624,-0.771184,-0.348875,-1.257564,-1.609063,-0.526029,4.798470,15.490273,7.839715
938.000000,0.002000,1.175680,0.630857,0.159859,-3.164899,0.607478,-0.449356,-7.720740,-4.090103,-0.940559
939.000000,0.002000,-0.166448,0.392178,0.217209,-2.424880,-1.138798,-1.888528,9.504102,-19.601942,-13.296524
940.000000,0.002000,0.089571,0.122238,-0.473523,-1.529767,-1.149073,0.142942,-4.784598,-6.831532,23.426219
941.000000,0.002000,-0.296824,-1.537634,-0.388831,0.517972,0.709736,0.038413,1.166261,6.211707,1.564534
942.000000,0.002000,-0.385654,-0.031594,-0.126973,-3.035074,-3.178061,-1.474633,22.566605,3.565957,8.183614
943.000000,0.002000,-0.284977,-0.579936,-0.265428,-1.589481,-1.111661,1.358407,6.554992,18.292490,10.549060
944.000000,0.002000,-0.473592,0.176803,-0.406631,0.616473,-2.851615,-3.404992,15.620714,-6.238763,14.962552
945.000000,0.002000,0.690641,0.495961,0.435740,1.241081,-2.055133,-3.498314,-11.843285,-7.244229,-6.306365
946.000000,0.002000,0.056042,0.475072,-1.103872,0.103780,-2.026555,2.472013,-0.630494,-4.083498,9.973794
947.000000,0.002000,0.262555,0.288371,-0.950332,2.762686,-1.206615,1.316228,-3.577538,-3.742516,12.839958
948.000000,0.002000,-0.361809,-0.164463,0.006948,-1.350581,-1.520807,-3.924468,25.854826,7.682842,3.000857
949.000000,0.002000,-0.297544,-0.173380,0.251915,0.617729,3.152410,0.987256,14.667371,10.621209,-15.263332
950.000000,0.002000,-0.138231,0.060664,-0.024453,-3.201912,-0.180043,6.146612,18.183111,-12.189691,8.712223
951.000000,0.002000,0.515991,0.074032,0.007944,2.791529,-0.180195,-1.677459,-24.178683,-5.311869,-2.568456
952.000000,0.002000,-0.534508,-0.384499,0.317627,0.463049,-1.526239,-0.560497,15.634410,9.989693,-10.151108
953.000000,0.002000,0.053014,0.267688,0.033076,2.614929,-0.985418,-3.374516,-8.210169,-22.387303,-1.756272
954.000000,0.002000,-0.182231,1.138827,0.862525,1.450694,-0.243711,-3.305582,0.838782,-6.605560,-5.176178
955.000000,0.002000,-0.967567,0.245721,-1.210893,2.176843,0.495207,-1.908688,4.116652,-1.143195,5.360780
956.000000,0.002000,0.089930,0.638398,0.639560,-4.246359,0.838314,1.542584,-2.918876,-12.291820,-13.021958
957.000000,0.002000,0.410597,-0.253686,1.651012,-1.785314,-0.980406,-1.146953,-1.502619,0.928190,-5.500525
958.000000,0.002000,-0.401617,-0.301301,0.052476,-0.827480,-3.779646,-1.117530,21.296762,12.749460,2.196309
959.000000,0.002000,0.498284,0.239245,0.120100,1.299431,-1.567109,2.024579,-20.818646,-9.202362,-4.706985
960.000000,0.002000,-0.273425,0.009773,-0.089901,-3.587926,-2.152373,1.416979,22.363044,-3.364025,4.011989
961.000000,0.002000,-1.156890,-1.997838,-0.095379,0.156340,1.512686,-0.573077,1.743544,3.045371,0.184546
962.000000,0.002000,0.366662,-0.491854,0.246105,3.150114,-3.005409,2.184041,-13.077255,13.478925,-10.266274
963.000000,0.002000,0.035106,-0.282174,0.276837,-2.309069,0.786615,3.536501,-4.564636,21.392504,-18.954858
964.000000,0.002000,0.222031,0.044446,-0.686151,0.675514,3.716765,-1.685327,-7.291945,-0.539381,20.120741
965.000000,0.002000,0.142489,0.000370,0.396991,-3.031780,-3.226600,-4.694413,-7.108550,1.878555,-26.686547
966.000000,0.002000,-0.221790,-0.786486,-0.100584,2.881037,-3.070083,-0.727762,4.046060,18.152585,4.089212
967.000000,0.002000,0.508795,-1.237582,-2.458993,0.850579,1.733599,-0.205121,-0.442482,1.063597,2.120310
968.000000,0.002000,0.011925,-0.446094,-0.357156,-1.543686,-2.023995,-0.317660,0.569124,16.950404,12.800876
969.000000,0.002000,-0.457804,-0.831500,0.543361,1.991733,3.272377,-0.215040,5.137640,10.256912,-6.688346
970.000000,0.002000,0.039227,-0.095279,-0.101095,-2.386606,-2.550097,-1.520021,-3.684305,13.680462,14.118412
971.000000,0.002000,0.716829,-0.070852,0.101822,2.077757,-1.245479,-1.390790,-21.185808,2.155879,-3.899705
972.000000,0.002000,-0.513492,-0.074562,0.354762,2.768852,-0.979371,4.249294,19.833706,3.207589,-14.652250
973.000000,0.002000,-0.261081,-1.263288,0.433400,0.452430,2.250192,-1.687623,1.541857,8.460957,-2.888659
974.000000,0.002000,-0.108197,-1.165027,0.577873,-3.658332,0.068359,1.498370,0.410904,8.712777,-4.482201
975.000000,0.002000,-0.187189,0.016336,0.349769,1.210480,-1.750668,0.502397,9.087742,3.328835,-22.480402
976.000000,0.002000,0.547535,0.201255,0.054990,-1.986987,-2.902738,-1.856155,-21.898588,-8.344050,-0.707051
977.000000,0.002000,0.057260,0.488416,0.090163,0.364227,2.540592,-2.178379,-5.264642,-23.408887,-4.585726
978.000000,0.002000,-0.068594,-0.087618,0.488113,2.457234,3.401882,1.881102,1.519904,7.165837,-23.951632
979.000000,0.002000,0.465050,0.442585,-0.077833,3.779188,3.331073,0.968677,-21.579795,-13.521292,5.145794
980.000000,0.002000,-0.479793,-0.817573,-1.063242,0.915773,3.041635,-0.562473,2.747561,4.657950,6.254445
981.000000,0.002000,0.027752,0.648284,-0.517592,0.711178,2.955056,-2.182585,-0.821094,-14.832094,11.330226
982.000000,0.002000,-0.112801,0.175070,0.652259,-3.997276,-3.043548,-0.824279,1.127615,-4.706417,-23.537357
983.000000,0.002000,0.262404,0.363096,-1.436785,1.928685,0.407395,2.503340,-1.308737,-1.670045,6.909061
984.000000,0.002000,-0.024958,0.329665,0.517061,0.781136,-2.128805,0.615793,0.434691,-12.895046,-21.166875
985.000000,0.002000,0.301089,-0.071717,0.461631,-0.555385,1.277714,-1.433818,-13.562611,4.628947,-20.025910
986.000000,0.002000,-0.063476,0.602003,0.212898,0.711657,-2.169647,2.913069,3.604667,-21.801849,-6.859369
987.000000,0.002000,0.079888,-0.539703,0.091537,-0.284607,0.565493,-2.443766,-6.060133,21.677769,-3.991779
988.000000,0.002000,0.428777,-0.268362,-0.333340,2.946683,-0.078281,0.454650,-14.913749,9.769532,14.922247
989.000000,0.002000,0.482709,-0.069842,-0.453235,3.092980,-0.735701,1.084509,-17.597679,2.724628,15.017846
990.000000,0.002000,-0.109419,-0.216452,-0.031943,-1.099329,-0.777649,-1.582854,5.819317,18.589217,6.012134
991.000000,0.002000,-0.013689,0.598291,0.061027,-3.101512,3.528221,0.148114,1.040060,-22.783652,-1.065960
992.000000,0.002000,0.108631,0.782248,2.182351,0.511286,0.189443,-1.262853,-0.169874,-1.101864,-3.284045
993.000000,0.002000,0.144417,0.261501,-0.134286,1.476958,2.256124,-1.941361,-11.803631,-17.960752,9.936244
994.000000,0.002000,-0.249947,-0.279390,0.689474,1.926840,1.731887,-3.611412,2.962970,6.199527,-16.941270
995.000000,0.002000,0.568272,0.226176,0.092680,4.986046,0.664107,2.799097,-21.398031,-9.576283,-3.870382
996.000000,0.002000,0.053930,-0.497570,-0.003607,1.058873,-5.117026,3.223247,-6.234163,26.326665,-0.366563
997.000000,0.002000,0.794966,-0.735680,-1.752244,1.150789,2.070888,0.083432,-1.684011,1.466586,3.558777
998.000000,0.002000,0.581269,-0.361492,0.059432,-3.256120,-0.099416,1.104824,-18.143148,11.211057,-2.802986
999.000000,0.002000,0.096094,2.040884,-1.670321,-0.345443,-1.065747,-0.053235,-0.186876,-2.105154,1.692866
1000.000000,0.002000,-0.015590,0.052381,-0.544493,-0.263210,-2.732531,-0.487230,1.756055,-0.734199,23.903242
1001.000000,0.002000,-0.509740,-0.477381,0.098818,2.333257,-3.799435,0.379493,16.747006,16.279711,-2.455236
1002.000000,0.002000,-0.219054,0.506776,0.435892,-1.169980,2.191737,4.212788,6.356325,-17.730337,-9.039134
1003.000000,0.002000,-0.062610,-0.445075,0.145422,-0.009039,0.270897,-3.729002,2.158944,22.563945,-8.523558
1004.000000,0.002000,0.476048,-0.188363,-0.026520,0.265519,1.361862,-1.755779,-23.262399,9.870111,-6.809771
1005.000000,0.002000,-0.606613,-1.894910,-1.556501,-0.376983,0.614939,0.832229,0.675616,2.217496,1.851400
1006.000000,0.002000,-0.245910,0.117741,0.081168,1.997363,-2.631498,0.177166,25.813180,-10.911248,-0.837188
1007.000000,0.002000,2.150451,1.138957,-2.193723,0.782588,1.102927,1.359239,-1.190754,-0.638620,1.214438
1008.000000,0.002000,0.074709,-0.108808,-0.219082,-0.177650,4.178595,4.692280,-6.268666,7.417515,20.137078
1009.000000,0.002000,-0.203502,0.641658,0.052841,0.500526,4.893833,1.634386,7.169411,-23.586983,-0.030820
1010.000000,0.002000,0.982763,0.148894,0.518222,-3.211637,0.952216,-1.157316,-10.502016,-1.392728,-5.218557
1011.000000,0.002000,-0.036807,-0.001494,0.703115,2.201781,0.583158,2.102827,-0.242110,-0.548868,-22.726344
1012.000000,0.002000,-0.457589,1.408507,-0.372121,1.357917,-1.741808,-0.916590,2.148161,-6.877131,1.647652
1013.000000,0.002000,0.362494,0.583925,0.125759,1.589492,1.936575,-3.655942,-12.476305,-18.182574,-2.679847
1014.000000,0.002000,-0.222484,-0.046301,-0.431167,-5.858364,2.295426,-2.194178,7.685337,2.604751,24.513773
1015.000000,0.002000,0.083111,0.322950,0.185786,2.654865,-0.311420,0.332011,-8.724306,-20.112850,-12.255550
1016.000000,0.002000,0.669067,0.225892,1.820813,-0.972587,1.323924,-1.849526,-1.922331,-0.353008,-4.392679
1017.000000,0.002000,-0.112871,-0.242703,-0.388213,-1.018938,-4.428756,-0.783033,5.608245,12.648471,22.098166
1018.000000,0.002000,-0.613011,0.062022,-0.418602,-2.199534,-2.462259,-2.052159,17.566747,0.852289,12.942664
1019.000000,0.002000,-0.195027,-0.062555,-0.075122,-1.035157,-0.208780,-3.153522,19.338801,9.988389,7.765766
1020.000000,0.002000,-0.339625,0.498003,0.506047,0.371218,-0.205331,2.419317,9.275330,-12.665423,-14.267328
1021.000000,0.002000,0.016168,0.810746,0.164305,-0.634925,1.560169,-1.209645,-0.463016,-20.017822,-2.598483
1022.000000,0.002000,-1.823141,-0.913128,-0.118704,0.820285,1.710320,-1.206974,3.905989,1.953433,0.274062
1023.000000,0.002000,-0.383716,0.144683,-0.545504,-1.080565,0.483074,1.054394,10.157941,-3.146360,18.846975
1024.000000,0.002000,-0.060248,-0.110268,0.158790,4.238483,4.714327,-2.816940,7.002770,15.200736,-19.065346
1025.000000,0.002000,-0.519054,-0.503542,-0.921138,2.999656,1.119536,1.935935,4.917313,4.627587,9.171560
1026.000000,0.002000,0.265726,0.495050,-0.637541,1.358240,0.690792,1.302710,-6.536512,-11.724945,13.242752
1027.000000,0.002000,0.216853,-0.178000,-0.025634,2.361682,-1.056335,-2.590912,-21.083482,15.155339,1.333228
1028.000000,0.002000,0.188109,3.802859,-1.054583,0.531472,-0.109487,0.660121,-0.073264,-1.219517,0.340341
1029.000000,0.002000,0.170553,-1.918781,-0.367819,-0.206589,1.899092,-0.128009,-0.568345,4.600032,0.794154
1030.000000,0.002000,0.701048,-0.288978,1.002346,-3.018010,0.736461,-1.850612,-6.031935,2.194333,-7.652064
1031.000000,0.002000,-0.024167,-0.094953,-0.124205,-1.499453,1.343998,-1.820254,0.174562,8.153221,16.514185
1032.000000,0.002000,-1.210799,-0.338593,-0.754477,1.130781,0.967181,2.201246,6.548061,1.899848,3.920440
1033.000000,0.002000,-0.527735,0.006046,-0.056732,0.127875,5.104064,-1.886545,25.024953,0.382801,6.136966
1034.000000,0.002000,0.480013,-0.623767,0.266075,-2.658079,-0.440535,2.600522,-11.199072,12.738241,-5.986416
1035.000000,0.002000,0.123238,0.045753,-0.072158,-2.026371,6.901444,-0.121119,-10.824581,-7.906272,13.014962
1036.000000,0.002000,0.327536,0.264582,0.079957,-6.281800,0.482357,0.395207,-18.595288,-16.114143,-4.150706
1037.000000,0.002000,-0.189984,0.200951,0.049444,-3.283318,-1.745950,0.221274,16.692503,-18.694017,-4.872745
1038.000000,0.002000,-0.579040,0.159588,-0.374835,0.617893,-2.301565,4.161013,17.209384,-5.232189,12.325240
1039.000000,0.002000,-0.112333,0.327463,-0.103845,1.152753,-1.805137,-2.223884,7.947759,-24.236943,8.336242
1040.000000,0.002000,-0.430429,3.575219,3.741989,-0.277779,-0.526791,1.160955,0.058952,-0.510432,-0.535510
1041.000000,0.002000,-0.038449,-0.539629,0.433724,-0.131086,0.075931,4.531536,-1.262924,16.490990,-13.194015
1042.000000,0.002000,1.772906,-0.736901,-1.248025,0.876592,2.168893,0.626665,-2.750029,1.138643,1.894612
1043.000000,0.002000,-0.194517,0.052879,0.032607,-2.410977,-0.477487,2.651066,18.594931,-10.448259,5.564840
1044.000000,0.002000,0.452619,0.469514,0.335624,1.263944,1.868811,1.573002,-14.452550,-11.321007,-9.760780
1045.000000,0.002000,-0.390118,0.122283,0.080511,6.243726,0.739745,0.556388,19.416896,-0.540534,0.669704
1046.000000,0.002000,0.407185,0.180117,0.473466,-3.466321,1.268174,2.543395,-15.343002,-2.569227,-19.786141
1047.000000,0.002000,-0.710715,0.114512,0.269169,-3.691756,0.190657,2.016168,20.850452,-4.765009,-7.869921
1048.000000,0.002000,-0.581203,-0.416106,0.264269,-1.489756,-0.506974,-2.592923,16.314952,12.353819,-7.297166
1049.000000,0.002000,0.517429,-0.152076,-0.005132,-0.639562,-2.184953,-0.784993,-25.006114,5.879909,-2.446014
1050.000000,0.002000,-0.105367,-0.073175,0.751359,-1.693122,0.011541,2.044715,2.493322,2.321403,-21.364166
1051.000000,0.002000,-0.366190,1.356111,-0.632370,1.902018,-0.452189,-1.748595,1.463398,-6.377274,3.035696
1052.000000,0.002000,0.016716,0.024980,-0.227942,1.151513,1.109001,1.846457,-0.003739,-1.975473,21.206105
1053.000000,0.002000,0.046910,0.321318,-0.189801,-1.173399,0.420042,2.930149,-10.698020,-17.673385,13.940431
1054.000000,0.002000,0.048495,1.125017,-0.811692,-0.143305,-2.782624,-1.615595,-0.422858,-6.810331,5.082917
1055.000000,0.002000,0.525396,-0.385719,-0.046242,-3.041889,0.227417,-0.338873,-17.785223,11.511370,-0.292182
1056.000000,0.002000,0.049085,-0.352027,-0.312483,0.951131,2.698794,-2.694879,-1.234334,18.417658,16.436481
1057.000000,0.002000,0.785413,-0.332667,0.208303,3.519561,-0.606826,-0.143107,-15.556774,6.561629,-4.098541
1058.000000,0.002000,0.396713,0.169026,-0.218088,-0.288415,1.299088,-4.479104,-16.878505,-12.926887,9.207287
1059.000000,0.002000,0.140946,0.286422,0.463930,-3.096236,0.441758,-1.156665,-7.203951,-12.266901,-20.489183
1060.000000,0.002000,0.434972,0.342191,0.095350,2.185568,-0.869189,-1.569202,-19.612412,-14.784340,-3.385368
1061.000000,0.002000,-0.362748,-0.274440,0.145816,-0.169284,2.730258,2.271272,16.780778,15.357021,-6.665825
1062.000000,0.002000,0.151795,0.918132,-0.126722,1.359044,-4.747438,0.598493,-3.192819,-16.329698,3.231949
1063.000000,0.002000,0.345908,-0.081945,-0.104630,-2.806264,1.840568,-0.388867,-23.644451,6.406151,6.753869
1064.000000,0.002000,3.334056,0.960244,0.270209,0.286840,-0.169215,0.445017,-1.552049,-0.432622,-0.120344
1065.000000,0.002000,-0.800349,-0.414729,0.671627,0.716244,-3.728950,0.659194,9.068126,4.926632,-7.798601
1066.000000,0.002000,0.145974,-0.273502,-0.030474,3.001737,0.583114,-0.985677,-14.969075,22.361848,0.830399
1067.000000,0.002000,-0.012786,0.199805,0.574065,1.415204,-4.023347,2.573979,-0.881386,-5.969004,-22.934455
1068.000000,0.002000,0.341291,-1.280777,-1.471538,-0.274746,0.987956,2.321022,-0.808012,2.906844,3.442556
1069.000000,0.002000,-0.362959,0.096968,-0.054284,5.515715,-1.967227,1.602193,22.818483,-6.721433,4.505647
1070.000000,0.002000,-0.279619,-0.297288,0.458349,1.427621,-0.001015,-0.963317,8.540741,11.570021,-17.217808
1071.000000,0.002000,0.342262,0.219883,-0.600295,0.157573,-1.574939,0.125386,-10.549721,-5.962166,17.363076
1072.000000,0.002000,-0.091538,0.064480,0.391428,4.638435,2.802689,-3.154465,5.470644,-2.602837,-25.667866
1073.000000,0.002000,0.239863,0.329293,0.720729,-1.902963,3.797476,-1.750538,-6.153828,-6.679263,-17.244539
1074.000000,0.002000,-0.493715,-0.226866,0.402321,-1.057477,2.002904,2.489430,15.748540,9.161586,-14.224614
1075.000000,0.002000,0.233548,1.464243,0.308609,-1.499198,0.580635,2.140607,-1.308813,-7.034752,-1.270421
1076.000000,0.002000,-0.095382,0.081081,0.019887,2.198100,2.356130,3.332209,5.303112,-12.166601,-0.101591
1077.000000,0.002000,1.595872,0.291655,2.889721,1.141193,-1.084858,-0.795765,-0.878265,-0.148466,-1.540682
1078.000000,0.002000,0.269346,0.179571,-0.844646,0.885244,-0.235580,-2.779666,-5.107507,-3.084158,15.870327
1079.000000,0.002000,-0.221672,-0.350411,0.161193,0.928314,1.258269,0.896855,8.523993,20.135195,-8.218030
1080.000000,0.002000,0.116877,0.337722,0.392476,-1.557172,-1.521940,-1.314709,-9.055270,-20.643611,-15.498793
1081.000000,0.002000,-0.518196,0.487936,0.006895,0.402291,1.127267,-4.925879,17.522722,-15.408313,1.060145
1082.000000,0.002000,0.380856,0.185431,-0.079518,-1.496921,-0.936547,1.643672,-22.741457,-11.176034,6.148277
1083.000000,0.002000,-0.800506,-0.186914,0.573484,-2.534814,-0.503606,0.016342,12.383312,3.690542,-9.096706
1084.000000,0.002000,-0.771197,0.024846,-0.193901,-1.422488,3.223077,-1.003507,20.463536,1.058129,5.986050
1085.000000,0.002000,-0.241211,0.633448,-0.470379,0.492035,-4.768091,-0.617601,4.530452,-15.343417,11.395580
1086.000000,0.002000,-0.600201,-0.050588,-0.169786,-0.984621,-1.246752,-0.833491,21.733601,1.943694,6.883354
1087.000000,0.002000,0.158940,-0.347000,-0.391083,-3.154563,-0.670339,5.009911,-7.404985,15.064895,19.574686
1088.000000,0.002000,0.895557,1.475214,0.425703,-0.666590,-1.183735,2.273202,-2.919623,-4.445551,-1.266687
1089.000000,0.002000,-0.072253,0.553223,-0.153042,-1.221109,4.463373,-3.076463,-0.066698,-24.452227,9.419408
1090.000000,0.002000,0.763401,0.233677,0.307922,1.904173,2.420629,-3.299365,-16.673325,-4.614987,-6.343931
1091.000000,0.002000,-0.090778,-0.420335,-0.400426,-0.960550,1.890702,0.664387,3.709349,16.439951,17.594192
1092.000000,0.002000,0.226905,0.288400,0.575697,-0.407815,-0.836350,1.231743,-8.721006,-8.048746,-18.275372
1093.000000,0.002000,-0.050521,1.656176,1.401765,1.223140,-0.365063,-1.753964,0.053812,-3.041906,-2.560475
1094.000000,0.002000,0.548046,1.614251,0.729762,-1.752872,-0.535137,0.319258,-1.627202,-4.672844,-1.935511
1095.000000,0.002000,0.227822,-0.633055,0.284696,2.219130,-3.709908,1.895062,-6.977023,16.351480,-8.540721
1096.000000,0.002000,-0.668985,-0.010007,0.541829,-0.022225,-2.218806,1.618460,14.235691,1.651999,-13.092814
1097.000000,0.002000,0.532137,-0.342919,0.591908,1.075465,-2.631617,2.307797,-11.675817,7.607776,-11.692836
1098.000000,0.002000,-0.599545,-0.195725,0.055148,-1.754941,-1.526894,4.664277,19.306130,5.530877,0.857140
1099.000000,0.002000,0.170409,-1.304624,-0.001764,-0.636588,2.515013,-0.175106,-1.487090,9.139115,0.082677
1100.000000,0.002000,0.685471,1.661490,0.352939,-2.590572,0.135404,1.497066,-2.075398,-4.664973,-0.935494
1101.000000,0.002000,-2.127127,-0.887613,-0.776403,0.823623,0.269097,1.590864,2.794176,1.247701,1.091204
1102.000000,0.002000,-0.385157,-0.488543,0.016399,-0.898116,-2.855180,-3.464387,15.869503,20.416891,4.537959
1103.000000,0.002000,0.368714,-0.114481,-0.159820,1.011186,-1.900922,1.429429,-21.095498,8.743512,8.688242
1104.000000,0.002000,0.121990,-0.168507,0.189844,0.024987,1.144939,1.540046,-16.853698,15.982889,-14.142418
1105.000000,0.002000,0.501405,-0.466839,0.103628,-1.573241,-0.824671,-0.149448,-15.877058,15.293809,-4.167195
1106.000000,0.002000,-2.359298,-1.352511,-2.246367,0.186150,0.799364,0.096560,1.064499,0.595775,1.018437
1107.000000,0.002000,0.149596,0.009831,0.145203,-0.106095,0.398192,0.034503,-19.320864,0.243660,-10.263268
1108.000000,0.002000,0.233323,-0.208008,-0.173378,5.633273,-2.747946,-1.908446,-17.724244,14.289689,15.306402
1109.000000,0.002000,0.185534,-0.224123,-0.382493,-2.171335,3.211593,-1.872063,-12.462809,12.790038,21.586612
1110.000000,0.002000,-0.326486,0.698647,0.732314,3.475174,1.816032,-2.434001,3.547187,-9.829110,-9.146294
1111.000000,0.002000,-0.049520,0.264184,0.040489,-0.658268,1.065077,2.528387,1.958527,-23.808305,-2.918148
1112.000000,0.002000,-0.280630,0.022780,0.057827,1.968945,-5.651906,-4.002620,27.424878,-2.649358,0.516027
1113.000000,0.002000,-0.463284,-0.024352,-0.374506,-3.297355,0.968209,0.417849,17.840277,0.839965,17.798335
1114.000000,0.002000,0.749199,-0.383613,-1.191597,-1.555646,0.069619,1.516977,-3.952031,1.934458,6.505424
1115.000000,0.002000,-0.439784,0.086172,-0.655674,-1.182146,-0.669973,0.576388,7.202770,-1.112624,20.988142
1116.000000,0.002000,0.954579,-1.191458,0.271137,-2.147190,0.513424,-0.720995,-4.349254,5.172126,-1.152888
1117.000000,0.002000,0.284251,-0.530528,-0.150895,3.577412,-2.735354,1.709764,-11.529670,16.628504,6.206525
1118.000000,0.002000,-0.376460,-0.297980,-0.227166,-3.681192,3.018339,1.844363,16.678280,15.570471,10.156605
1119.000000,0.002000,-0.158525,-0.389369,-0.321015,4.235093,0.335176,-0.562183,7.593809,11.489782,20.818755
1120.000000,0.002000,0.701302,0.266220,-0.059354,2.492281,-1.988966,-0.445861,-18.879709,-7.935213,1.504981
1121.000000,0.002000,0.124483,-0.235251,-0.306474,-1.482007,0.279296,2.713857,-6.472242,12.621946,17.797169
1122.000000,0.002000,0.016587,-0.117401,-0.198205,-0.505866,-1.407985,-0.610689,-2.250178,11.838494,19.831806
