# 
#                 columns are tag, mass, x, y, z, vx, vy, vz, ax, ay, az
#                 Time=0.800000
# 
1.000000,0.002000,1.017743,0.412004,0.712576,-2.524226,-0.451023,-1.380738,-6.645128,-2.659360,-4.515164
2.000000,0.002000,1.895637,1.979972,-0.851017,-1.008452,-0.421448,0.415810,-1.567931,-1.654434,0.626837
3.000000,0.002000,-0.397150,0.072854,0.086699,1.775944,2.593490,2.110638,35.889120,-9.726789,-9.396069
4.000000,0.002000,-0.203522,-0.146284,-0.837065,-1.198684,2.179526,-0.768434,4.136131,2.699899,15.078080
5.000000,0.002000,-0.332481,-0.141216,-0.038401,-0.475468,-1.800271,1.546306,34.229065,15.054944,3.045705
6.000000,0.002000,-0.057055,-0.396373,0.022524,1.036175,-2.828475,-2.600185,6.215021,37.908513,-0.318032
7.000000,0.002000,-0.698320,-0.026788,-1.529214,-0.940241,1.225196,2.791674,2.313483,-0.026251,5.413412
8.000000,0.002000,0.027339,0.161650,0.145794,-2.980433,-5.573828,1.399391,-7.782235,-20.862369,-17.756469
9.000000,0.002000,2.974543,-0.758675,0.544720,0.129347,1.156438,0.512069,-1.865531,0.499979,-0.340800
10.000000,0.002000,-1.653482,1.656119,1.953885,-1.437435,-0.439427,-0.036342,1.115987,-1.151352,-1.365046
11.000000,0.002000,-0.117317,-0.130948,0.459537,2.673749,-1.139982,-1.727033,4.840615,9.657035,-30.123894
12.000000,0.002000,-0.992582,-1.076681,-1.390300,2.357191,-0.152184,-1.193139,2.001014,2.222328,3.017679
13.000000,0.002000,-0.311724,-0.340511,0.112401,0.480446,-4.046910,-0.700869,20.989148,20.909042,-6.557558
14.000000,0.002000,-0.093073,0.906226,-1.032656,0.560844,1.851760,2.610849,0.604556,-5.044977,6.083737
15.000000,0.002000,-1.427314,1.484923,-1.085567,1.067052,-1.350121,-0.291050,2.043501,-2.156256,1.643938
16.000000,0.002000,0.104358,0.277142,-0.205002,-1.486898,5.077075,0.475618,-11.148057,-24.115355,18.675591
17.000000,0.002000,-0.895765,0.233375,-0.215628,3.414651,0.171731,1.754701,13.265067,-3.345511,3.588388
18.000000,0.002000,-0.126388,-0.009496,-1.728835,-0.692321,0.791849,1.139319,0.306515,0.135294,5.401250
19.000000,0.002000,0.534126,0.263538,-0.082458,-2.582840,-2.818420,0.266729,-21.893704,-11.219917,4.455945
20.000000,0.002000,-0.008873,0.176807,-0.010493,1.283290,-1.674736,-0.940911,5.240970,-23.318853,-7.982263
21.000000,0.002000,-0.775515,-0.370805,-0.497573,1.840434,1.098359,2.085833,9.797450,4.879386,6.492054
22.000000,0.002000,-0.671178,-0.181736,-1.371413,2.666904,-0.446682,0.308681,2.814887,0.831159,6.056750
23.000000,0.002000,-0.877650,-0.238665,-0.532074,3.002122,-0.806863,1.844379,10.263732,2.539916,6.333595
24.000000,0.002000,-0.034978,-0.227678,-0.062128,-3.019790,0.893488,-3.933413,7.697486,25.171907,15.269902
25.000000,0.002000,0.611041,-0.400561,-0.274363,-2.909944,2.984961,-0.484178,-12.884323,9.764270,5.859399
26.000000,0.002000,0.107189,0.326176,0.247827,-0.778945,0.134216,0.099858,-6.705320,-29.721554,-24.369595
27.000000,0.002000,0.698113,0.159501,0.454585,-2.100330,-0.691929,2.217704,-13.913305,-2.814786,-8.187577
28.000000,0.002000,0.356243,-0.332383,-0.679573,-2.133440,-0.580107,3.613776,-6.941420,6.496848,13.232650
29.000000,0.002000,1.392576,2.076988,1.044391,-0.628599,-0.489574,-0.555750,-1.368213,-1.986038,-0.951062
30.000000,0.002000,0.036818,0.291126,-0.259361,-3.367652,0.474667,-3.322948,-2.993040,-27.251377,27.655810
31.000000,0.002000,0.159238,-0.315189,-0.214659,-0.034693,1.509875,-1.283006,-15.587676,25.775329,19.248684
32.000000,0.002000,-0.310689,-0.086824,-0.159669,-4.364459,-1.429082,0.157395,33.738431,10.515942,15.933322
33.000000,0.002000,0.194477,-0.537253,-0.208190,-2.956489,-2.651748,1.980615,-9.681716,21.521442,6.634383
34.000000,0.002000,0.611823,0.096458,0.485861,-2.245336,-4.126311,1.926253,-14.666192,-1.859540,-10.374694
35.000000,0.002000,0.035256,-0.002828,0.432765,4.218136,-3.733870,-0.400127,-1.721478,2.093905,-36.739840
36.000000,0.002000,1.321466,-0.142139,0.993239,-2.383836,0.635884,1.648077,-4.493486,0.588348,-3.530991
37.000000,0.002000,1.245694,1.991221,1.711246,-1.260159,0.123569,-0.701560,-1.006548,-1.560012,-1.350764
38.000000,0.002000,1.597497,-0.050826,1.538580,0.055989,1.185121,-1.420143,-2.617613,0.102353,-2.493897
39.000000,0.002000,-0.594797,1.548077,1.575443,0.004856,-0.070371,-0.299058,1.011509,-2.446798,-2.521489
40.000000,0.002000,0.165395,-0.106052,-0.350695,1.500133,0.952579,-0.566316,-16.031093,7.635885,26.938720
41.000000,0.002000,-0.119383,0.393339,-0.118147,-2.590200,-1.707875,-2.694335,10.568813,-33.660532,10.923164
42.000000,0.002000,-0.402318,0.184665,0.142487,-1.100412,-0.161559,3.027264,28.668997,-7.252935,-13.688407
43.000000,0.002000,0.154312,-0.336986,0.284568,-0.172956,-3.012081,-4.786345,-13.196528,23.888738,-20.470104
44.000000,0.002000,-0.186216,0.192754,-0.260636,-1.882178,-1.031436,-2.421600,15.941269,-16.996908,25.361071
45.000000,0.002000,0.189172,-0.068195,0.234724,-2.532965,-2.605432,-1.070284,-21.307174,10.435171,-25.661031
46.000000,0.002000,0.879439,-0.541694,-0.175472,-2.486939,-0.703412,0.607918,-9.819984,5.992606,1.795329
47.000000,0.002000,-0.224975,0.030262,0.444305,0.665181,5.148225,0.703767,15.853637,-1.436411,-29.214683
48.000000,0.002000,-0.000856,-0.020197,-0.126372,2.566876,0.602658,2.918040,-8.076090,1.171071,18.926123
49.000000,0.002000,0.962220,0.344430,1.111444,-3.370465,-1.280890,1.843410,-4.362512,-1.469016,-4.988405
50.000000,0.002000,1.504853,-0.247032,-0.566425,-1.117418,2.004627,0.450389,-5.532178,0.820848,1.960129
51.000000,0.002000,-0.706759,0.352212,0.523769,1.052334,-3.884316,0.925345,10.825862,-5.488871,-8.208574
52.000000,0.002000,-0.094606,-0.305439,0.341698,3.860718,2.664524,-0.528668,4.560953,21.248056,-23.807579
53.000000,0.002000,0.081120,-0.989258,-0.854456,-1.887122,1.640200,1.704754,-0.761486,6.330737,5.494609
54.000000,0.002000,0.045171,0.115799,0.237278,0.465159,0.704160,-6.599288,-6.330258,-14.812005,-24.323195
55.000000,0.002000,-0.253799,0.791548,0.378935,-1.890269,-2.431792,2.518413,4.069921,-13.080339,-6.196370
56.000000,0.002000,0.014091,-0.801415,-0.678367,-1.403490,2.015644,2.808308,-0.069513,9.148504,7.559520
57.000000,0.002000,-0.419021,-0.237130,-0.263379,0.097372,-1.913865,1.201943,21.291568,12.491817,13.791547
58.000000,0.002000,-0.207919,-0.235601,0.193648,-3.125723,-1.391527,1.296936,18.186995,19.848978,-19.368661
59.000000,0.002000,-0.293320,0.575180,-0.179389,2.765340,-2.686656,2.269163,9.253046,-19.702302,7.098420
60.000000,0.002000,0.082984,0.255976,-0.074453,-3.089005,2.227504,-1.374527,-14.195748,-32.847035,9.267923
61.000000,0.002000,-0.367722,0.205901,-0.260088,2.945637,2.492211,3.357545,23.930039,-12.206398,16.858806
62.000000,0.002000,-1.598517,1.113367,-1.160251,1.686487,0.116360,1.148772,2.382399,-1.899077,1.753809
63.000000,0.002000,0.193236,-0.031060,0.143780,4.204812,1.266223,3.378746,-32.851060,9.489217,-17.106702
64.000000,0.002000,1.025290,-0.365886,-1.130586,-2.141674,1.914593,-0.893786,-4.395064,1.468152,4.407938
65.000000,0.002000,-0.193216,-0.275590,-0.571190,0.844452,4.289501,0.544374,5.909431,9.384643,19.455903
66.000000,0.002000,-0.502483,1.143860,1.107092,0.103325,-0.964649,-0.948455,1.543124,-3.901507,-3.859001
67.000000,0.002000,2.256272,-1.650760,-0.902890,-0.813627,-3.492563,-0.370201,-1.703510,1.237384,0.659427
68.000000,0.002000,0.116750,-0.585331,-0.376018,1.691885,1.393845,-0.542632,-3.534530,17.551670,11.323681
69.000000,0.002000,-0.725289,0.597225,0.346165,0.596694,3.240523,-1.649637,9.290050,-8.669687,-4.927449
70.000000,0.002000,0.248022,-0.024989,-0.084027,2.299672,1.076034,-2.743861,-31.308024,2.768979,11.650519
71.000000,0.002000,-0.232021,-0.054352,-0.226855,-3.282960,2.838067,-2.621265,24.144279,5.177024,23.286509
72.000000,0.002000,0.201840,0.347950,0.068196,0.575155,0.519367,-0.293595,-21.673535,-32.091675,-2.921134
73.000000,0.002000,0.008168,-0.010565,-0.730372,-0.034599,-3.643059,-2.223862,-0.568129,-0.027621,19.617253
74.000000,0.002000,-0.055474,0.074988,-0.379105,0.500536,2.705989,4.540777,3.163406,-7.082603,32.918993
75.000000,0.002000,-1.738293,0.865579,-1.322782,-0.759178,0.016315,1.217595,2.493044,-1.159843,1.894911
76.000000,0.002000,-0.041022,-0.024955,-0.058544,-1.852448,-4.287522,2.784807,5.088647,-0.895701,9.905735
77.000000,0.002000,0.203063,0.033975,0.482483,-0.425950,-0.562132,-0.177691,-8.452347,-3.779147,-28.301771
78.000000,0.002000,0.299148,0.361502,-0.238100,-0.782519,-0.976131,2.778928,-17.465828,-20.528951,11.781448
79.000000,0.002000,-2.060169,1.350555,3.226216,-0.770334,0.466372,1.635552,0.614685,-0.424840,-0.972247
80.000000,0.002000,-1.351987,-0.502027,-0.356931,2.786021,-0.849293,-1.222449,6.300303,2.799351,1.757128
81.000000,0.002000,0.069692,0.203407,0.014780,-3.891750,-0.849574,-0.411828,-22.589660,-28.325268,-2.700783
82.000000,0.002000,-0.208781,-0.999215,-0.407661,0.572364,1.014026,3.348217,1.629925,10.447117,4.476258
83.000000,0.002000,1.176050,-0.177794,-0.570603,-1.822433,-2.048325,1.379302,-7.062565,1.178030,3.725976
84.000000,0.002000,-2.720526,0.953948,-0.281003,-0.555716,0.164379,0.560726,2.179979,-0.768736,0.272614
85.000000,0.002000,-0.052589,0.041229,-0.292732,0.082245,-1.975033,-0.287268,3.620229,-6.752185,34.959924
86.000000,0.002000,0.160032,-0.386517,-1.140615,-1.242425,1.220203,2.439484,-0.686576,3.420573,9.015997
87.000000,0.002000,0.579880,0.659761,-1.376444,2.774106,-0.735880,1.436809,-2.161195,-2.256163,4.950702
88.000000,0.002000,0.178367,0.009558,0.174196,-0.703027,-2.595290,1.259413,-31.026177,0.572678,-28.408204
89.000000,0.002000,0.552381,0.277987,0.414560,3.012345,-1.668426,-3.150779,-14.390085,-7.377166,-10.263057
90.000000,0.002000,-0.125873,0.052485,-0.146266,2.779552,0.890457,4.464746,13.923504,-6.426280,13.080821
91.000000,0.002000,0.046294,-1.962390,1.306179,-0.501239,1.812317,-1.366461,-0.078222,2.737124,-1.844909
92.000000,0.002000,-0.187684,0.251524,0.109032,-2.512950,-2.653079,-2.239483,19.173494,-28.157771,-8.047728
93.000000,0.002000,0.324355,-0.949280,0.055718,-1.348215,1.091806,3.882222,-3.887375,13.558934,-1.115825
94.000000,0.002000,0.723406,-0.183899,0.938279,-3.204631,0.103438,-1.522481,-5.576525,1.283302,-7.387630
95.000000,0.002000,-0.032411,0.002813,-0.080384,3.265271,-5.914595,0.692884,6.123439,-8.614225,11.474366
96.000000,0.002000,0.948214,0.081245,-0.412248,-2.228639,2.176332,-2.114491,-10.807006,-0.899460,4.552088
97.000000,0.002000,0.388796,0.668276,-2.111199,-0.716083,-1.477494,-0.644244,-0.642108,-1.032146,3.339291
98.000000,0.002000,-0.093110,1.037784,0.364605,0.746044,-3.748561,1.733965,0.764503,-10.597122,-3.606903
99.000000,0.002000,0.047565,-0.293872,-0.005533,-3.573341,-3.760963,0.276125,-9.205201,31.910850,3.068448
100.000000,0.002000,-0.051611,0.027083,-0.067627,2.959177,-2.155656,2.407223,10.554970,-7.432120,13.302698
101.000000,0.002000,-0.746502,-0.022936,-0.602353,2.915674,-3.006733,0.811413,9.549044,0.904489,9.348422
102.000000,0.002000,0.239096,-0.240925,0.013009,-0.413197,0.093944,-2.217311,-27.522341,25.195613,2.435485
103.000000,0.002000,-0.480274,-0.176081,-0.316332,4.084382,3.279564,-0.627000,19.906610,8.709668,13.531243
104.000000,0.002000,0.084483,-0.077777,-0.318357,0.934427,-2.176751,1.811909,-11.506608,8.269170,32.211039
105.000000,0.002000,0.409415,0.260081,0.091016,1.742901,0.665195,-0.077442,-26.348210,-16.200229,-3.627188
106.000000,0.002000,-0.165107,0.013985,1.254443,-0.258281,0.166205,-0.835428,0.991612,0.117695,-9.226180
107.000000,0.002000,0.022811,0.062027,0.192936,-3.397963,2.819498,3.098322,-0.106092,-8.425484,-25.312583
108.000000,0.002000,0.199521,-0.165020,0.332273,-1.254243,-2.497781,0.120618,-15.654930,13.584504,-28.435013
109.000000,0.002000,0.353657,0.042952,0.184501,0.737331,-1.344680,3.526015,-27.586710,-2.765165,-18.568514
110.000000,0.002000,1.244530,0.120761,2.313681,-1.961002,1.115501,0.913438,-1.358503,-0.091676,-2.364035
111.000000,0.002000,-0.083275,0.105701,0.053402,-2.408369,3.718351,-4.967963,16.375116,-17.016121,-6.933434
112.000000,0.002000,-0.941037,-0.845029,1.069536,1.089605,3.320634,-0.178040,3.265141,3.208673,-3.950405
113.000000,0.002000,-0.676842,-0.922178,-0.196563,3.413170,-0.440092,1.382155,6.173135,6.259210,0.493184
114.000000,0.002000,1.677718,0.907338,1.173623,-1.123645,-0.861605,1.643313,-2.641312,-1.425722,-1.868745
115.000000,0.002000,-0.851542,-1.185426,-1.176422,0.556208,1.248045,0.018227,2.182324,2.965351,3.125939
116.000000,0.002000,-0.916946,-1.064065,0.689115,0.460379,0.720367,-0.291522,3.755081,4.371256,-2.965866
117.000000,0.002000,-0.235366,-0.089574,0.242387,-3.625805,-0.677092,1.810594,23.060351,10.955466,-21.445427
118.000000,0.002000,-0.430091,0.715850,-0.819609,2.348072,-2.190406,1.172483,3.589542,-5.996388,7.488391
119.000000,0.002000,0.182198,-0.027618,-0.779191,1.020742,0.897408,4.310821,-3.895688,-0.200993,17.689703
120.000000,0.002000,0.243416,0.141501,-0.117884,3.300448,0.081034,2.626929,-29.940837,-13.664361,14.783145
121.000000,0.002000,-0.268576,0.060067,-0.338073,-1.755085,1.194737,-1.254490,16.058353,-3.460229,32.747841
122.000000,0.002000,-0.097670,-0.064855,-0.020866,2.694617,-3.322912,2.634986,10.288609,10.515581,2.515477
123.000000,0.002000,0.000827,0.157549,-0.026538,-3.351596,-1.024662,-2.916076,1.733592,-13.481342,10.836900
124.000000,0.002000,-0.496139,0.232703,0.217624,4.323803,-1.541853,1.757804,23.433816,-10.773833,-9.242315
125.000000,0.002000,-0.152899,-0.209697,-0.245530,-2.848438,3.668545,2.806480,14.618132,20.818933,27.849985
126.000000,0.002000,-0.092793,-0.131667,0.247335,-0.442069,-0.997154,5.754569,9.088526,14.701554,-34.278326
127.000000,0.002000,-0.414791,-0.989481,-0.566628,0.621784,-1.299878,3.421414,3.490343,8.008507,4.621095
128.000000,0.002000,0.653528,-1.129453,-2.811300,0.143382,1.916929,-1.526304,-0.426118,0.726872,1.804360
129.000000,0.002000,-0.025385,0.055583,0.116918,-0.196350,6.852632,1.764780,-1.024815,-7.622839,-23.433094
130.000000,0.002000,-1.329342,0.151994,1.524641,1.299952,-2.412195,0.797961,2.892111,-0.276203,-3.265715
131.000000,0.002000,-0.137624,0.247525,0.244363,-2.319324,-3.450622,-2.006468,5.658969,-23.316545,-22.672466
132.000000,0.002000,-1.580258,-1.004965,-0.539458,1.385190,-0.248900,0.782297,3.711332,2.432172,1.232208
133.000000,0.002000,-0.021211,1.186140,0.439656,-1.504732,-1.781823,-2.328790,-0.732066,-8.511850,-2.772212
134.000000,0.002000,-0.352034,0.569923,0.380569,-0.987849,-2.183839,2.933013,8.042041,-14.348166,-9.637547
135.000000,0.002000,-0.302632,0.129023,0.292304,1.250828,-3.552740,4.227144,22.716608,-12.536824,-24.923761
136.000000,0.002000,-0.170198,-0.252874,-0.052490,3.086520,-0.822195,-3.286332,18.018344,30.937136,7.402183
137.000000,0.002000,0.354932,-0.104793,-0.220494,-1.196135,2.828669,4.820848,-25.873667,7.936553,17.573881
138.000000,0.002000,-0.668937,-0.005250,-0.936197,-1.204661,0.590008,1.904688,6.137993,-0.032867,8.641238
139.000000,0.002000,0.761411,-0.351266,0.199123,-3.908890,-0.842560,-0.887129,-13.458872,6.412979,-3.272349
140.000000,0.002000,1.456519,0.043619,0.137807,-0.002610,-2.490064,-2.897107,-6.982571,-0.062599,-0.696798
141.000000,0.002000,1.369990,0.463979,-1.055279,-0.436647,-0.527183,2.357515,-3.921498,-1.271987,2.893735
142.000000,0.002000,0.035304,-0.074636,-0.034970,2.435713,-4.054109,-0.654635,-6.630770,15.394117,8.872500
143.000000,0.002000,0.504436,-2.029463,-0.049199,-0.907841,2.004668,0.762994,-1.070435,3.854809,0.142405
144.000000,0.002000,-0.322703,-0.221560,-0.393883,0.378602,1.802163,4.644895,15.644897,11.689293,20.064512
145.000000,0.002000,-0.341836,-0.070829,0.241815,-3.028236,-0.081736,-2.045867,21.329002,12.350662,-14.834277
146.000000,0.002000,-0.070161,-0.255696,-0.158468,1.351585,0.067626,-2.988067,2.902541,27.275908,18.121008
147.000000,0.002000,-0.339818,0.003176,0.061466,0.444451,0.243932,-1.046643,34.341643,5.116747,-10.070074
148.000000,0.002000,0.475991,0.195852,-0.037415,0.403480,-3.328184,-2.129822,-25.775112,-10.451947,2.626742
149.000000,0.002000,-0.357315,-0.397013,-0.273921,-1.562374,3.831537,0.036102,14.615921,19.149400,14.793618
150.000000,0.002000,0.285905,0.247500,-0.045956,2.384820,1.150896,-2.422618,-29.893328,-21.720665,2.196426
151.000000,0.002000,-0.766827,-0.565630,-1.069716,2.333708,-1.553661,-0.614286,3.844374,2.883121,5.966379
152.000000,0.002000,0.277193,0.914371,2.379027,-0.157872,0.391500,-0.661912,-0.344976,-1.048599,-2.656770
153.000000,0.002000,0.099705,-1.334135,1.333782,0.791375,2.381805,0.628948,-0.387758,3.257784,-3.320193
154.000000,0.002000,-0.533160,-0.341263,-0.122659,1.877135,2.428378,2.978340,19.769862,12.461600,6.279993
155.000000,0.002000,0.152243,-0.014936,0.211701,-0.938710,4.244284,-1.456126,-19.480539,7.838071,-28.894090
156.000000,0.002000,0.900622,0.198986,-1.659937,-2.871669,1.529188,-0.046394,-2.305718,-0.517872,4.032811
157.000000,0.002000,-2.248217,-0.427504,0.304719,1.156955,-0.755003,3.105682,3.482057,0.773710,-0.230780
158.000000,0.002000,0.195731,0.115669,0.213022,-0.941459,4.328126,-1.719211,-23.532912,-14.338177,-26.535745
159.000000,0.002000,2.983309,1.240063,1.704846,0.991249,0.047720,0.125440,-1.201253,-0.487993,-0.688495
160.000000,0.002000,-0.475176,-0.191100,0.480140,3.014739,-2.157929,-2.418558,15.139125,7.839962,-15.452877
161.000000,0.002000,1.228775,-0.163404,-0.545702,-1.341273,-1.648376,1.580367,-7.801737,0.765810,2.932891
162.000000,0.002000,0.362822,-0.645703,-1.213657,0.691059,-1.586050,3.597566,-2.023919,3.189713,6.412818
163.000000,0.002000,-0.419091,0.023468,0.057084,-0.998819,-4.969649,-0.741915,36.272748,-0.546985,-4.473122
164.000000,0.002000,-0.181459,0.176798,0.012505,3.275695,4.084839,2.182033,20.831152,-21.674177,-0.475455
165.000000,0.002000,1.700928,2.467072,2.487337,0.515011,1.137222,-0.672967,-0.569105,-0.816856,-0.840310
166.000000,0.002000,0.016532,0.091509,0.084327,-0.274910,-2.826419,-2.033526,-8.922169,-12.900973,-5.748219
167.000000,0.002000,-1.818757,0.234235,-0.655868,0.748503,0.251713,-0.958450,4.316454,-0.593463,1.601835
168.000000,0.002000,-0.196811,-0.875147,-0.686968,0.536822,-1.546749,2.038864,1.677898,8.093566,6.457568
169.000000,0.002000,-1.096345,-1.554920,-0.206792,-0.065333,0.062363,2.479402,3.243245,3.721671,0.632760
170.000000,0.002000,-1.228290,-1.754990,2.046699,0.900605,-0.180486,0.307945,0.926064,1.354653,-1.531980
171.000000,0.002000,0.464090,1.007053,-1.799528,-0.930442,-1.224946,0.502727,-0.919169,-1.956834,3.445842
172.000000,0.002000,0.728539,0.229602,-0.067316,1.230390,2.749431,1.717971,-17.656094,-4.856336,1.960753
173.000000,0.002000,-0.153446,-0.241330,-0.122582,0.753438,-3.554201,3.645048,10.010352,30.777522,18.566419
174.000000,0.002000,0.028618,-0.174530,-0.621092,-3.749964,0.786806,3.180593,-1.396349,5.547239,22.128703
175.000000,0.002000,-0.404715,0.252123,0.122204,5.575082,1.332839,-1.002811,31.042188,-16.873056,-4.276714
176.000000,0.002000,0.539798,0.789148,0.816604,1.471695,-1.588161,-2.509596,-4.223869,-5.414613,-6.160477
177.000000,0.002000,-1.295155,-0.054875,-1.473221,2.150368,-1.237743,1.838391,3.024465,0.132004,3.452545
178.000000,0.002000,1.378552,-0.508847,0.062901,-1.015913,-2.339270,-0.133111,-6.625784,2.390650,-0.343569
179.000000,0.002000,0.279252,0.195861,0.052350,1.230339,4.469530,-0.562879,-30.499252,-15.840629,-3.940944
180.000000,0.002000,0.171530,0.245255,-0.030392,1.571658,1.987240,-0.489465,-20.779159,-26.608008,-2.110466
181.000000,0.002000,0.525931,-1.163213,0.117287,-0.453972,2.327606,0.580414,-4.042543,8.115950,-0.770648
182.000000,0.002000,-0.596344,0.351388,0.267121,-2.697585,-2.561724,-0.756971,15.631786,-9.510390,-6.818908
183.000000,0.002000,0.554827,-1.341659,0.857734,-1.147193,2.667173,-1.058895,-1.913660,4.605688,-2.847112
184.000000,0.002000,0.113753,0.127362,-0.055914,-2.373461,3.338469,0.463506,-20.851708,-15.491453,7.933205
185.000000,0.002000,-0.514081,0.096752,0.346377,1.078323,2.847740,-0.589766,20.502661,-2.968551,-13.847994
186.000000,0.002000,1.468075,-0.236346,-1.394034,-0.835808,3.292261,-1.074655,-3.027028,0.491427,2.888163
187.000000,0.002000,-1.182730,-0.544154,0.535926,1.576225,1.009538,-2.893511,6.257530,3.073583,-3.112029
188.000000,0.002000,-0.760641,-0.065171,-0.935582,0.165645,-0.402288,3.059481,6.330537,0.527500,7.672086
189.000000,0.002000,0.168873,-0.011225,-0.087702,3.487629,-3.046963,2.447799,-26.996609,2.191419,10.014503
190.000000,0.002000,-0.200789,-0.075301,-0.274512,-0.046819,-2.036928,-1.270102,24.506015,8.301697,28.517587
191.000000,0.002000,-0.181453,0.106344,0.011046,0.844718,6.524838,-0.409674,21.984023,-8.651036,-2.589971
192.000000,0.002000,-0.290170,-0.138557,0.150928,-3.362487,-1.059384,2.099137,27.940129,14.680676,-16.275649
193.000000,0.002000,0.106034,0.263079,0.526337,2.033273,2.445879,-3.077253,-5.917258,-11.774301,-23.467160
194.000000,0.002000,0.361258,-1.364085,-0.958308,-1.475301,2.060615,0.351355,-1.226384,4.576632,2.953532
195.000000,0.002000,0.612661,-0.424207,0.284512,1.019846,0.668617,-1.233063,-12.985232,9.146146,-5.650094
196.000000,0.002000,0.181663,0.071190,-0.107189,4.816468,0.136878,-0.128329,-25.116726,-4.519550,15.818473
197.000000,0.002000,-0.369694,-3.279604,0.876988,0.099721,0.368602,0.261064,0.160601,1.642000,-0.419487
198.000000,0.002000,-0.309342,0.400881,0.676455,0.092278,-2.449388,1.238822,7.038711,-6.904874,-13.051987
199.000000,0.002000,-0.226848,-0.755953,0.111709,-0.662447,2.262690,1.112075,4.282143,17.214169,-2.218234
200.000000,0.002000,-0.358307,-1.193892,-0.870462,0.320936,1.543158,0.176378,1.492228,5.498790,3.708765
201.000000,0.002000,-2.020278,-0.041972,0.266216,0.953596,-0.685894,1.650870,4.264072,0.037140,-0.563165
202.000000,0.002000,-0.177270,0.248178,0.357728,1.170483,4.186219,-2.392883,12.806574,-17.162934,-23.242825
203.000000,0.002000,-0.013702,0.239230,-0.271596,0.751262,3.958684,3.699774,-2.211222,-28.073120,27.258707
204.000000,0.002000,-0.516789,-1.372083,-1.161160,0.207509,1.575019,1.158285,1.418016,3.635026,3.022095
205.000000,0.002000,-0.274700,-0.520347,0.156308,-1.162527,1.001349,-2.746709,11.526303,22.637406,-6.081623
206.000000,0.002000,-0.180965,-0.131038,0.017936,-2.031904,-2.110480,3.179244,22.401946,14.818034,-0.538379
207.000000,0.002000,0.798608,-0.247891,-0.391977,-2.853006,2.986666,-1.034470,-12.286545,3.596396,5.485596
208.000000,0.002000,0.438383,0.127353,0.381550,-1.929968,0.647774,-2.468563,-19.113975,-5.622043,-16.192176
209.000000,0.002000,0.269255,0.028958,0.070998,-2.131319,5.269790,-1.856630,-31.011923,-2.830018,-4.892436
210.000000,0.002000,0.876558,0.415063,0.015484,-3.659255,-0.067782,-0.120243,-12.285801,-5.010155,-0.628994
211.000000,0.002000,0.136252,0.151364,-0.258585,-1.060228,2.295417,-1.459513,-18.297199,-19.670895,27.893650
212.000000,0.002000,0.205692,0.163032,-0.115648,3.544514,0.572783,-0.051522,-29.081033,-15.654026,15.628913
213.000000,0.002000,0.407852,-0.076733,-0.282733,-0.237182,1.399787,2.018250,-22.463334,5.505384,16.299486
214.000000,0.002000,-0.747706,-0.716290,0.132570,-1.943970,1.362749,-3.283901,8.741194,8.500078,-1.830409
215.000000,0.002000,-0.269728,0.687995,0.367521,-2.377672,-1.214479,2.975998,5.070603,-14.676329,-7.710950
216.000000,0.002000,0.191021,-0.348666,0.065186,0.794082,2.791305,0.617126,-16.113834,26.072688,-8.557543
217.000000,0.002000,0.013226,-0.265486,0.591505,1.490839,-3.023088,-3.242784,-1.954233,9.719678,-21.945242
218.000000,0.002000,-2.470504,-0.479681,-0.290343,0.935197,-0.906393,-1.013544,2.878199,0.522404,0.326274
219.000000,0.002000,-0.319513,-0.085419,0.072128,4.395292,-1.885712,-0.432799,30.029695,15.812717,-6.859656
220.000000,0.002000,-1.131199,0.064100,-0.050273,2.516469,0.693402,1.755690,10.459183,-1.042126,1.094581
221.000000,0.002000,-0.115389,-0.418527,0.480965,2.163169,3.682377,-2.093212,2.782120,15.341402,-19.287598
222.000000,0.002000,-0.557221,-0.319431,0.105916,2.077059,2.723161,1.495050,17.656996,12.392521,-3.774958
223.000000,0.002000,0.086663,0.445925,-0.745558,-0.115744,-2.089534,3.759994,-1.981339,-7.583901,13.686157
224.000000,0.002000,0.088540,0.487253,-0.531892,-0.934900,0.199897,4.647018,-3.068115,-14.039725,14.626287
225.000000,0.002000,0.588850,0.261881,0.014464,2.491834,1.806869,2.929714,-22.394569,-5.935827,-0.989345
226.000000,0.002000,0.639055,-1.722715,-0.749528,-0.362516,0.596867,-2.112673,-1.510451,3.871180,1.510819
227.000000,0.002000,-0.408878,-0.044524,0.219441,-1.882241,1.875796,3.120523,30.207621,4.956199,-16.675717
228.000000,0.002000,0.253541,1.489878,-0.157852,-1.857293,-1.001428,-1.521046,-1.247417,-6.597285,0.905852
229.000000,0.002000,-1.095279,-2.224294,1.868497,-0.345565,1.288477,-0.734290,0.693183,1.463471,-1.211103
230.000000,0.002000,-1.104466,0.269541,0.356201,2.333275,0.088862,-3.640124,9.538395,-2.655334,-3.288004
231.000000,0.002000,2.156668,1.249569,-0.579084,1.395985,-0.303893,1.712894,-2.365262,-1.387281,0.619716
232.000000,0.002000,-0.618036,-0.521085,0.574983,3.127618,1.169967,-2.054780,7.809821,7.285228,-7.926145
233.000000,0.002000,-0.059115,-0.401111,-0.970512,0.874676,2.417155,0.702452,0.645613,4.573251,10.915437
234.000000,0.002000,0.263069,-0.100231,-0.626206,-2.544644,3.037083,3.151645,-7.860246,4.159825,17.891005
235.000000,0.002000,-1.843927,0.169400,0.628422,0.256845,-1.727890,-0.023400,4.413543,-0.431732,-1.396938
236.000000,0.002000,-0.249687,-0.185286,0.033530,-6.087969,0.491405,-1.298825,30.204510,15.327534,-6.344593
237.000000,0.002000,-0.411998,-0.043328,0.184298,-3.162363,-0.586493,1.082378,32.729639,5.442423,-13.692064
238.000000,0.002000,0.466051,0.032771,0.143103,-4.374026,2.343289,0.015853,-32.445350,-0.179927,-10.440786
239.000000,0.002000,-0.120374,0.178314,-0.003836,-4.393813,-2.422124,4.306032,13.264001,-20.309627,-5.988175
240.000000,0.002000,0.727685,1.392745,-1.041001,1.178924,-0.983593,0.354663,-1.893052,-3.548189,2.658739
241.000000,0.002000,0.096580,-0.000705,-0.034043,-1.294897,-2.509028,0.957761,-15.787731,0.316513,11.549663
242.000000,0.002000,-0.210806,0.026032,0.005989,3.593295,4.889849,2.835328,25.640716,-3.718165,1.737966
243.000000,0.002000,0.249008,-0.339100,-0.164322,1.868983,-3.183071,-0.763910,-21.314774,23.865902,11.278077
244.000000,0.002000,-0.216544,0.123506,0.242354,1.331252,4.683685,-0.197959,21.953994,-10.104822,-23.915406
245.000000,0.002000,-0.862593,-1.406631,1.828981,-0.149296,0.097521,-1.683423,1.012463,1.764817,-2.254126
246.000000,0.002000,-2.530184,-0.672290,-0.028538,0.692903,-1.460635,1.761416,2.805584,0.597602,-0.216923
247.000000,0.002000,-0.372151,-0.379778,1.109375,0.619677,2.888773,1.453826,2.971895,3.562188,-8.363530
248.000000,0.002000,-1.300195,0.157012,0.003887,1.757425,-2.976618,0.204504,8.819938,-1.401403,0.104732
249.000000,0.002000,-0.062492,-0.806476,-0.421678,2.606389,0.539494,1.244504,0.801691,12.623536,6.753679
250.000000,0.002000,0.019520,0.000433,0.298107,-2.433639,5.148965,-3.171759,-1.941865,5.079013,-30.851922
251.000000,0.002000,-0.251058,0.642943,0.127468,-1.502579,1.449687,-3.690412,6.932630,-18.355919,-2.808474
252.000000,0.002000,-0.239893,0.066638,-0.107636,-5.828074,-1.778688,-1.630363,26.255536,-9.249650,11.803447
253.000000,0.002000,0.001465,0.172780,-0.028777,-6.066379,1.203102,0.776319,5.639943,-30.064542,8.517848
254.000000,0.002000,-0.629582,0.089726,0.142291,4.552615,0.780872,-0.684361,22.298899,-3.597507,-4.923955
255.000000,0.002000,-0.287564,0.058636,-0.273399,1.570390,1.974385,1.953333,25.967041,-14.522981,20.307242
256.000000,0.002000,0.321656,-0.021396,-0.085827,-1.938014,-1.598330,-1.101081,-32.051689,3.118100,9.048905
257.000000,0.002000,2.791794,-0.039974,-0.538611,0.149060,0.276030,0.145664,-2.344267,0.007542,0.424795
258.000000,0.002000,0.149582,0.467030,-0.105776,-4.003792,-0.016351,-0.053129,-9.493230,-29.569637,6.878674
259.000000,0.002000,0.716306,0.414515,0.423224,-1.202346,3.835963,-1.024960,-9.423180,-4.188829,-5.747681
260.000000,0.002000,1.713700,-3.004695,-0.202440,2.230645,-0.861694,-0.110827,-0.812432,1.387569,0.086389
261.000000,0.002000,0.834416,-1.260393,-0.554881,-2.516256,-1.142962,-1.232882,-3.133533,4.752163,1.934771
262.000000,0.002000,0.378025,-0.068485,-0.034403,0.705229,-3.003470,-3.346749,-32.686619,7.561961,4.707902
263.000000,0.002000,-0.275739,-0.110025,0.391966,-1.240787,0.217920,-0.027104,17.062311,9.352511,-24.074917
264.000000,0.002000,0.034635,0.110013,0.138862,-0.357665,-3.632382,0.386045,-8.944759,-14.521180,-18.009523
265.000000,0.002000,0.136243,1.102416,1.060740,1.523366,-2.191245,1.681968,-5.968343,-2.679110,-1.694281
266.000000,0.002000,-0.690886,0.685107,-0.674907,1.786965,-0.234578,2.084138,5.418729,-4.058526,6.161009
267.000000,0.002000,1.006167,0.047708,-0.330765,-0.819264,2.108144,-3.033359,-10.868088,-0.526191,3.217978
268.000000,0.002000,-0.034395,0.222095,-0.301681,-2.620390,-1.710512,4.389897,-0.018697,-19.550897,28.526012
269.000000,0.002000,0.289233,0.298130,-0.042677,-4.432199,-2.798928,-1.100335,-25.743652,-24.506625,5.820060
270.000000,0.002000,-0.088862,0.249665,0.083972,3.027269,4.751382,-2.049825,11.907489,-29.688125,-9.129042
271.000000,0.002000,-0.556172,-0.296838,0.576681,1.813447,-0.931673,-3.054922,10.668196,6.462396,-11.548486
272.000000,0.002000,0.337052,-0.458771,0.800075,0.860855,-0.509399,-3.730148,-4.645146,6.331441,-10.459741
273.000000,0.002000,0.364308,-1.021304,0.482684,0.521361,-1.502776,0.904059,-3.374871,8.106168,-4.366678
274.000000,0.002000,0.064000,-0.068223,-0.052058,0.200916,-0.053728,0.185899,-13.630535,14.263654,8.636446
275.000000,0.002000,-0.403029,0.151667,0.247643,4.916263,0.952743,0.862101,27.938674,-9.775683,-17.216725
276.000000,0.002000,-0.016616,-0.298788,1.430036,-0.614295,-0.628212,-2.862995,0.027127,1.977226,-7.100837
277.000000,0.002000,0.198479,-0.543090,0.934974,-2.718720,1.270548,-1.126673,-2.214689,5.596952,-9.387417
278.000000,0.002000,-0.460685,0.001372,0.063373,1.752864,-2.670896,2.072204,34.101984,0.542401,-5.155555
279.000000,0.002000,-0.276121,0.870301,-0.406058,0.029385,-2.342921,2.048207,3.329660,-11.550683,5.071045
280.000000,0.002000,0.253359,-0.049474,-0.183746,-3.453773,-3.107809,1.077234,-27.111919,7.017879,18.702717
281.000000,0.002000,-1.182498,-0.156570,0.070045,0.555249,1.144504,-2.267818,10.027972,1.657066,-0.629405
282.000000,0.002000,1.169426,1.006861,0.033788,-2.739375,-0.167930,0.367308,-5.105083,-4.254959,-0.024065
283.000000,0.002000,-0.156964,0.278163,0.229987,-3.537311,-3.187389,0.922497,14.850852,-31.853489,-23.715862
284.000000,0.002000,0.201680,-2.281451,-1.291731,0.195129,1.147898,0.293375,-0.259655,2.241307,1.335613
285.000000,0.002000,-2.438970,-1.133629,-1.123914,-1.834150,0.893872,0.404328,1.897480,0.896064,0.899119
286.000000,0.002000,-0.111054,0.435929,0.155983,4.659814,1.850879,0.175926,6.805479,-30.416860,-10.789220
287.000000,0.002000,0.183913,-0.012818,-0.426637,0.596783,-0.267088,-1.084003,-11.309728,0.752788,26.037866
288.000000,0.002000,-0.015625,0.443212,0.310232,-0.834067,-2.767953,-2.795054,0.444195,-23.837868,-16.214653
289.000000,0.002000,0.098130,0.855281,-0.348227,-1.452406,0.247098,2.102358,-1.651991,-13.306527,6.000608
290.000000,0.002000,0.624707,0.288073,-0.069731,-3.026880,2.701201,-2.011385,-19.471491,-8.004036,3.068646
291.000000,0.002000,-0.311423,0.192294,0.072418,-0.145783,4.511136,1.363161,30.428848,-20.455906,-3.215766
292.000000,0.002000,-0.269182,-0.369259,0.184622,4.735465,0.253132,2.221235,16.317704,22.896707,-13.737282
293.000000,0.002000,0.061022,0.387885,-0.013484,0.183777,3.154906,-0.003744,-5.549285,-37.903466,0.307766
294.000000,0.002000,-0.199999,-0.092573,0.023124,6.499315,-2.623872,2.185937,28.217181,12.510453,-2.427021
295.000000,0.002000,0.109909,0.234743,0.303104,-2.789038,-3.686120,1.313348,-8.400542,-30.283709,-24.729728
296.000000,0.002000,0.000278,0.074975,-0.028248,3.663300,-4.807407,2.850748,-5.920617,-10.986478,4.703464
297.000000,0.002000,-0.376298,0.031060,-0.509917,0.464015,2.085060,3.723062,13.865725,-0.687851,20.082514
298.000000,0.002000,-0.304309,-0.479171,0.414715,0.089625,-1.100063,-2.978428,9.651002,15.198300,-13.511360
299.000000,0.002000,-1.980652,1.676632,-2.007641,-0.227684,-0.875247,-1.003556,1.094920,-0.936441,1.139256
300.000000,0.002000,-1.084939,2.685072,-0.204637,0.919254,-0.636680,0.322717,0.826901,-2.117061,0.143299
301.000000,0.002000,0.324160,0.159229,-0.108669,4.073738,-0.209926,-2.639745,-29.756544,-15.014186,9.416561
302.000000,0.002000,0.107797,0.338127,1.615334,-0.277019,1.546050,-1.937666,-0.524330,-1.146698,-5.828936
303.000000,0.002000,-1.200042,-1.789379,0.776110,-0.189573,0.319077,-0.767940,1.855706,2.705254,-1.183920
304.000000,0.002000,0.494475,-1.036564,-1.499300,-1.659061,0.453265,1.091056,-1.548838,2.598864,4.067626
305.000000,0.002000,2.825829,-2.240063,-1.123447,1.802989,0.204213,0.356274,-1.023664,0.810432,0.391559
306.000000,0.002000,-0.254922,0.061206,0.077919,-2.257741,-4.754811,0.271986,27.044867,-2.754095,-12.183238
307.000000,0.002000,-0.057433,-1.541541,-1.015996,-0.590767,-0.540886,1.723625,0.205944,4.142839,2.604142
308.000000,0.002000,0.658283,1.183951,1.487940,-1.533852,-1.239056,0.661358,-1.512023,-2.514281,-3.263725
309.000000,0.002000,0.771536,1.812252,-0.473287,0.540751,-1.908894,0.044282,-1.611107,-3.713544,1.047933
310.000000,0.002000,0.129092,-0.060910,-0.507234,0.849621,0.408683,-0.154059,-9.790755,1.252779,27.382228
311.000000,0.002000,0.544479,0.062441,0.809806,-3.439670,0.531816,-1.127733,-8.160224,-0.760568,-11.250549
312.000000,0.002000,0.432145,0.182528,0.162766,0.861664,1.517531,-0.812579,-27.384620,-12.464603,-16.433552
313.000000,0.002000,-0.108268,0.630326,0.458065,1.951440,-4.201172,0.947701,2.351258,-15.050637,-10.595027
314.000000,0.002000,0.160856,-0.113506,-0.499908,-2.956777,-0.841105,-1.128657,-9.189525,6.792054,25.889685
315.000000,0.002000,0.828103,0.921225,-1.189955,-0.217515,-3.505445,-0.642547,-2.674721,-2.863199,3.819741
316.000000,0.002000,0.305719,0.236306,-0.062283,-3.195538,-2.483136,-3.961446,-31.459972,-18.522781,5.281417
317.000000,0.002000,-0.197303,-0.216153,0.142215,-0.204384,4.213262,3.418215,19.783192,23.615593,-17.117792
318.000000,0.002000,0.162859,0.144087,0.142708,-2.481605,-5.913592,0.442487,-20.206218,-16.793891,-12.842110
319.000000,0.002000,-0.084582,-0.182185,-0.315585,1.781334,-0.896512,1.374363,13.394786,18.037268,34.788377
320.000000,0.002000,-2.838424,1.772068,-0.978685,-2.038877,-1.207748,0.640258,1.323833,-0.811848,0.475976
321.000000,0.002000,-0.097290,-0.074793,0.074897,3.636128,-3.761757,-3.776236,6.542669,17.614380,-8.471890
322.000000,0.002000,-0.181672,0.235681,0.116329,2.934217,0.176754,1.095168,15.582243,-21.000550,-11.854962
323.000000,0.002000,-0.448998,1.792211,0.969002,-0.366571,-1.044417,-0.316890,0.769204,-3.528977,-2.025047
324.000000,0.002000,0.005529,0.191260,-0.788885,-3.194953,1.686573,0.513055,-0.458304,-4.364600,16.993419
325.000000,0.002000,0.702241,0.875319,1.132407,0.057666,-1.554794,-2.386421,-2.908702,-3.373965,-4.499959
326.000000,0.002000,0.095805,0.174007,0.232359,4.036565,1.314428,-1.791902,-14.184148,-19.547137,-20.994961
327.000000,0.002000,0.448861,0.321534,0.112526,-2.828398,-0.149438,-2.632392,-22.631583,-13.663678,-3.836456
328.000000,0.002000,-0.736030,0.018823,0.424451,1.355795,0.815725,-3.198436,14.482434,-0.128431,-7.222874
329.000000,0.002000,-0.272018,0.201157,0.303160,4.519103,-2.550385,-0.353158,20.405727,-15.562396,-22.815358
330.000000,0.002000,-0.453086,-0.685075,0.166111,-1.093043,0.604825,0.188302,8.956715,13.800140,-2.700026
331.000000,0.002000,-0.145841,0.055809,0.369081,-0.574522,1.488738,1.606560,12.708518,0.670623,-29.311869
332.000000,0.002000,0.018238,-0.183781,-0.069317,2.451019,-2.829521,1.406202,-5.027909,20.146576,8.595231
333.000000,0.002000,0.143684,-0.158684,0.343702,1.484718,-2.298197,-1.085853,-12.891242,13.655116,-26.269033
334.000000,0.002000,-1.237504,-0.423004,1.125204,0.191633,-1.118174,-1.211134,3.939453,1.416357,-3.699145
335.000000,0.002000,0.102703,-0.002790,-0.110935,-4.122041,-1.954325,-1.887856,-17.392903,0.398116,16.859469
336.000000,0.002000,0.327191,0.334364,-1.121478,-0.311922,-0.856559,2.920479,-2.399172,-2.664702,8.767166
337.000000,0.002000,0.135703,-0.088802,0.253087,1.179448,-0.090733,-1.956474,-18.996202,11.891361,-29.772928
338.000000,0.002000,0.377704,-0.062955,0.843356,-3.042941,-0.168962,-3.006008,-6.273536,1.417664,-13.059559
339.000000,0.002000,0.248379,0.137497,-0.578010,1.341733,2.438839,2.670867,-8.767445,-5.349154,20.797384
340.000000,0.002000,0.334103,-0.130882,-0.042348,3.720808,3.128833,1.743114,-31.400238,14.139558,7.822709
341.000000,0.002000,0.291802,-0.075529,0.025906,-5.623242,-1.230194,1.134697,-32.668041,10.623471,-0.457412
342.000000,0.002000,-1.661971,1.071074,0.191601,0.391892,-1.776364,1.311842,3.656745,-2.440873,-0.488945
343.000000,0.002000,-1.015581,-1.806323,0.869663,0.709823,0.087737,-0.932308,1.613585,2.872301,-1.431657
344.000000,0.002000,0.398114,-0.256607,0.055454,-0.860945,4.527682,-0.942203,-20.345391,21.819537,-3.676988
345.000000,0.002000,0.073612,0.248992,-0.199352,-3.913204,-0.630096,-3.002190,-7.850106,-26.687604,25.261360
346.000000,0.002000,-0.310768,-0.270688,-0.349896,1.184582,-0.724977,-3.135488,17.182092,14.721823,19.655511
347.000000,0.002000,1.239179,-0.431544,0.600588,-0.146602,2.574704,-2.355694,-6.071248,2.052708,-2.664046
348.000000,0.002000,-0.314902,1.278417,1.186268,-0.737516,-0.385879,-1.292677,0.653698,-3.811405,-3.592754
349.000000,0.002000,-0.492796,0.003365,-0.114615,-1.638739,1.752183,0.296903,29.526741,0.275448,8.325312
350.000000,0.002000,0.351821,0.071032,0.509891,-2.210020,-1.329785,0.486780,-14.364115,-2.673328,-19.499014
351.000000,0.002000,-0.423133,0.299080,1.086071,2.008868,1.750758,-0.700744,3.278847,-2.580192,-9.411183
352.000000,0.002000,0.659796,2.587987,-0.083390,-0.729767,-1.568281,-0.342112,-0.618169,-2.596397,0.075420
353.000000,0.002000,-0.945795,2.752955,-0.964484,0.948651,1.009131,-0.553978,0.635155,-1.860483,0.654807
354.000000,0.002000,-0.931355,-0.126116,0.173631,2.429402,-0.252371,2.462584,13.014319,2.260508,-1.989979
355.000000,0.002000,-0.088313,0.460090,-0.215291,-0.297800,-3.718045,1.465968,1.361315,-25.763839,13.871453
356.000000,0.002000,-0.393706,0.509323,0.376373,0.452890,-2.217084,-1.869345,10.730284,-13.886503,-10.464545
357.000000,0.002000,-0.196387,-0.046323,0.321239,-0.407667,1.988311,-1.372531,17.908328,9.351672,-26.915024
358.000000,0.002000,-0.014496,0.044317,0.021348,5.138505,-0.671334,5.108075,2.902508,-4.716600,1.929836
359.000000,0.002000,0.350490,-0.514228,1.978797,-0.040563,-1.861783,0.021008,-0.833431,0.965518,-3.674130
360.000000,0.002000,0.312365,0.314506,-0.241520,-0.516324,0.299930,-0.597727,-22.938687,-16.635310,15.432878
361.000000,0.002000,0.106387,0.075973,-0.243875,0.082384,-3.555034,-2.885603,-9.967984,-4.133917,30.722121
362.000000,0.002000,-0.237332,0.527641,-0.334385,2.901034,-0.591661,3.006371,7.967289,-17.576262,12.365329
363.000000,0.002000,0.139688,0.171349,-0.096533,4.492974,0.790607,-3.701706,-21.430570,-15.480637,18.398292
364.000000,0.002000,-0.093486,0.325792,0.128297,-1.111745,3.086785,1.788464,0.182092,-39.679370,-14.967207
365.000000,0.002000,-1.130953,0.670729,2.567129,1.068907,1.693735,-0.292710,0.901823,-0.557780,-2.096163
366.000000,0.002000,0.223534,-0.610083,0.124792,-1.932172,1.524896,-0.829131,-8.244306,20.131784,-3.274057
367.000000,0.002000,-0.302007,-0.447767,0.264929,1.408219,1.598433,3.448197,13.804099,19.635212,-10.956401
368.000000,0.002000,-1.022123,0.633742,0.137969,0.283428,-3.048490,1.464388,8.542062,-5.453813,-1.025727
369.000000,0.002000,0.159097,0.170243,-0.032058,0.924770,-2.734173,-4.473514,-20.666080,-21.613602,0.973137
370.000000,0.002000,-0.037593,-0.100337,-0.313514,-2.240173,-4.651888,2.646657,2.226611,11.071933,36.802442
371.000000,0.002000,-0.416189,0.127460,0.583947,1.066372,-3.047340,-2.798101,11.899468,-4.304288,-17.675996
372.000000,0.002000,-1.710393,1.579661,1.300378,0.218420,-1.762688,-1.036657,1.497177,-1.666848,-1.750381
373.000000,0.002000,-0.179639,-0.423513,-0.148225,1.790658,2.419860,-4.133919,15.781588,29.625537,13.788188
374.000000,0.002000,-0.089321,-0.264570,0.492972,0.578862,-0.721724,-4.679471,2.263066,12.616196,-24.398163
375.000000,0.002000,0.291059,0.198764,-0.217014,2.595464,2.401629,1.789379,-22.650565,-18.127013,19.786487
376.000000,0.002000,0.330233,0.639522,0.108798,-1.806949,-3.536508,0.241399,-9.492695,-17.464938,-1.747003
377.000000,0.002000,0.330530,-1.013962,-1.659187,0.686234,2.165913,0.468405,-0.703702,2.118137,3.836189
378.000000,0.002000,-0.317189,-0.156290,-0.095291,4.518163,-2.504646,-1.329163,31.652784,17.972750,8.183141
379.000000,0.002000,0.179429,0.353148,0.041670,-2.363471,-3.265433,-1.880865,-17.523430,-34.690607,-0.198420
380.000000,0.002000,-0.332003,-0.451756,0.090379,3.358341,-2.377193,-1.876875,16.647659,22.138528,-3.384378
381.000000,0.002000,-1.535159,-1.413770,1.317628,0.581677,0.425145,-0.865045,1.860730,1.674385,-1.604221
382.000000,0.002000,0.571110,-0.390728,0.112793,-0.582059,0.178491,-0.810353,-16.563262,12.311979,-2.267171
383.000000,0.002000,0.056793,0.015641,-0.445295,0.492134,-0.348000,-0.170609,-5.831750,2.409725,33.936417
384.000000,0.002000,0.139103,0.023572,0.493393,1.719343,-0.057116,1.730669,-10.073105,-1.345711,-29.974126
385.000000,0.002000,-0.025570,-0.207721,-0.148888,-3.392429,0.821215,3.421030,-0.527396,24.000732,13.949380
386.000000,0.002000,-0.116757,0.107838,0.241252,-4.443646,-0.971899,-3.991758,8.203549,-7.137749,-24.701358
387.000000,0.002000,0.738315,-0.975175,-0.314343,-2.410603,2.184929,0.616090,-5.555587,6.826871,2.169567
388.000000,0.002000,-0.260480,-0.186487,-0.230031,-4.516768,-1.108729,2.468241,22.121765,16.653499,24.559344
389.000000,0.002000,-0.369530,0.499860,-0.142496,-0.758771,-3.181217,-3.687479,12.269902,-19.232539,6.405213
390.000000,0.002000,-0.004899,0.006183,-0.131417,4.062527,1.236475,-0.144164,-2.832491,-5.630368,21.792413
391.000000,0.002000,-0.202386,0.710540,0.107008,0.277616,0.159064,-3.640389,3.368019,-19.699304,-2.109854
392.000000,0.002000,-0.043829,-0.277741,0.068822,3.270061,-4.939789,-1.482609,2.908944,30.912176,-1.657414
393.000000,0.002000,-0.070588,0.086017,0.145785,-1.453158,-5.214605,2.129329,13.611889,-11.456177,-22.916890
394.000000,0.002000,0.418085,1.096186,0.266988,-1.545724,-2.959904,0.063629,-3.998309,-9.019721,-2.203053
395.000000,0.002000,0.105330,0.206204,0.922288,2.039770,-0.792646,1.683320,-1.886589,-2.465360,-13.712076
396.000000,0.002000,-0.011446,0.000203,-0.422240,-0.752581,1.454534,-1.522370,-0.238566,2.168876,34.912237
397.000000,0.002000,-0.208614,0.407602,-0.116128,-1.934487,-2.498633,3.250468,14.875045,-29.650877,8.435101
398.000000,0.002000,-0.220198,0.141369,0.067711,-4.066745,-3.674756,2.223343,23.135506,-17.898698,-8.883423
399.000000,0.002000,-0.394971,-0.331843,0.004490,-1.368040,-2.746873,-0.137835,23.061101,21.625252,-1.243313
400.000000,0.002000,-0.361937,0.171141,-0.145975,4.392602,4.322646,-0.565188,28.922572,-16.492059,14.114152
401.000000,0.002000,-0.862502,-0.430903,-0.422210,1.805240,3.559129,-2.532578,9.806797,5.195034,4.408390
402.000000,0.002000,0.680152,-0.438227,-0.673275,-1.435675,2.110581,2.259671,-6.676492,5.257385,8.080294
403.000000,0.002000,-0.467945,0.364632,-0.652768,0.198148,2.770751,-0.200019,8.001255,-6.459658,11.359826
404.000000,0.002000,-0.444113,-0.218847,-0.935939,-0.845211,-1.386562,1.415218,4.412122,2.226688,10.421588
405.000000,0.002000,-0.023947,-0.288254,0.203297,2.935044,1.436397,-0.855419,6.056792,31.323548,-20.240211
406.000000,0.002000,-0.216154,-0.366985,-0.248225,3.742074,0.800734,-0.773785,15.803738,23.668565,15.604040
407.000000,0.002000,0.389836,-0.205933,0.207948,1.230635,3.739991,-2.783966,-24.338735,10.836428,-13.127018
408.000000,0.002000,0.616391,0.061201,-0.156374,-1.108130,-4.640139,1.639570,-22.522310,-1.963150,5.812306
409.000000,0.002000,0.206693,-0.267864,-0.105429,2.756170,-0.765897,-0.523581,-23.068810,24.665086,8.487480
410.000000,0.002000,-0.031723,0.271513,-0.170530,-3.089042,-1.810686,-1.089329,4.432677,-26.349355,25.129041
411.000000,0.002000,-0.384293,-0.137681,0.315037,0.318196,2.626407,1.892701,23.385744,9.408860,-18.137078
412.000000,0.002000,0.138786,0.128580,-0.094500,-5.469218,2.500554,4.491725,-19.322287,-9.536596,12.646024
413.000000,0.002000,0.329628,0.734162,-0.036039,-2.870056,-1.792470,1.462915,-7.127309,-15.576267,1.424075
414.000000,0.002000,-0.693581,-0.222698,-0.670987,2.486019,-4.096683,0.382596,7.391588,1.662369,10.783884
415.000000,0.002000,-0.176834,-0.086455,-0.257279,-0.293417,-0.784973,-2.822772,18.374547,6.261706,27.125797
416.000000,0.002000,-0.745556,-0.794496,0.085896,0.715406,-0.258680,1.784684,7.645094,8.836014,-1.014940
417.000000,0.002000,-0.111652,-0.489095,-0.135992,0.823099,5.179857,1.999062,4.204630,31.916502,9.789204
418.000000,0.002000,-0.295812,-0.300079,-0.167769,4.052240,-1.962846,-1.061837,22.215231,22.147103,12.344024
419.000000,0.002000,-1.452903,-0.155811,-1.280669,-0.668974,1.669917,2.957007,3.420962,0.363000,3.080035
420.000000,0.002000,0.303831,0.167209,-0.370612,-4.323598,0.850837,2.616765,-18.904087,-9.813259,21.229531
421.000000,0.002000,-0.111785,0.592006,0.226139,-0.596827,-1.035842,0.400747,2.761594,-22.351263,-8.127539
422.000000,0.002000,0.536982,0.955745,0.489112,-3.405083,-0.870913,-0.528738,-4.377053,-7.774808,-3.998131
423.000000,0.002000,-1.377209,1.395372,-0.353517,1.031499,-1.944824,1.672751,3.033277,-3.124272,0.772875
424.000000,0.002000,1.058018,-1.950157,0.936963,-1.591156,0.945179,-1.001965,-1.422122,2.517216,-1.260593
425.000000,0.002000,1.387768,-1.362504,1.544813,-1.097943,0.025357,0.761983,-1.731614,1.660395,-1.798526
426.000000,0.002000,-0.424598,-0.842494,0.440363,-0.701467,2.756949,2.484993,4.700338,10.111198,-5.240699
427.000000,0.002000,0.115619,-0.179103,0.110853,5.177131,1.165726,-2.536180,-22.071341,18.740960,-13.173178
428.000000,0.002000,0.100360,-0.292951,-0.160009,-0.385955,-3.557006,-1.922196,-11.945305,30.585237,17.110985
429.000000,0.002000,-0.289565,0.380500,0.070862,4.585640,1.288041,-2.372965,18.403206,-28.575973,-4.595488
430.000000,0.002000,0.089617,-0.034993,-0.341091,4.074394,-0.645102,-1.884820,-11.571807,2.804967,33.316634
431.000000,0.002000,-0.196817,0.206936,-0.177561,0.291614,-2.690248,-0.677525,21.107206,-19.325131,13.253805
432.000000,0.002000,0.339851,-0.003449,-0.346911,0.572638,-4.335663,3.559884,-21.918765,1.574939,21.322375
433.000000,0.002000,0.029407,0.004607,-0.250543,0.816851,0.976754,-0.619812,-5.889012,0.538891,31.767393
434.000000,0.002000,-2.071202,-1.390547,-0.591149,0.704378,0.665860,0.030285,2.340088,1.567720,0.655062
435.000000,0.002000,-0.129900,-0.054919,0.342851,0.575686,-2.616752,-1.811220,8.644087,4.766261,-30.068039
436.000000,0.002000,0.008162,-0.274368,0.165126,4.301129,3.984204,-0.014715,-5.835268,29.515796,-16.520405
437.000000,0.002000,-0.284045,0.052597,-0.295600,2.407198,3.408896,0.960897,22.622796,-3.180729,28.808654
438.000000,0.002000,0.071828,-0.028674,0.180732,-2.331730,-0.968622,-0.476201,-11.502850,6.705191,-19.036951
439.000000,0.002000,0.013239,0.171645,-0.027721,2.614114,-4.560690,3.988415,-16.444825,-22.481864,4.777992
440.000000,0.002000,0.089815,-0.026662,0.493842,-1.456616,-1.155006,-0.414844,-10.509331,3.770246,-29.004280
441.000000,0.002000,-0.145164,0.402955,0.308362,3.678397,-0.666496,-1.005807,5.901958,-22.902663,-15.612385
442.000000,0.002000,0.198646,0.287375,0.053398,1.929634,-0.313779,-0.114272,-26.325787,-21.637767,-4.172545
443.000000,0.002000,-1.081164,-0.860187,0.101450,-2.129984,0.852670,-2.688872,6.081701,5.020858,-0.574246
444.000000,0.002000,0.583087,1.080382,-0.833053,-0.410363,-1.135965,1.172651,-2.832941,-5.018479,3.954020
445.000000,0.002000,-0.201470,-0.067227,0.250248,-2.256167,-0.285658,1.394672,21.255543,5.832531,-30.396700
446.000000,0.002000,-1.046257,0.165652,-0.129230,2.100505,2.704521,-2.568453,11.442499,-1.783076,1.839259
447.000000,0.002000,-0.334993,1.043653,-0.520234,1.604244,-2.336514,0.808139,2.513643,-8.468359,4.079995
448.000000,0.002000,-0.743011,-0.049484,0.512200,3.229417,-1.434586,0.722210,12.906673,0.551861,-8.655088
449.000000,0.002000,-0.225104,0.231773,-0.114375,-1.201377,3.096538,0.779631,22.663719,-22.626547,11.736143
450.000000,0.002000,0.255981,-0.221481,-0.118632,3.166514,-0.328347,2.988929,-28.374053,21.792644,13.684433
451.000000,0.002000,-0.666915,2.333167,0.230654,0.616233,-1.370124,-0.521364,0.873711,-3.014207,-0.271722
452.000000,0.002000,0.500947,1.232828,0.025932,-3.313801,-1.959095,0.373166,-3.421573,-8.734199,-0.301091
453.000000,0.002000,0.148242,-0.001318,0.129887,-1.861587,1.697843,6.162436,-18.838282,3.837511,-14.354228
454.000000,0.002000,-0.101665,-0.211444,0.087988,2.977120,1.210988,-5.746202,12.885002,20.780756,-10.840359
455.000000,0.002000,-0.439990,0.210409,-0.361331,2.511267,-2.414041,3.435387,17.887257,-9.425549,15.293782
456.000000,0.002000,0.016792,0.269832,-0.347355,3.384960,-0.962592,2.654313,-2.115936,-20.369181,27.594044
457.000000,0.002000,0.227248,0.030866,0.488041,-1.913958,-2.511160,-3.829141,-16.102057,-4.519756,-30.773633
458.000000,0.002000,-0.548295,1.149555,0.921094,-0.656281,-0.267708,-2.351387,2.227846,-4.745715,-3.640422
459.000000,0.002000,0.054918,0.023147,-0.530062,0.755761,-1.627906,5.260393,-4.690913,3.591439,28.704235
460.000000,0.002000,0.262947,0.508889,-0.068495,-3.561937,-1.458325,0.604413,-13.475976,-23.567125,6.859506
461.000000,0.002000,0.014785,0.411705,1.221896,-1.951695,-0.288089,-1.742849,-0.087847,-2.741947,-7.950892
462.000000,0.002000,0.760962,0.656786,0.292605,-2.839070,-0.851141,-2.137492,-8.662404,-7.262884,-3.424857
463.000000,0.002000,0.136793,0.028830,0.187381,4.169888,1.702401,2.031198,-16.180278,-4.903905,-25.735896
464.000000,0.002000,-0.357757,-0.067612,0.241449,-1.502165,0.648729,1.490444,34.944607,7.881741,-10.112672
465.000000,0.002000,0.049108,-0.416633,0.055589,2.503314,1.148322,0.746070,-8.698481,36.306495,-4.337924
466.000000,0.002000,-0.453298,0.516033,-1.601195,1.132071,0.124945,1.932884,1.379350,-1.524776,5.004350
467.000000,0.002000,-0.168516,0.252517,0.201317,1.892716,0.872138,-0.128107,17.316142,-23.982457,-19.081671
468.000000,0.002000,-0.227049,0.316600,-0.360349,0.175354,-0.146466,-5.207991,11.433814,-18.720435,22.170757
469.000000,0.002000,0.127381,0.137339,-0.252690,4.318129,0.210198,-1.427165,-14.320952,-15.038521,26.061889
470.000000,0.002000,0.113235,1.203958,0.266640,-1.040591,-3.522352,0.433854,-0.936513,-9.191427,-1.638486
471.000000,0.002000,0.017797,0.352931,0.061385,-3.338872,2.548946,3.260963,-4.932279,-39.372916,-7.092638
472.000000,0.002000,-0.756922,-0.443959,-2.334263,0.336270,0.228628,0.381400,0.886994,0.534133,2.802474
473.000000,0.002000,0.938167,-1.430104,-3.011163,-1.117003,0.238739,0.270537,-0.437143,0.675019,1.424307
474.000000,0.002000,0.256286,1.075458,-0.188232,2.217713,0.005440,2.897882,-2.447372,-10.295413,2.198858
475.000000,0.002000,-0.131254,0.228973,-0.251596,-3.864916,-2.521539,3.065208,10.198576,-23.883013,22.455690
476.000000,0.002000,-0.296262,0.057689,-0.314672,-0.779405,2.364869,0.652603,26.944891,-4.556399,23.756227
477.000000,0.002000,-0.296071,-0.770433,1.684685,1.627597,0.496967,-0.163724,0.648366,2.024708,-4.306881
478.000000,0.002000,-0.267388,-1.710057,0.266338,3.513567,0.917634,-0.534171,0.710205,5.238971,-0.808201
479.000000,0.002000,0.417597,-0.013249,-0.677703,-0.068896,-3.544683,0.703187,-9.955417,0.137980,14.757788
480.000000,0.002000,-0.253481,-1.009894,0.970386,1.965619,-0.766101,-1.977412,1.129268,5.196867,-5.042366
481.000000,0.002000,-0.043841,0.614251,-0.501402,-1.199365,-0.403081,0.667802,0.447140,-13.640416,11.135074
482.000000,0.002000,-0.219554,-0.142470,-0.155759,1.005322,0.830252,2.250650,30.177338,22.345259,18.996619
483.000000,0.002000,-1.842274,0.990112,1.141506,2.202007,-0.209154,-1.307586,2.610721,-1.348944,-1.677127
484.000000,0.002000,0.391380,0.884440,-0.568817,-1.597213,-1.497217,-1.021221,-3.748862,-8.232249,5.231484
485.000000,0.002000,-0.120693,-0.196813,-0.067251,0.466634,-2.325919,-4.318031,13.098320,22.656915,12.933979
486.000000,0.002000,-0.896111,0.084078,-1.900782,0.533471,1.588132,0.217092,1.644069,-0.150478,3.612895
487.000000,0.002000,-0.354187,-0.203297,0.151489,3.937630,2.927791,-4.019357,28.704512,16.565843,-12.971805
488.000000,0.002000,-0.188956,0.064342,0.252005,-2.060889,3.882370,-3.377384,20.644087,-5.462857,-24.342807
489.000000,0.002000,-0.176212,0.564555,0.088940,1.435104,-1.820718,-2.013949,6.191088,-24.300991,-4.051204
490.000000,0.002000,-0.309820,0.123424,-0.019486,-0.291212,1.497597,1.368346,29.869141,-10.037995,1.946734
491.000000,0.002000,-0.306154,0.155161,0.041915,0.965436,1.074179,2.470919,29.811501,-17.051572,-1.513582
492.000000,0.002000,0.154717,-0.023107,-0.112493,-0.331463,-0.662185,-2.620677,-21.108218,8.274400,19.924544
493.000000,0.002000,0.117331,-0.064770,-0.156857,1.983024,-1.424297,-4.348373,-18.823049,8.604115,21.237087
494.000000,0.002000,-0.119833,-0.193378,0.322044,-1.420747,3.623977,1.186505,7.281555,15.974513,-27.463333
495.000000,0.002000,0.069516,0.146438,0.073624,3.469826,-3.894286,-3.827200,-8.879330,-16.151319,-5.343532
496.000000,0.002000,0.012089,-0.160293,-0.106619,-1.918371,-4.520352,-3.892845,0.205297,20.465640,15.440799
497.000000,0.002000,0.719450,-0.450489,-1.054596,-3.733374,0.103220,1.100944,-4.215106,2.836432,6.284285
498.000000,0.002000,0.261765,0.279807,-0.256322,2.197187,-1.925138,2.314952,-19.832698,-18.784727,19.187832
499.000000,0.002000,-0.572782,-0.347033,-0.428603,4.534847,-2.024347,0.961754,12.300630,8.225482,9.691370
500.000000,0.002000,0.445419,0.854412,0.299395,-1.534057,0.921553,-1.038316,-6.211604,-10.816819,-3.760875
501.000000,0.002000,-0.016707,0.038837,-0.120987,2.268678,-1.106100,-4.532882,5.472949,-7.828244,18.253817
502.000000,0.002000,0.228634,0.217621,-0.294447,1.299586,-0.902964,-1.804404,-18.424864,-15.870431,23.275639
503.000000,0.002000,0.095037,-0.270131,0.406237,-0.957082,0.866915,-4.693273,-7.811713,18.207929,-24.601902
504.000000,0.002000,0.806694,0.035084,-0.326126,-0.510324,2.861284,-2.977427,-14.069625,-0.871322,5.621375
505.000000,0.002000,-1.496706,-1.460193,-0.059965,0.969980,0.748721,-1.238128,2.858786,2.797594,0.051665
506.000000,0.002000,0.895022,-0.132356,-0.057643,-2.445665,0.195750,0.303367,-15.070107,1.927695,1.344547
507.000000,0.002000,0.041675,0.002751,-0.531692,1.611607,-0.685184,0.930618,-1.277222,4.477401,29.108321
508.000000,0.002000,0.391428,1.501128,0.618691,0.768755,0.732452,-2.885581,-1.458841,-5.605823,-2.551185
509.000000,0.002000,0.702329,2.114240,0.459944,0.567890,-1.354335,0.530803,-1.398280,-3.139251,-0.865423
510.000000,0.002000,-0.500578,-2.371526,0.274993,-2.461366,0.331510,0.044458,0.549900,3.127704,-0.287218
511.000000,0.002000,-0.299143,1.175085,-0.148130,2.583947,-1.450477,2.056375,2.231751,-9.190985,1.443645
512.000000,0.002000,-0.137347,0.095512,0.427203,-1.326577,3.501175,-1.448814,12.677484,-6.470311,-33.320413
513.000000,0.002000,-0.687357,0.729473,3.079102,1.481968,1.471764,0.861822,0.398138,-0.420987,-1.801450
514.000000,0.002000,0.136223,-0.254937,-0.006922,2.367785,2.829849,-1.113774,-21.392817,29.540667,3.656593
515.000000,0.002000,-0.472097,0.472267,-0.828725,-1.329283,3.365313,2.255809,4.886982,-5.349124,9.355969
516.000000,0.002000,-0.229816,-0.200907,-0.131656,-1.970819,4.585907,2.283329,28.314157,23.659254,15.346763
517.000000,0.002000,0.096750,-0.338547,-0.256670,-0.466836,-0.128483,-2.452548,-9.714467,25.897402,21.576012
518.000000,0.002000,-0.185691,-0.239285,-0.117232,-0.942563,0.126110,1.034047,31.149324,33.063562,17.248584
519.000000,0.002000,0.016186,0.700259,-0.594842,-0.396484,-3.587232,0.605935,-0.335653,-11.006353,9.093980
520.000000,0.002000,0.418682,0.934177,-0.015061,-2.082503,-0.361376,-0.356159,-5.669504,-10.680879,0.459169
521.000000,0.002000,1.506639,-0.787925,0.135041,-1.599620,0.571211,1.790112,-4.885184,2.549053,-0.490946
522.000000,0.002000,-0.763711,0.214709,-0.004675,0.885300,-1.168064,-1.243058,17.525830,-4.458524,-0.023350
523.000000,0.002000,-0.134166,0.026454,-0.306168,-3.573670,0.582292,0.827441,15.456249,-1.918454,34.196868
524.000000,0.002000,0.174200,0.256526,-0.038590,0.702914,4.285128,-2.627543,-23.402857,-36.132534,5.372358
525.000000,0.002000,-2.213710,-1.292979,0.990044,-0.061889,0.561789,-1.541565,2.042367,1.238652,-0.975854
526.000000,0.002000,-0.219535,-0.009084,-0.460901,1.853781,-2.425665,-1.488050,13.222888,0.903739,27.970963
527.000000,0.002000,-0.275054,-0.685390,-0.583372,2.738533,1.888719,-0.529472,3.926750,9.792595,8.648260
528.000000,0.002000,0.993408,-0.355138,-0.459628,-1.399237,-0.881521,4.026333,-9.120843,3.173995,3.642890
529.000000,0.002000,0.056074,-0.048738,-0.124867,3.809044,-1.867533,4.612598,-8.475311,4.649621,18.592019
530.000000,0.002000,2.420703,0.704212,0.444400,-1.113513,-0.568188,-0.305950,-2.721252,-0.866665,-0.493956
531.000000,0.002000,0.447733,0.013080,-0.071138,0.064283,-0.138924,3.703365,-33.975012,-2.309378,4.825662
532.000000,0.002000,0.475708,0.812606,0.667360,-1.949263,-1.606774,-1.897923,-4.383488,-7.562217,-5.490242
533.000000,0.002000,-0.761279,1.099461,-1.135438,0.828764,-1.370548,1.318769,2.327348,-3.352443,3.581847
534.000000,0.002000,0.213334,-0.067906,0.127345,-1.948325,-3.172910,-3.320590,-28.142804,12.914264,-17.061685
535.000000,0.002000,-1.320790,-0.307497,-0.301233,1.362323,1.285342,2.483553,7.246987,1.807580,1.818465
536.000000,0.002000,-0.277757,-0.439840,-0.032602,0.004817,1.499332,-0.309590,16.664256,25.264221,1.585196
537.000000,0.002000,-0.231199,-0.357454,0.463554,1.278056,3.846963,-2.860125,8.693306,15.369335,-20.475725
538.000000,0.002000,1.732189,-3.498743,-0.646225,-0.917561,-1.657850,0.648926,-0.564700,1.104311,0.202024
539.000000,0.002000,0.148133,0.127447,-0.042165,3.407562,2.873202,-3.128164,-22.456358,-6.243287,9.622036
540.000000,0.002000,1.392887,0.694068,0.207832,-1.853624,-1.233749,-0.718661,-5.673787,-2.780012,-0.788987
541.000000,0.002000,0.119210,0.246304,0.391909,-0.912676,-0.755378,1.878045,-7.612639,-16.194268,-31.023605
542.000000,0.002000,0.485950,0.471010,-0.129081,-4.237504,-0.763026,1.267273,-14.879281,-14.627827,4.532138
543.000000,0.002000,-0.248457,-0.236049,0.126770,4.172844,-0.391774,4.017714,26.140343,24.174078,-12.327571
544.000000,0.002000,2.066094,-0.192648,-0.607156,-0.595563,-0.398773,-0.113255,-3.491769,0.450896,1.004222
545.000000,0.002000,0.082682,-0.633487,0.073460,-2.559483,2.379125,1.022850,-4.363215,23.446484,-2.341316
546.000000,0.002000,0.150889,0.226279,-0.206334,0.941549,-1.750116,1.227311,-17.110851,-23.177582,22.511741
547.000000,0.002000,0.054586,0.280822,-0.125927,4.176957,0.482492,3.064080,-7.082951,-31.927947,16.583189
548.000000,0.002000,0.012040,-0.071285,0.081806,-6.480667,1.592133,1.443614,-8.994882,7.185467,-12.582379
549.000000,0.002000,-0.665712,0.890765,-1.429041,-1.130677,-2.240888,1.212700,2.008349,-2.857572,4.273602
550.000000,0.002000,-0.109294,-0.005901,-0.339989,0.000081,3.325136,-2.511523,9.464874,4.288254,36.602880
551.000000,0.002000,-0.406204,0.132721,-0.422732,-0.992743,-0.125753,5.149612,16.214702,-5.760488,18.392645
552.000000,0.002000,-0.237577,0.209716,0.333874,-1.342454,1.032681,2.861110,17.191790,-16.140634,-25.240555
553.000000,0.002000,1.250064,-1.291163,0.120544,-0.983374,0.597805,-2.084894,-3.593658,3.683004,-0.342477
554.000000,0.002000,-0.077969,-0.169112,-0.190488,1.546012,-2.589480,-1.986825,3.718798,20.549311,21.990911
555.000000,0.002000,0.632870,0.678196,-0.080123,1.770391,1.672283,-0.007741,-9.293687,-10.134818,2.042884
556.000000,0.002000,-0.130964,-0.008776,0.192178,-4.103482,0.690285,3.620248,10.855366,1.380549,-22.544963
557.000000,0.002000,-0.149945,0.113509,0.246910,-1.131624,0.831376,-1.625175,13.382833,-11.371581,-22.826445
558.000000,0.002000,0.966093,-1.561068,-1.232381,-0.744739,1.334128,-1.879935,-1.538528,2.542990,1.920168
559.000000,0.002000,-0.233447,-0.344445,0.439252,-2.610293,1.148398,0.299177,9.643195,14.241809,-17.193808
560.000000,0.002000,0.685532,2.075092,-0.439613,0.442867,-1.360590,-1.321301,-1.135367,-3.312368,0.779356
561.000000,0.002000,0.256888,0.224528,0.143973,-2.920692,-3.867000,-1.638781,-28.585599,-21.326946,-8.111788
562.000000,0.002000,-0.140087,0.037984,-0.564878,-4.697482,-2.352742,2.418188,5.824443,-0.976221,25.548382
563.000000,0.002000,0.397979,0.375222,-0.797193,-2.752172,0.319655,-1.351155,-5.287674,-5.178530,10.850839
564.000000,0.002000,-0.595032,-1.553921,0.615754,1.573214,1.306047,-1.763096,1.808227,4.553669,-1.954177
565.000000,0.002000,2.182724,0.098997,0.180663,-1.252065,-0.569330,-0.043018,-3.596167,-0.173998,-0.354208
566.000000,0.002000,-0.123824,0.183055,-0.016553,2.799046,-1.843143,1.479001,16.622967,-22.562782,6.477707
567.000000,0.002000,0.039037,-0.147817,0.596330,1.133013,1.941946,1.676040,-2.837255,7.133395,-25.632386
568.000000,0.002000,-0.514624,-0.547668,1.062072,1.838740,-1.556694,0.368077,3.095460,4.004399,-6.900895
569.000000,0.002000,-0.398547,1.721007,0.251541,1.190577,-1.852666,0.148838,1.401521,-4.776078,-0.644652
570.000000,0.002000,0.022076,0.238956,-0.070070,3.379310,4.206423,-3.324396,-2.305180,-31.781616,9.270886
571.000000,0.002000,-0.295527,-1.008581,0.457408,-1.371397,1.855742,1.986828,1.713155,9.091834,-3.764635
572.000000,0.002000,-0.050712,0.038978,0.124178,0.862666,5.159715,3.536379,9.060815,-2.857389,-18.979249
573.000000,0.002000,-0.109154,0.400649,-0.122584,-3.128113,-0.560333,0.349181,1.867429,-36.135090,14.136514
574.000000,0.002000,0.862974,-0.822338,-0.553495,-0.901083,1.353774,2.090025,-5.594169,5.197714,3.269006
575.000000,0.002000,1.625117,-0.832519,-1.338967,-0.916479,0.682099,-0.192197,-2.502795,1.316794,2.030729
576.000000,0.002000,-0.094553,-0.270760,0.091667,-1.040822,-4.119041,0.639765,16.673787,25.267911,-9.359593
577.000000,0.002000,-0.316683,0.106176,0.291698,-1.241555,-1.091774,-2.059892,26.980593,-6.375223,-25.992637
578.000000,0.002000,1.729947,3.152766,1.506895,0.134605,0.390513,-0.475432,-0.584761,-1.056974,-0.496364
579.000000,0.002000,-0.036727,0.426745,0.054099,-0.256401,-5.876475,-0.958788,-1.046122,-33.199746,-2.161221
580.000000,0.002000,-0.737387,-0.353657,0.002487,3.086498,-0.417188,0.410275,15.605372,7.552210,0.144048
581.000000,0.002000,0.615599,-0.335546,-0.219066,0.445956,3.891277,-1.424065,-15.520282,8.633087,4.711704
582.000000,0.002000,-1.137918,1.261732,-0.741283,1.870874,0.054353,1.809123,3.029513,-3.447130,2.028373
583.000000,0.002000,-1.624633,-1.200449,1.970526,1.106199,1.181602,-0.533224,1.432952,1.035818,-1.711646
584.000000,0.002000,0.326026,0.928433,0.805331,0.240583,-0.182722,-2.771164,-2.458990,-5.746831,-5.521752
585.000000,0.002000,0.062062,-1.009479,-0.647669,-1.863155,2.665559,-1.471349,-0.816187,8.188796,5.147754
586.000000,0.002000,-0.082722,0.215928,0.137151,0.179009,2.255354,2.309145,8.978904,-20.954531,-16.978254
587.000000,0.002000,-0.344301,0.281053,-0.238007,-3.394057,0.610740,3.023347,22.445942,-17.734096,14.766200
588.000000,0.002000,-0.343606,0.018375,-0.212184,2.123942,4.622944,3.574230,27.937716,-6.062314,16.532175
589.000000,0.002000,-0.014865,-0.522274,-0.380749,2.758500,-0.945263,-0.350526,0.595409,19.072453,13.412669
590.000000,0.002000,0.895774,-1.125720,0.941185,-0.408493,0.594577,-2.109997,-3.035954,3.666777,-2.895383
591.000000,0.002000,-0.052774,0.427150,0.066563,2.745471,-1.387733,-1.123703,6.436431,-32.754568,-8.274172
592.000000,0.002000,0.490108,-0.328170,-0.424618,-3.662403,1.074110,-1.268508,-13.235292,8.818555,10.760193
593.000000,0.002000,-0.262149,-0.148607,0.311186,1.604220,-1.707631,3.568324,15.882796,12.404997,-24.888447
594.000000,0.002000,0.816617,-0.691047,0.283078,-0.728173,0.278761,-3.612073,-8.189232,6.779087,-2.691777
595.000000,0.002000,-1.395834,0.252027,-0.288266,2.249042,0.224672,0.907395,7.338297,-1.288547,2.023715
596.000000,0.002000,-1.484673,-0.819728,0.104971,-1.305267,3.323547,-1.633365,5.070149,2.915044,-0.216491
597.000000,0.002000,-0.068455,0.535809,-0.018361,-1.481616,1.929611,-1.666029,1.980738,-30.630080,0.565431
598.000000,0.002000,0.254914,-0.874122,-0.555766,-1.284829,3.114012,0.147869,-2.999183,9.468122,5.643545
599.000000,0.002000,0.318805,0.235575,-0.020984,-1.809727,3.761366,-0.477498,-31.026416,-17.539133,1.450243
600.000000,0.002000,0.095882,0.328664,-0.166655,-4.221523,-1.911879,0.709874,-9.350866,-25.258243,15.933493
601.000000,0.002000,-0.102210,0.087049,-0.362632,-5.076324,-0.423144,-0.840263,7.884974,-9.200396,30.007906
602.000000,0.002000,-0.308851,0.256858,-0.320328,-2.653219,-0.404362,4.460458,17.933443,-15.600777,22.073571
603.000000,0.002000,0.764139,0.056142,0.250948,-0.016975,0.005833,0.896934,-16.267830,-0.484039,-5.511771
604.000000,0.002000,-0.198869,0.496706,0.211768,0.623616,1.109944,2.128074,8.049225,-23.102640,-9.284659
605.000000,0.002000,-0.388709,0.265514,0.137507,-2.081610,1.351372,-1.912506,21.146668,-26.573551,-7.088564
606.000000,0.002000,-0.327943,0.963206,0.005997,2.220694,-4.026221,1.272843,3.292376,-12.091545,1.355780
607.000000,0.002000,0.027237,-0.241462,-0.659393,2.797630,2.086622,2.975344,-1.783816,6.765598,19.270547
608.000000,0.002000,-0.095838,-0.421277,0.190341,3.848208,0.381299,-1.494956,4.567755,27.255458,-15.577150
609.000000,0.002000,0.486779,0.766135,-0.016760,1.778628,-0.000279,-1.129156,-7.950901,-11.165076,1.406797
610.000000,0.002000,-0.057523,-0.522599,0.094909,-1.727341,-0.442100,2.455120,2.644819,30.757649,-5.735293
611.000000,0.002000,0.024483,0.358019,-0.086361,0.011879,-1.854598,-1.995208,0.400833,-36.212816,10.399698
612.000000,0.002000,0.445783,-0.084362,-0.061973,-1.878999,2.120020,3.842808,-32.881032,8.445319,5.034005
613.000000,0.002000,-0.201622,-0.081001,-0.052370,0.322706,-2.539971,-1.717623,19.654243,8.440757,10.656944
614.000000,0.002000,-0.667062,-0.032372,-0.434997,4.184483,-0.870033,-0.364662,14.864406,0.441697,10.107456
615.000000,0.002000,-1.357591,1.666839,-0.508800,0.142800,-0.124630,1.618706,2.284063,-2.761415,0.788192
616.000000,0.002000,-0.006099,0.156864,0.710298,-2.049964,0.161176,-0.410119,0.121265,-4.254026,-20.972176
617.000000,0.002000,-0.060350,-0.446851,0.059128,-1.808277,-2.470224,2.611605,2.859986,37.322876,-2.841276
618.000000,0.002000,0.140071,-0.142611,0.050890,0.406390,0.628667,-5.269608,-13.821328,16.955345,-9.774719
619.000000,0.002000,0.409352,0.016728,0.776439,-0.602071,0.900688,-3.538066,-7.638059,0.197158,-13.730704
620.000000,0.002000,-0.021311,0.323003,-0.019888,1.943058,1.003053,-0.108489,6.318145,-41.052368,4.119337
621.000000,0.002000,0.350545,0.279771,0.302435,-1.483794,-1.655606,-0.782247,-20.376105,-14.535152,-16.185629
622.000000,0.002000,-0.817830,0.901360,-0.235460,2.018163,-1.519940,0.536794,6.050550,-7.978233,1.535973
623.000000,0.002000,0.274066,0.798846,-0.562191,-2.118529,0.163513,1.351440,-3.436894,-9.654374,6.706198
624.000000,0.002000,0.176612,-0.337219,0.009893,-0.138800,-2.182979,-1.006717,-18.491718,30.157475,2.507175
625.000000,0.002000,-1.389844,-1.258361,-0.593256,0.113355,1.691657,-0.821040,3.211667,2.893092,1.294630
626.000000,0.002000,0.159972,0.020244,0.183211,1.993340,2.030016,3.908728,-23.652736,-2.907535,-31.850130
627.000000,0.002000,-0.390684,-0.565321,0.199142,-1.700790,1.256747,-3.194466,11.349301,16.543136,-7.328926
628.000000,0.002000,0.452515,-0.949217,-0.499727,0.352027,0.667468,-3.660985,-4.735051,8.128493,4.208550
629.000000,0.002000,-0.091738,-1.448728,-0.431643,1.398003,-0.488180,2.840337,0.246418,6.507495,1.911078
630.000000,0.002000,0.195550,-0.383998,0.753178,-2.898050,1.261200,-2.121622,-3.954668,7.094666,-12.956353
631.000000,0.002000,-2.142769,2.341263,-0.465471,0.017280,0.079601,-0.015151,1.252805,-1.401388,0.289540
632.000000,0.002000,-0.195040,0.070147,-0.118918,0.721692,1.477815,-2.545789,18.223636,-9.957374,15.187870
633.000000,0.002000,1.921479,-2.352452,0.549579,-0.268818,-0.234640,0.176569,-1.262870,1.522712,-0.346948
634.000000,0.002000,-0.278489,0.002516,0.069834,-1.487367,0.728491,-4.893652,29.936065,5.617900,-5.306858
635.000000,0.002000,0.331173,0.877783,-0.011183,-2.005913,0.674839,-0.372245,-4.618713,-13.054860,0.256724
636.000000,0.002000,-0.230446,-0.037403,0.079934,2.630661,3.555620,-1.227399,26.226102,3.280733,-9.899906
637.000000,0.002000,-0.344602,0.422942,-0.096669,3.276977,-1.347526,-3.259040,16.953668,-22.236532,5.052474
638.000000,0.002000,-0.413677,-0.614419,-0.486017,4.245549,0.440683,1.030209,6.757795,10.406980,8.667410
639.000000,0.002000,0.457623,0.234819,1.106974,-2.328833,-0.052246,-2.305514,-3.543365,-1.534811,-8.561310
640.000000,0.002000,-2.598590,-0.682102,-0.807866,0.473149,-1.319763,-1.158722,2.286133,0.598591,0.742421
641.000000,0.002000,0.709144,-0.643092,1.153087,-1.998543,2.369828,0.728384,-3.571040,2.274218,-5.208070
642.000000,0.002000,-0.102222,0.182346,-0.105116,1.886217,-1.287783,-5.332583,9.005839,-14.070424,19.138607
643.000000,0.002000,0.468615,2.122046,1.559824,0.939808,-0.767337,0.047536,-0.449591,-2.100140,-1.568522
644.000000,0.002000,0.712527,-0.178715,-1.349482,-1.330059,-1.008194,1.313353,-3.138403,0.681795,5.737169
645.000000,0.002000,0.081060,-0.097101,-0.283355,-1.785578,2.817573,1.194171,-13.795341,11.515208,29.366433
646.000000,0.002000,1.362141,-0.497308,-0.580163,-1.530067,0.562575,1.144584,-5.371909,2.142566,2.353213
647.000000,0.002000,0.904974,-0.268565,-0.823056,-2.021563,1.743440,-1.484309,-6.269367,1.055004,5.352111
648.000000,0.002000,0.313898,-0.293436,0.284802,-4.881516,0.398647,-0.521683,-18.694479,18.143597,-15.621259
649.000000,0.002000,0.073821,-0.308201,0.046716,0.880115,-2.408822,-0.128498,-21.793837,30.985527,-6.324033
650.000000,0.002000,3.469736,-0.640421,-0.325896,0.901881,0.626107,0.976428,-1.535442,0.332919,0.138755
651.000000,0.002000,-0.420813,0.495192,-1.198865,1.341965,1.092962,2.944987,2.262393,-2.648360,6.971376
652.000000,0.002000,0.035274,0.280032,-0.008212,-3.700758,0.709972,1.339787,-7.540913,-30.329311,0.072087
653.000000,0.002000,0.599346,0.434292,0.274119,-2.408016,2.019910,-2.858755,-14.213304,-9.594036,-6.285265
654.000000,0.002000,0.906920,-0.299985,1.314346,-2.145177,0.158951,-1.541604,-3.350817,1.208833,-4.674655
655.000000,0.002000,-0.610702,1.624357,0.448576,-0.725230,-1.915766,-1.356102,1.833158,-4.743220,-1.292636
656.000000,0.002000,-0.545257,0.288236,1.789176,2.034105,0.200167,-0.493830,1.185695,-0.620313,-4.635400
657.000000,0.002000,0.314883,0.127751,-0.296516,-4.026995,-0.541918,-2.668476,-24.044463,-10.916467,20.790365
658.000000,0.002000,0.165124,0.087857,-0.133858,-1.734463,0.459706,0.716251,-26.940965,-0.125576,21.978299
659.000000,0.002000,-0.096114,0.688587,0.700255,0.812064,-0.670307,-2.607014,0.982279,-9.697481,-9.644710
660.000000,0.002000,0.364492,0.566168,-0.714529,-1.228680,0.995243,2.935438,-3.823676,-6.882522,9.088401
661.000000,0.002000,0.449130,-0.047535,-0.272259,-0.384748,0.656730,3.825454,-24.649049,2.734696,14.344201
662.000000,0.002000,0.030342,-0.150782,0.008924,2.358689,3.680334,5.214500,-14.943028,18.796003,-5.361566
663.000000,0.002000,0.070621,0.247733,-0.074116,-2.008126,-2.663273,5.242042,-4.012836,-28.307639,8.811188
664.000000,0.002000,0.256912,0.182927,-0.960045,-0.218560,-2.729050,2.051502,-3.237718,-2.400024,11.941766
665.000000,0.002000,-0.416212,0.200824,-0.065704,0.282846,3.381216,0.497222,30.241260,-16.238573,5.094253
666.000000,0.002000,-0.159295,-0.424752,-0.127401,-1.256709,0.146904,-1.044979,11.110186,34.839078,10.102699
667.000000,0.002000,-0.695832,-1.021646,-0.496735,1.625301,1.702293,2.290662,4.264594,6.344167,3.042028
668.000000,0.002000,0.623754,-0.060674,0.359973,1.562519,3.166173,1.454935,-17.321549,2.491616,-9.293854
669.000000,0.002000,-0.851256,-0.237791,0.401035,1.833694,2.040722,1.388160,11.878996,3.778942,-5.847620
670.000000,0.002000,0.193397,-0.047206,-0.088744,-2.339058,-2.696705,-4.653641,-28.553409,10.132659,13.464422
671.000000,0.002000,-0.116991,0.238601,-0.202896,-1.080264,0.698683,-4.549622,8.465973,-25.289984,20.634991
672.000000,0.002000,0.021556,0.006288,0.001866,-4.696835,-1.585216,4.311236,-9.583911,-1.000474,1.246773
673.000000,0.002000,-0.369626,0.704451,-0.948022,-1.204873,-0.406677,4.375597,2.554477,-5.142757,7.247977
674.000000,0.002000,-0.204067,-1.091998,1.090075,-1.226862,2.406110,-0.557370,0.720993,4.503321,-4.687770
675.000000,0.002000,0.065511,-0.300713,0.099587,3.271644,-2.487305,1.449125,-11.749359,28.505125,-9.654282
676.000000,0.002000,0.107323,0.023368,-0.164948,3.515408,2.775354,-3.457130,-14.823051,-1.589894,20.450958
677.000000,0.002000,-0.083157,0.041257,-0.263152,-3.353641,-2.450456,1.007189,7.321172,-10.493614,26.427540
678.000000,0.002000,-0.424372,-0.130049,-0.431156,2.787278,1.709462,-2.524581,15.864251,5.614573,18.189455
679.000000,0.002000,1.127479,0.589455,0.184772,-2.504499,-0.969708,0.528062,-7.664196,-3.804247,-1.179167
680.000000,0.002000,0.238557,0.548970,0.023392,-3.658420,-3.505731,-1.375199,-12.158897,-24.360418,-0.418891
681.000000,0.002000,0.338560,0.032848,0.272158,1.573008,2.775146,2.274902,-27.708715,-0.402249,-18.718154
682.000000,0.002000,0.013075,-0.170486,-0.140530,-0.544598,-0.726226,-0.706200,-4.719651,16.009548,19.343326
683.000000,0.002000,0.069975,-0.316875,0.535454,-0.655912,-0.553794,2.997225,-5.228312,12.766656,-20.950044
684.000000,0.002000,-0.248278,-0.905665,-0.342631,-1.291286,3.720748,-0.500371,0.762043,10.370278,0.976684
685.000000,0.002000,0.399549,-0.228847,0.021069,1.466908,0.647706,0.612412,-27.146843,16.240256,0.610755
686.000000,0.002000,-0.108130,-0.845451,-0.200198,-0.532746,3.153916,1.535826,0.064876,14.262481,3.889585
687.000000,0.002000,-0.208209,0.331937,3.056545,-0.506298,-0.404743,-0.620341,0.127284,-0.202576,-2.033572
688.000000,0.002000,0.009119,1.476795,-0.683505,-0.339027,-0.828126,2.136180,-0.101520,-5.460558,2.705154
689.000000,0.002000,-1.162656,-0.019541,0.531540,2.508431,0.728723,2.053597,8.268455,0.071440,-3.681263
690.000000,0.002000,1.646560,0.445486,1.345868,-0.820399,0.997057,-0.929708,-2.965232,-0.776992,-2.271300
691.000000,0.002000,-0.090630,-0.719852,0.380715,-3.338673,1.381126,-1.968123,1.388965,15.381828,-8.089489
692.000000,0.002000,-0.131631,-0.172797,-0.234927,-2.101776,0.081106,-0.356742,11.531155,24.135519,20.421298
693.000000,0.002000,-0.282103,0.656649,0.770154,0.304745,-1.105797,-3.350684,3.002015,-7.535324,-9.202191
694.000000,0.002000,-0.218240,-0.141819,0.058106,1.376528,-1.113771,4.093402,31.074911,17.828164,-4.736319
695.000000,0.002000,0.460624,0.441701,-0.027756,0.222902,-0.319685,1.987979,-16.736185,-16.918372,2.004750
696.000000,0.002000,-0.851303,-1.245771,2.075589,1.145942,-0.085966,0.098090,0.881857,1.382838,-2.335032
697.000000,0.002000,1.581582,-2.130833,2.077653,-0.787443,-0.158849,0.151581,-0.827836,1.071901,-1.048824
698.000000,0.002000,0.032104,0.045233,-0.063730,-1.565818,1.183558,-4.561933,-8.400407,-1.872113,1.626137
699.000000,0.002000,1.884697,0.122181,-0.522715,-0.509556,2.639859,-1.042996,-4.185690,-0.283625,1.087422
700.000000,0.002000,-1.420265,0.431044,1.918872,0.117711,-0.453014,-0.566266,1.881690,-0.588938,-2.573937
701.000000,0.002000,-1.187536,0.174855,1.157230,-0.187996,-0.745584,-0.728878,4.289272,-0.559341,-4.521524
702.000000,0.002000,-1.646293,0.810842,1.634244,-0.414165,-1.384948,-0.891592,2.094659,-0.983247,-2.097533
703.000000,0.002000,-0.742261,0.301132,0.292768,0.864802,-2.111003,1.084005,15.000881,-5.083216,-5.599084
704.000000,0.002000,-0.760345,1.080032,1.119818,0.444968,-1.873624,-1.386686,2.416085,-3.390481,-3.605805
705.000000,0.002000,-2.188474,-1.392425,-1.287040,-2.174048,0.703691,2.513514,1.732597,1.102697,1.039566
706.000000,0.002000,0.269194,0.021481,-0.527265,-0.063555,-0.633935,-1.996211,-9.043066,-1.988243,20.858827
707.000000,0.002000,0.266447,-0.088663,-0.513648,1.123837,2.259058,-0.515368,-12.637304,4.888324,23.094421
708.000000,0.002000,-0.049801,-0.098808,0.425249,-0.889705,-2.189609,0.576496,2.984191,9.421406,-29.895986
709.000000,0.002000,-2.644898,0.382207,-1.579216,-0.851679,-0.241050,-1.257297,1.695950,-0.266264,1.016179
710.000000,0.002000,0.051520,0.066273,-0.347193,-3.617428,-0.307134,2.430565,-11.434971,-6.222319,38.668513
711.000000,0.002000,-0.866293,-0.809685,2.056211,0.318154,-0.225621,-0.894088,1.146968,1.118499,-2.869472
712.000000,0.002000,0.197095,0.036149,0.149271,-0.237753,3.575596,3.938522,-32.031727,-4.371203,-17.938335
713.000000,0.002000,-0.300306,-0.703948,0.309191,-0.673077,0.671300,-1.134698,5.305304,14.459063,-6.853378
714.000000,0.002000,0.307935,0.079677,-0.271342,-3.647282,1.796487,-0.300660,-25.447577,-4.960320,20.614679
715.000000,0.002000,0.495834,-0.884315,-2.208307,1.494450,-0.300332,1.281852,-0.631780,1.114021,2.825040
716.000000,0.002000,-0.187954,0.263730,0.170185,4.657310,-1.587508,-3.529173,17.938459,-27.900510,-16.658711
717.000000,0.002000,-0.038173,0.243405,0.403616,2.491510,0.300796,3.367714,2.036083,-18.492163,-28.112696
718.000000,0.002000,0.138552,-0.296397,1.432827,-0.342872,2.608844,-1.257792,-1.283377,1.554623,-7.010564
719.000000,0.002000,0.201653,-0.853376,-1.058609,-0.097576,2.366762,1.316303,-1.013784,4.947063,5.921314
720.000000,0.002000,0.183808,0.007492,0.034813,-0.600049,3.327378,5.688093,-26.281798,-2.144011,-0.704170
721.000000,0.002000,0.266319,0.194004,0.182668,-1.852228,4.463973,1.014539,-30.291621,-17.924644,-15.361856
722.000000,0.002000,-0.415090,0.049498,0.428665,-0.048758,-3.395205,0.825338,19.336089,-1.536645,-18.798165
723.000000,0.002000,0.011613,-0.282458,-0.020147,0.867668,5.657444,0.944120,-5.015658,32.165126,4.199043
724.000000,0.002000,-0.070206,0.188304,0.027148,-1.802765,-2.492303,-6.596754,11.783883,-24.035673,-5.541954
725.000000,0.002000,-0.274970,0.316636,-0.235979,-0.872736,-1.046033,1.358762,21.303257,-23.963003,17.770849
726.000000,0.002000,0.326901,1.533172,-1.696664,-1.327681,-0.317209,0.176240,-0.614028,-2.274328,2.498906
727.000000,0.002000,-0.130042,0.506651,-0.248889,0.562310,-3.481576,3.962569,1.075145,-22.717846,11.402306
728.000000,0.002000,-0.417450,0.297198,0.167014,4.274167,2.347674,2.014304,23.904119,-18.270211,-9.513858
729.000000,0.002000,0.079782,-0.171397,0.018647,4.671888,-3.810609,2.142985,-10.567273,17.014205,3.189986
730.000000,0.002000,-0.024406,0.379257,0.228673,4.001340,0.241805,-3.140523,0.465001,-30.850120,-17.703745
731.000000,0.002000,0.105772,-0.518462,-0.123524,2.169499,-0.404198,1.182532,-8.801820,27.200278,6.536838
732.000000,0.002000,-0.791642,0.258081,-0.071771,3.716800,0.880744,-1.864055,16.849423,-4.314411,0.664809
733.000000,0.002000,0.104700,-0.291732,0.215986,0.099827,-4.743300,2.750328,-13.127113,26.851321,-19.859078
734.000000,0.002000,-0.215335,0.234700,0.051316,1.686245,0.312147,4.802018,20.127461,-19.975037,-4.141236
735.000000,0.002000,0.075595,-0.210494,0.133233,-4.502045,2.392752,-3.797897,-12.205262,29.799565,-16.330306
736.000000,0.002000,-0.434451,-0.292743,0.548864,2.053000,-2.022154,-0.043825,10.873601,6.758079,-12.939101
737.000000,0.002000,-0.056423,-0.739907,0.144270,1.159656,1.928278,2.346123,0.798813,19.204536,-3.491321
738.000000,0.002000,0.933499,0.539021,-0.950230,-2.542596,1.474844,0.319713,-4.498384,-2.648437,4.233728
739.000000,0.002000,-0.598296,-0.391138,0.212230,2.180234,3.961523,-3.185672,16.051957,11.031958,-5.055666
740.000000,0.002000,0.057655,0.219536,-0.096445,1.253885,-1.306650,5.238186,-4.713403,-31.526993,17.469785
741.000000,0.002000,1.007922,-0.343522,-0.783665,-2.431542,1.687196,-1.230933,-6.692163,2.112277,4.661509
742.000000,0.002000,0.085352,0.300338,-0.213605,-0.476675,2.228809,-0.431315,-5.370507,-28.550126,20.241256
743.000000,0.002000,0.881198,0.863863,0.024263,-2.382994,0.631880,1.559673,-6.877487,-6.309754,0.043652
744.000000,0.002000,-0.380788,-0.084092,-1.372106,1.865841,-1.876993,0.820626,1.664915,0.424596,7.012829
745.000000,0.002000,-1.158893,0.548747,-1.751999,1.567623,-1.508811,0.406033,2.004814,-0.974994,3.108615
746.000000,0.002000,-0.234141,-0.118019,-0.023611,1.683043,0.007965,1.024682,31.422151,14.590921,2.891967
747.000000,0.002000,0.376798,0.060249,-0.952637,0.842247,-0.793477,3.450186,-4.607680,-1.200244,11.415964
748.000000,0.002000,-0.208894,-0.372348,-0.090661,0.838918,-1.134591,-4.796015,17.649378,29.794033,8.742364
749.000000,0.002000,-0.046332,-0.812507,0.106757,3.731090,2.884934,0.178937,0.508925,17.158683,-1.858931
750.000000,0.002000,0.023451,0.044045,0.307534,3.075408,0.607875,1.017724,-5.772800,1.020777,-33.430667
751.000000,0.002000,-0.099998,0.241686,0.272992,-1.034520,-5.541013,-0.975814,7.182813,-24.182258,-22.506471
752.000000,0.002000,1.451988,-2.537677,-1.296578,0.595379,0.694320,-0.163906,-0.873144,1.488778,0.746106
753.000000,0.002000,0.163287,0.000253,-0.099178,0.266489,-3.288958,0.733511,-22.980645,-3.007707,18.846229
754.000000,0.002000,-0.456337,-0.256775,0.366168,1.985481,-0.645271,1.180398,17.376448,9.515891,-12.594541
755.000000,0.002000,-1.827195,0.990197,-0.604702,0.655571,0.043615,2.136382,3.245092,-1.808688,1.161278
756.000000,0.002000,-0.218567,-0.972820,-0.193434,-1.116011,1.427937,2.784607,2.660356,12.347932,2.129034
757.000000,0.002000,-0.008590,-0.164990,-0.026634,2.471869,-3.280265,-1.144217,2.256478,28.054583,-2.743417
758.000000,0.002000,0.068644,-0.167742,-0.243789,0.020888,0.124729,2.096849,-8.942260,16.474444,26.829738
759.000000,0.002000,-0.244669,-0.237512,0.000588,-3.481609,1.085130,-2.503597,35.772343,31.936817,0.496219
760.000000,0.002000,0.456491,0.368257,-0.126309,-4.185937,-2.003499,1.499468,-17.919571,-16.920849,6.000192
761.000000,0.002000,0.123203,-0.295488,-0.756613,2.062817,-0.131200,3.648720,-3.028237,6.399680,15.369650
762.000000,0.002000,0.360958,0.017831,0.128248,-0.389049,2.321783,-1.625729,-31.394598,-1.400351,-11.446625
763.000000,0.002000,-0.566295,0.305900,0.071028,4.066630,-0.944160,-0.364500,20.017194,-9.930853,-4.132977
764.000000,0.002000,-0.013379,0.231497,-0.248997,-1.479566,2.481269,1.336548,-1.248204,-24.846268,20.053726
765.000000,0.002000,-0.320495,-0.297082,1.423463,-0.666792,0.187974,-3.047720,1.472117,1.508728,-6.799448
766.000000,0.002000,-0.104467,-0.389202,0.244822,-1.404524,1.914261,2.313379,5.856759,27.168741,-18.045844
767.000000,0.002000,0.196935,0.120494,0.079126,3.946875,4.186697,-0.899106,-28.639421,-15.621930,-6.601863
768.000000,0.002000,0.357626,-0.133434,-0.216502,-1.215555,-4.112838,3.061987,-25.305189,12.852401,15.823394
769.000000,0.002000,-0.221454,-0.076848,0.017215,0.090025,-1.883105,-3.514878,37.285070,12.088347,-2.277602
770.000000,0.002000,0.981241,1.852916,-0.923652,0.742809,-0.959967,0.354426,-1.459784,-2.769638,1.384744
771.000000,0.002000,0.841011,-0.236036,-0.618518,-1.857623,2.028685,1.172709,-8.491748,1.895948,6.028102
772.000000,0.002000,-0.000130,-0.016373,-0.158570,-1.451343,-1.535325,-5.781151,-4.463613,1.076999,28.585239
773.000000,0.002000,0.053475,0.168232,-0.318429,-3.138533,3.263729,1.784790,-7.389054,-17.071333,33.628893
774.000000,0.002000,0.026172,-0.149925,-0.110668,-1.678057,-1.581824,-2.235060,-10.573136,15.871681,18.850451
775.000000,0.002000,0.278254,0.332207,-0.214953,3.783730,-4.051897,0.195925,-17.197546,-21.576859,13.587087
776.000000,0.002000,0.672624,-0.298049,-0.934384,-1.649855,-3.060478,2.117094,-5.608625,2.012627,7.173252
777.000000,0.002000,-0.140292,-0.175108,0.169522,3.793888,0.034746,-1.483944,14.244511,20.454495,-21.721775
778.000000,0.002000,-0.143842,-0.236301,0.320457,-0.922382,-3.306475,-0.665417,9.000517,19.217730,-26.723810
779.000000,0.002000,-0.244324,0.307959,0.143499,-1.055382,-0.912594,-0.959660,19.382026,-29.845707,-12.645998
780.000000,0.002000,0.348330,0.259213,0.160043,3.955926,-2.355285,-2.079078,-28.689477,-19.806599,-7.253638
781.000000,0.002000,0.676974,0.456285,-0.069789,-2.171894,-0.682853,3.497439,-14.409146,-8.813924,2.391932
782.000000,0.002000,-0.051792,-0.263969,0.667968,-2.129078,1.037617,-2.989341,0.674078,7.649293,-19.708509
783.000000,0.002000,0.197800,0.581341,1.570614,-1.292029,-1.707910,-1.855426,-0.879365,-2.077671,-5.348343
784.000000,0.002000,0.048012,-0.231051,0.345457,-0.092922,-1.824774,-1.927794,-7.569048,20.498561,-28.830913
785.000000,0.002000,0.071706,0.853934,0.148441,-2.756187,0.305393,4.258878,-2.012265,-14.936307,-1.560849
786.000000,0.002000,-0.458260,0.249858,0.079110,0.827912,0.293030,-4.501821,26.767261,-16.007026,-3.187886
787.000000,0.002000,0.784812,-1.652858,-2.461308,0.305012,0.375176,0.947642,-0.530727,1.097100,1.638429
788.000000,0.002000,0.196490,0.291455,0.510895,3.082686,-2.898334,0.565367,-9.463302,-10.952586,-20.665242
789.000000,0.002000,0.188440,0.578792,-0.070884,-0.699168,0.064335,0.196596,-8.190061,-24.074743,3.932383
790.000000,0.002000,-0.028036,0.213879,-0.660592,1.331387,-0.685531,0.202089,-0.020379,-6.488978,20.925587
791.000000,0.002000,0.447470,-0.475083,-0.446570,-3.153848,-0.542634,3.652606,-10.361112,10.330619,9.545994
792.000000,0.002000,-1.069183,-0.545616,-0.032910,2.366833,-0.587257,1.174977,8.693839,4.768604,0.355073
793.000000,0.002000,-0.242515,0.756206,0.042006,1.313682,-3.263820,-1.130172,3.997668,-17.031798,-0.116541
794.000000,0.002000,-0.555203,0.392128,0.197082,-1.353003,-0.404091,-4.601735,17.137129,-11.828415,-5.336902
795.000000,0.002000,-0.178074,-0.172488,-0.005177,5.205483,-3.543830,-0.287305,26.082722,16.561673,-1.144615
796.000000,0.002000,-2.115322,-1.804314,-0.054826,-0.814997,0.607423,0.393306,1.903571,1.618975,0.030364
797.000000,0.002000,-0.021383,-0.374500,0.080469,4.284272,1.265790,0.227754,-0.176163,38.368843,-7.119774
798.000000,0.002000,-1.484533,0.004117,1.030306,0.410850,-1.991603,0.782579,4.354026,0.121866,-3.103993
799.000000,0.002000,0.202133,-0.142076,0.089217,-1.472711,2.563882,-2.103210,-26.112079,16.057251,-14.067710
800.000000,0.002000,-0.117084,0.299005,0.168485,2.105481,0.383777,1.099526,6.056818,-32.043991,-21.223011
801.000000,0.002000,-0.001523,0.127456,-0.014445,4.655108,-1.445187,-0.591700,-4.264119,-7.712834,-0.747353
802.000000,0.002000,0.499258,-0.000381,0.414723,-3.491772,-0.839688,-2.477862,-18.203608,1.881254,-15.042221
803.000000,0.002000,0.207358,-0.396811,-0.181041,-1.437914,-0.011213,1.963654,-16.400072,24.196681,10.833882
804.000000,0.002000,-0.637993,0.558909,-0.326356,-0.911872,0.197360,2.573225,10.108878,-9.669009,5.651449
805.000000,0.002000,-0.166067,0.254550,0.036138,1.348657,-0.738502,0.007139,17.937811,-24.387292,-1.422927
806.000000,0.002000,0.200665,1.165973,0.065201,-2.885791,-2.761992,-1.927096,-1.587222,-9.681909,-0.386068
807.000000,0.002000,0.655198,-0.458820,0.432668,-2.328130,2.308434,-1.246484,-10.761003,7.407898,-6.298731
808.000000,0.002000,0.260846,0.252796,-0.059635,-2.959363,2.247674,3.712231,-28.670537,-25.566701,6.001404
809.000000,0.002000,-0.033873,0.168867,0.183539,-2.486591,-3.354563,2.694730,4.795211,-21.120401,-26.292087
810.000000,0.002000,-0.185735,0.082331,-0.130640,2.429779,1.348399,0.761307,14.161079,-10.321182,19.386748
811.000000,0.002000,-0.805598,-1.707164,-0.591100,-0.644338,0.094562,1.844038,1.754373,3.880796,1.313024
812.000000,0.002000,-0.070674,0.049425,0.306141,-0.562164,2.825155,5.348304,7.640213,-0.457713,-28.206299
813.000000,0.002000,-0.028858,0.124635,0.119555,2.190729,3.238710,-5.198023,2.418475,-22.008192,-15.275143
814.000000,0.002000,-0.966825,0.860914,-0.125716,-0.593632,-1.580376,1.609951,6.374135,-6.138039,1.378014
815.000000,0.002000,0.008787,-0.065828,-0.088671,-4.689626,0.154916,4.179799,-7.873820,14.385370,10.479177
816.000000,0.002000,-0.024130,-0.407127,0.022558,3.744849,1.052263,2.949408,1.917630,42.123426,-1.478703
817.000000,0.002000,0.894204,0.261420,0.574486,-0.751631,-1.746934,-3.369654,-9.257633,-2.480028,-5.679284
818.000000,0.002000,-0.011478,0.387758,-0.514309,-3.036679,-2.299103,3.767235,1.753096,-13.290409,20.135063
819.000000,0.002000,0.155284,-0.756005,-0.026482,1.127644,2.693750,-3.467512,-3.327055,19.407796,-0.309170
820.000000,0.002000,0.039681,0.038175,-0.118141,-2.504032,2.302677,-0.068550,-8.846567,-8.921774,19.985015
821.000000,0.002000,0.182960,-0.150064,-0.159570,4.230669,2.448934,1.203839,-26.909747,19.131095,19.596431
822.000000,0.002000,-0.630151,1.610454,-0.146002,1.447158,-0.778005,2.990437,1.600901,-4.948123,0.354289
823.000000,0.002000,0.247837,0.318084,0.227326,-0.031145,-5.112426,2.333338,-22.592887,-20.895920,-16.112991
824.000000,0.002000,-0.165785,0.415866,-0.061778,-0.869862,1.658381,-1.268687,13.763076,-31.148005,5.050288
825.000000,0.002000,-1.243944,0.458876,-1.553632,2.221350,1.549553,0.881378,2.551155,-0.957385,3.228801
826.000000,0.002000,0.514554,0.081608,-0.707156,-0.061460,0.656723,2.943266,-8.608065,-0.672500,12.805689
827.000000,0.002000,-0.237569,0.291078,-0.239349,1.021533,-0.133821,0.282909,19.911850,-23.285571,20.726567
828.000000,0.002000,2.383632,-0.386250,-1.130749,-0.058795,-0.575070,0.183500,-2.201341,0.318182,1.168188
829.000000,0.002000,0.317184,0.290733,-0.232108,3.684989,-1.987454,0.838449,-22.610439,-15.881846,14.721455
830.000000,0.002000,-0.043872,-0.219509,-0.154636,0.088399,-5.148037,-1.154469,4.849185,28.069924,17.375221
831.000000,0.002000,-0.237715,-0.137254,-0.071828,2.756564,0.258595,-6.019574,29.680871,14.686083,11.214464
832.000000,0.002000,0.792480,-0.271528,0.923359,-2.207141,0.572238,-1.578109,-5.770353,2.489424,-6.773762
833.000000,0.002000,-0.224030,-0.660579,-0.054572,-1.054316,0.652734,-3.408608,6.270328,20.345670,1.119256
834.000000,0.002000,0.210684,0.449143,-0.212746,2.779619,2.414242,2.687954,-12.401540,-24.756928,11.825256
835.000000,0.002000,2.160158,-0.472119,0.954736,-0.823270,0.722153,1.110853,-2.786084,0.687301,-1.221028
836.000000,0.002000,-1.310279,1.608548,-2.753002,-0.075959,0.216975,0.016486,0.626983,-0.772052,1.330435
837.000000,0.002000,-0.438802,1.297623,1.407438,3.275176,0.227596,0.945072,0.823417,-2.673597,-3.501121
838.000000,0.002000,0.071157,0.107961,-0.188964,0.316709,4.906012,0.551469,0.333795,-13.980662,26.517313
839.000000,0.002000,-0.034709,0.194532,0.327046,3.671714,3.552791,-1.364457,4.369536,-21.351085,-29.119343
840.000000,0.002000,1.701925,0.011574,-2.800922,0.518366,0.748687,-0.993266,-0.926459,-0.019140,1.523912
841.000000,0.002000,1.157035,1.238642,0.057756,0.179468,-0.522913,-2.307398,-3.923609,-4.087255,-0.168334
842.000000,0.002000,-1.077119,0.135359,0.368130,0.797732,1.430745,-1.651895,10.322232,-1.290991,-3.584583
843.000000,0.002000,-0.081404,0.071846,0.059591,-5.135347,-1.494745,-2.361930,16.545673,-10.265574,-8.254617
844.000000,0.002000,-0.755696,0.737879,1.454953,-0.652353,0.295530,-0.339232,2.198917,-2.186102,-4.415547
845.000000,0.002000,0.220060,0.299266,0.170558,1.599962,4.119558,-1.300841,-23.826551,-23.722926,-12.397584
846.000000,0.002000,-0.318702,-0.019603,-0.368563,0.042410,1.389329,1.955795,22.467316,0.400571,21.655490
847.000000,0.002000,0.046628,-0.116394,0.296722,-0.005479,3.854277,-4.830443,-6.909747,12.020780,-32.053465
848.000000,0.002000,0.522922,0.186458,-0.120459,-2.109708,-4.266332,-1.123911,-24.807262,-8.514126,6.342521
849.000000,0.002000,0.403976,1.713655,0.631419,-3.227025,1.276544,-1.061764,-1.089053,-4.422280,-1.647916
850.000000,0.002000,-0.101295,-0.229736,-0.917245,-2.024089,1.755289,1.765116,1.135762,3.032944,13.732090
851.000000,0.002000,-0.501366,0.011721,0.496168,3.707310,3.104638,-1.125071,14.707363,-0.556437,-14.900550
852.000000,0.002000,-0.309242,-0.028220,-0.379868,-0.711117,-3.067034,3.103513,16.948161,5.152856,27.760533
853.000000,0.002000,-0.266813,0.165510,0.125495,2.449243,-1.578571,-0.536990,20.111724,-16.094773,-20.437511
854.000000,0.002000,-0.224275,-0.114585,0.083937,-3.456513,-3.165628,1.456121,29.907277,12.209665,-11.587351
855.000000,0.002000,-0.282006,0.133058,-0.324915,-2.002036,3.251856,4.234985,21.542849,-9.135327,25.189718
856.000000,0.002000,0.028342,-0.056158,0.045717,2.720168,-5.121583,-1.538480,-9.578149,9.669023,-5.392181
857.000000,0.002000,-0.936937,-0.518579,0.375230,2.383490,-0.785424,-2.089214,8.670369,5.139259,-3.651063
858.000000,0.002000,1.141514,-0.080651,-0.088421,-1.566514,-1.063588,3.347151,-9.505171,0.800722,0.854610
859.000000,0.002000,0.259349,-0.161889,0.158265,-1.822941,1.370345,3.085970,-25.795352,17.736956,-15.581335
860.000000,0.002000,-0.079960,0.399332,0.069260,1.855751,2.355698,2.006099,8.113301,-34.705147,-7.281264
861.000000,0.002000,-0.964198,-2.483976,0.505049,0.944680,0.238934,0.092528,0.902036,2.414068,-0.565390
862.000000,0.002000,-0.146367,-0.100517,-0.177762,-2.729358,0.662240,4.740887,18.785142,6.757770,19.273432
863.000000,0.002000,-0.830610,0.809167,-0.453610,2.540112,-1.642191,0.071740,5.996670,-6.289587,3.667932
864.000000,0.002000,1.930231,-0.112475,-2.933654,-0.447479,-1.376581,-0.614059,-0.893750,0.048765,1.324050
865.000000,0.002000,1.436669,-0.555496,-1.743341,0.016611,1.624015,-0.336750,-2.064071,0.805804,2.499147
866.000000,0.002000,0.783490,-0.302608,-0.695328,-0.901252,0.852327,0.307776,-8.296324,2.314349,7.144915
867.000000,0.002000,-0.706710,-0.235261,-0.657038,2.604724,2.555154,-0.635949,10.871702,4.929306,7.010480
868.000000,0.002000,-0.705399,0.375695,-1.200981,-0.287445,-0.184537,2.966941,3.348401,-1.891283,6.307144
869.000000,0.002000,-0.095480,0.334948,0.344094,-2.833654,-0.150517,0.138080,4.948076,-23.010957,-20.766845
870.000000,0.002000,0.319456,0.732513,0.394562,-3.705735,0.856308,1.752591,-5.202757,-11.561483,-8.182076
871.000000,0.002000,0.056782,-0.372328,-1.346218,0.567529,-0.892791,1.726250,-0.299477,1.916662,7.453807
872.000000,0.002000,2.065570,0.803098,-0.999295,0.086944,-1.375894,0.346236,-2.727522,-1.140671,1.195873
873.000000,0.002000,-1.081988,-0.289689,-0.216868,0.826393,1.573532,3.135912,10.553589,3.263161,5.403064
874.000000,0.002000,0.303563,0.032301,-0.230889,-3.827966,-2.445458,-4.115067,-30.911495,-1.820182,20.353052
875.000000,0.002000,-0.529831,1.014409,0.250986,1.498298,-2.257171,-2.271076,4.621698,-9.433875,-1.739971
876.000000,0.002000,-1.507830,0.134423,0.227598,-0.185150,-1.323769,-1.800212,6.945128,-0.717624,-1.045655
877.000000,0.002000,0.419905,-0.187165,-0.183620,-5.601133,-0.286477,0.736194,-23.682626,13.271147,10.687900
878.000000,0.002000,0.102073,-0.138583,-0.199183,4.025598,2.359140,-2.747284,-14.483787,16.815313,26.089188
879.000000,0.002000,-0.139120,0.219951,-0.040435,4.441290,1.846935,1.054918,18.549872,-22.636516,6.124903
880.000000,0.002000,-0.643413,0.223871,-0.430344,1.073879,-0.827807,3.930673,13.904297,-3.880102,9.407150
881.000000,0.002000,-0.139731,-0.168422,-0.137552,1.270349,-3.673426,-3.204718,10.572695,19.727480,10.889480
882.000000,0.002000,-0.235110,-1.984337,-0.700875,-0.182203,1.186167,-0.539158,0.441921,3.786354,1.226104
883.000000,0.002000,1.108480,0.389641,-1.160546,-0.965993,1.509613,2.319508,-3.994468,-1.248084,4.072580
884.000000,0.002000,-0.417654,0.980598,0.374958,3.014004,-0.980935,-0.824835,4.030738,-9.566314,-3.538671
885.000000,0.002000,-0.581196,-0.647460,-0.989190,-1.565037,0.056883,2.762526,1.254855,2.519767,11.697461
886.000000,0.002000,0.186279,-0.180880,0.006707,1.387083,-1.508796,-4.849545,-23.417072,23.732737,4.598447
887.000000,0.002000,-0.291918,-0.146176,0.128014,1.510128,3.435485,1.383755,30.871489,16.520023,-9.742915
888.000000,0.002000,0.023423,-0.329472,-0.073959,-1.922794,-4.375152,-2.843126,-8.785732,34.829664,8.442899
889.000000,0.002000,-0.147673,-0.056606,0.111507,-1.573210,1.969912,1.600586,13.570274,4.142911,-19.758249
890.000000,0.002000,-2.031397,0.650860,0.686941,1.140431,-0.302861,-1.899900,3.324350,-1.051433,-1.037102
891.000000,0.002000,-0.028336,-0.461064,-0.117416,3.952791,-0.984070,3.169020,-0.767500,31.700075,10.501754
892.000000,0.002000,-0.157058,-0.417181,0.432813,-0.153089,-2.056694,-2.572351,7.791800,12.601302,-11.574299
893.000000,0.002000,0.401150,-0.056508,-0.825604,-2.687091,2.254313,2.218289,-6.845949,1.464719,12.256816
894.000000,0.002000,0.185752,-0.208427,0.051142,-1.605290,-0.887216,-3.796407,-20.926128,27.306555,-6.783469
895.000000,0.002000,-0.831941,-0.719577,-0.889637,2.293822,0.219072,1.096166,4.456667,3.867187,4.723328
896.000000,0.002000,-0.263386,0.184616,-0.112045,3.142961,0.705629,-2.012019,25.124149,-15.623205,15.841496
897.000000,0.002000,-0.017132,-0.215751,0.159813,-1.713113,0.060524,0.680679,-2.764935,23.176562,-22.643016
898.000000,0.002000,0.415923,-0.488663,-1.164128,-0.457704,4.092065,-0.326031,-2.615830,3.027242,7.215182
899.000000,0.002000,-0.152560,0.072941,-0.296385,2.713832,-3.044214,-0.220478,16.870364,-9.233004,29.446956
900.000000,0.002000,-0.159237,-0.298387,-0.020718,1.107699,-4.224411,-1.816076,19.303511,34.151468,3.071950
901.000000,0.002000,-2.107392,-1.713027,-1.415732,0.245201,1.169391,0.575020,1.422540,1.163524,0.967525
902.000000,0.002000,-0.109408,0.076436,-0.090849,-4.083860,-2.149534,1.290620,9.738665,-6.966718,18.735406
903.000000,0.002000,0.227793,0.235643,-0.232369,0.516666,-0.174671,-0.436134,-22.613389,-17.482893,22.734423
904.000000,0.002000,-0.254705,0.202259,0.001434,-1.164878,3.863933,0.110083,27.546000,-22.536172,-1.820312
905.000000,0.002000,-0.213065,-0.071799,0.015903,1.595348,-1.545553,5.828355,24.022280,2.543295,-0.426961
906.000000,0.002000,0.176986,0.560851,0.081686,-1.137436,1.222690,-1.579053,-8.842032,-25.882801,-2.437754
907.000000,0.002000,-0.267501,-0.174646,0.306228,-2.287285,-1.980807,1.204357,19.236211,19.301643,-21.905213
908.000000,0.002000,-0.152446,-0.014155,0.180300,-4.107254,2.596618,-1.197426,14.698966,1.821237,-16.906977
909.000000,0.002000,-0.367702,0.080370,0.360862,4.470494,0.192750,-2.696373,22.478476,-3.555602,-20.469876
910.000000,0.002000,-2.347458,0.425847,3.191432,0.125253,1.008685,0.727733,0.745240,-0.128734,-1.010965
911.000000,0.002000,-0.164496,-0.014007,0.197692,-5.018457,-1.602631,-0.376109,18.832011,-0.815131,-25.699723
912.000000,0.002000,-0.510958,-0.544470,1.472385,0.783750,-0.124555,-1.786453,1.678559,2.076258,-5.293527
913.000000,0.002000,-0.955073,-0.432455,0.675166,-0.702655,1.839537,-2.445944,7.396802,3.613725,-5.351427
914.000000,0.002000,0.275492,-1.822623,-0.281956,0.505550,-2.979157,1.791498,-0.795680,4.671399,0.708661
915.000000,0.002000,0.267126,0.054079,-0.360611,0.126907,2.047432,-1.578961,-16.196625,0.132197,21.508624
916.000000,0.002000,0.978731,-0.332380,-1.189509,-1.382555,-0.452221,1.191750,-3.748884,1.074239,4.958857
917.000000,0.002000,1.338751,-1.737297,-1.956008,2.044289,1.091022,-0.681976,-1.024921,1.291836,1.454138
918.000000,0.002000,0.180148,-0.154427,-0.017405,1.421678,-0.659310,-2.114844,-24.051771,18.287377,7.772254
919.000000,0.002000,-0.327348,0.214518,-0.305215,4.027024,-0.392433,-0.740049,22.208972,-12.640434,20.649284
920.000000,0.002000,-0.229497,1.011547,0.438566,1.498597,-1.467053,-3.251649,2.020335,-9.910216,-4.187750
921.000000,0.002000,-0.207016,0.258130,0.055777,-1.264279,2.235563,-2.092998,20.454259,-25.729376,-7.852058
922.000000,0.002000,-0.334302,0.554134,0.187942,-2.468277,-1.120404,3.471544,11.322642,-19.095161,-5.692337
923.000000,0.002000,0.997964,-0.793996,-1.231683,2.328637,1.709679,1.110294,-3.073776,2.321578,3.743093
924.000000,0.002000,-0.979716,0.693098,-0.104310,-1.055298,-2.664371,1.541524,7.820409,-5.991051,0.933072
925.000000,0.002000,0.210777,-0.275595,0.399160,-2.412990,-0.841159,-3.263812,-12.299605,16.955072,-22.474315
926.000000,0.002000,-0.601480,-1.192938,1.645423,0.919831,1.214411,-0.168099,1.045051,2.177114,-3.095076
927.000000,0.002000,-0.105250,0.338837,-0.234868,-0.879066,-3.314414,4.370322,5.876298,-26.921804,19.747269
928.000000,0.002000,-0.143170,-0.262024,-0.238281,-0.405143,-1.291545,-1.633696,10.679157,26.589588,21.676169
929.000000,0.002000,0.249327,1.955006,-0.925343,1.332470,0.055331,1.464015,-0.414315,-3.471223,1.642741
930.000000,0.002000,0.017229,1.854150,0.760245,-1.382730,-0.259814,-1.813502,-0.087547,-4.090911,-1.562767
931.000000,0.002000,0.327956,-0.523213,-0.032312,-0.262024,4.059625,-1.854133,-14.461180,21.565842,3.354895
932.000000,0.002000,-0.456379,0.234147,0.234216,4.211746,-1.368635,0.251488,22.805260,-12.578839,-12.200996
933.000000,0.002000,-0.009869,-0.011627,0.236321,5.341308,-1.772826,2.717439,4.064662,6.182337,-29.140803
934.000000,0.002000,0.589220,-0.140762,-0.545702,-1.679931,1.767476,3.607474,-12.219965,2.497060,11.061606
935.000000,0.002000,0.099345,-0.168768,-0.288344,1.028287,-0.667721,-0.753186,-11.474352,16.538068,29.496356
936.000000,0.002000,0.687645,-1.330807,-0.693465,-0.762046,2.571422,0.990954,-2.389925,4.692748,2.398823
937.000000,0.002000,0.069505,-0.031313,-0.040533,-1.715493,-6.026313,-2.827282,-11.654820,11.804632,5.033508
938.000000,0.002000,1.676338,0.452037,0.234296,-1.922663,1.093314,-0.298922,-5.155916,-1.350477,-0.661456
939.000000,0.002000,0.274272,0.183931,0.267835,-0.989795,2.980899,1.802850,-24.222141,-13.824887,-22.155152
940.000000,0.002000,0.188667,0.147245,-0.061311,1.397664,1.255404,-3.980443,-30.047888,-12.478493,7.131026
941.000000,0.002000,-0.375720,-1.561449,-0.367327,0.259869,-0.454741,-0.251209,1.558600,5.620149,1.546545
942.000000,0.002000,0.416772,0.333051,0.230466,-2.863711,0.278707,-1.131085,-19.676648,-14.732602,-11.212122
943.000000,0.002000,0.141416,0.023119,-0.178003,-1.833756,-4.499393,-3.030725,-21.550943,-0.672713,19.799689
944.000000,0.002000,-0.223219,0.461457,0.406656,-2.835832,0.396342,-3.602171,7.463614,-17.407903,-14.024248
945.000000,0.002000,0.292763,0.766562,0.992390,2.422923,-0.732933,-2.058191,-2.161851,-5.188510,-6.983698
946.000000,0.002000,0.025452,0.810074,-1.445931,0.182686,-1.361867,1.099928,-0.190426,-3.044226,5.044731
947.000000,0.002000,-0.312360,0.449412,-0.975901,2.786863,-0.392651,-0.931818,2.500862,-4.263999,9.577422
948.000000,0.002000,0.198283,0.215891,0.416184,-2.745979,-1.442418,0.785401,-15.204940,-11.718241,-26.288938
949.000000,0.002000,-0.122526,-0.422422,-0.127586,-2.202562,-1.403339,1.931924,5.181916,31.774434,9.610005
950.000000,0.002000,0.417462,0.015123,-0.841797,-2.010559,0.402800,2.177445,-6.595878,-0.936099,11.903681
951.000000,0.002000,-0.392873,0.009654,0.135419,3.780157,0.744208,1.043150,36.277677,2.877205,-14.320780
952.000000,0.002000,-0.225112,0.105237,0.182133,-3.957313,-2.783588,2.225185,22.981403,-8.330926,-21.463157
953.000000,0.002000,-0.361046,0.070564,0.411891,0.538001,2.296080,0.234011,18.860976,-2.025517,-22.352955
954.000000,0.002000,-0.454409,1.087905,1.430361,1.258019,0.631466,-2.407834,1.141037,-2.884923,-3.999837
955.000000,0.002000,-1.306460,0.127273,-0.733997,1.139666,0.672287,-2.798187,6.188708,-0.647637,3.459173
956.000000,0.002000,0.758546,0.240807,0.115476,-1.934882,2.871414,3.329126,-17.068191,-5.232479,-2.074673
957.000000,0.002000,0.735505,-0.044899,1.780818,-1.455052,-1.083020,-0.193286,-1.777340,0.155589,-4.216210
958.000000,0.002000,0.143992,0.452078,0.118124,-3.327478,-1.674111,0.737219,-9.367867,-32.123558,-6.078100
959.000000,0.002000,-0.157922,0.210835,-0.224055,4.170747,2.399374,0.260751,16.343360,-22.167805,22.684527
960.000000,0.002000,0.427528,0.205782,-0.060915,-1.461962,0.556033,-1.295928,-27.422950,-14.855462,4.081492
961.000000,0.002000,-1.156437,-2.242874,0.021511,-0.147504,0.951929,-0.589950,1.338552,2.615656,0.007059
962.000000,0.002000,-0.388078,0.373287,-0.233622,2.663422,-3.826549,1.418556,17.776893,-17.618409,11.805173
963.000000,0.002000,0.240115,-0.046636,-0.443537,0.665616,-2.470961,1.930546,-13.562857,1.330391,26.422674
964.000000,0.002000,-0.037295,-0.504248,0.066182,1.741860,0.386075,-5.082012,0.006075,31.486913,-3.216499
965.000000,0.002000,0.561805,0.572381,0.985259,-1.430855,-2.405809,-1.826793,-4.251684,-3.761513,-6.917312
966.000000,0.002000,-0.487510,0.182742,0.083305,-1.288689,-5.653428,-0.793647,28.796350,-9.803219,-3.797527
967.000000,0.002000,0.331087,-1.561803,-2.376814,0.920983,1.502555,-0.610746,-0.277564,1.246722,1.944548
968.000000,0.002000,0.147084,0.220776,0.069022,1.195797,-3.262229,-3.312514,-20.094052,-25.651167,-4.651605
969.000000,0.002000,-0.772076,-1.328746,0.503957,1.233778,1.858968,0.470480,2.772063,5.396499,-2.099215
970.000000,0.002000,0.189372,0.273275,0.215928,1.466183,-0.172699,-0.372512,-17.946369,-19.051916,-21.657179
971.000000,0.002000,-0.164794,0.132288,0.167934,5.842977,-0.137909,1.561767,12.943391,-10.923834,-18.383420
972.000000,0.002000,-0.590803,0.133334,-0.539399,-1.629101,-0.931285,3.748576,12.521005,-2.647646,12.180149
973.000000,0.002000,-0.325012,-1.576334,0.719047,0.212281,1.000427,-1.191186,0.855261,4.786799,-2.132297
974.000000,0.002000,0.595980,-1.003156,0.208224,-3.164834,-1.707415,2.111435,-5.347578,8.042365,-1.660702
975.000000,0.002000,-0.109682,0.208297,-0.107617,-2.079448,0.934374,2.801964,11.558792,-28.116902,22.691662
976.000000,0.002000,0.578055,0.600289,0.340902,1.207149,-1.035219,-0.919507,-10.096580,-9.579540,-5.525728
977.000000,0.002000,-0.087547,-0.324672,0.179514,0.637878,3.247253,2.059153,6.504769,30.682518,-19.975543
978.000000,0.002000,-0.365962,-0.472929,-0.208341,-0.074501,-0.028659,3.751652,14.200397,18.318160,10.657061
979.000000,0.002000,-0.463932,-0.395024,-0.057088,3.496103,3.421366,-1.207023,23.408630,13.424229,-3.868491
980.000000,0.002000,-0.613466,-1.333987,-0.853006,0.443027,2.125183,-1.425976,2.033449,4.532894,2.845942
981.000000,0.002000,-0.094220,-0.274751,0.220255,-0.078050,4.760379,-4.075558,8.912183,27.932638,-23.330104
982.000000,0.002000,0.601872,0.597790,0.452843,-2.777663,-1.123133,2.187610,-8.762766,-8.041807,-6.417250
983.000000,0.002000,-0.135735,0.257203,-1.816115,1.999503,0.620509,1.359389,0.317050,-0.685175,4.931194
984.000000,0.002000,-0.123515,0.381162,0.008456,-0.219665,2.584522,3.902333,15.367700,-37.763118,-0.432498
985.000000,0.002000,0.143578,-0.201431,0.339570,2.111770,-0.485310,2.943489,-10.292269,22.440516,-26.361861
986.000000,0.002000,-0.144408,0.576496,-0.362614,0.068475,2.212193,2.225535,3.636263,-17.068332,12.182088
987.000000,0.002000,0.028814,-0.199321,0.347380,0.791566,-3.985829,0.733825,-3.660766,17.864274,-31.346760
988.000000,0.002000,-0.321796,0.006289,-0.021450,2.754372,-2.276226,-3.482567,32.451830,-0.137419,4.735156
989.000000,0.002000,-0.303660,0.093268,-0.219251,3.246614,-0.427143,-3.919556,27.930688,-11.748925,21.087130
990.000000,0.002000,0.097411,0.179104,0.129661,-0.030472,-1.609707,0.759437,-9.801992,-20.940719,-15.131677
991.000000,0.002000,0.299607,-0.396760,-0.023290,0.997372,4.415377,0.445618,-23.432053,23.273659,2.216345
992.000000,0.002000,0.003895,0.724181,2.372345,0.531912,0.383771,-0.649712,-0.041341,-0.873637,-2.903664
993.000000,0.002000,-0.189107,-0.302378,0.225952,0.681343,1.383237,-0.236483,16.358134,24.544391,-19.033514
994.000000,0.002000,-0.542077,-0.516012,1.157018,1.099015,0.765904,-1.439658,2.925990,3.224478,-6.969566
995.000000,0.002000,-0.621901,-0.112729,-0.277812,4.679227,2.053432,0.169926,20.149911,3.628666,8.972444
996.000000,0.002000,-0.121794,0.670861,-0.328306,0.504385,-4.611936,-0.322987,3.648347,-18.609767,10.353866
997.000000,0.002000,0.534840,-1.116444,-1.700227,1.429853,1.716957,-0.597038,-1.124614,2.066222,3.345301
998.000000,0.002000,0.884555,-0.189565,-0.164572,-0.002190,-1.366663,0.958209,-13.540648,2.755941,2.982934
999.000000,0.002000,0.161067,2.213155,-1.627801,-0.301918,-0.661586,-0.363591,-0.260920,-1.959676,1.435122
1000.000000,0.002000,0.028784,0.344907,0.017324,0.100906,1.084336,-4.616791,-10.395274,-41.964088,-3.067471
1001.000000,0.002000,-0.519212,0.422887,-0.026866,-2.243035,-4.055390,0.705941,16.888507,-14.252783,0.723013
1002.000000,0.002000,0.118995,-0.269041,-0.424866,-1.457818,4.155982,2.371496,-7.350572,19.123660,23.095833
1003.000000,0.002000,-0.028754,-0.103388,0.547212,-0.278663,-3.135241,0.411955,0.247745,7.313166,-29.905651
1004.000000,0.002000,-0.026310,-0.161381,0.183813,4.238666,-2.056659,0.537994,1.604748,19.284065,-24.329718
1005.000000,0.002000,-0.518843,-1.975352,-1.687139,-0.495509,0.196090,0.478601,0.518815,2.015774,1.717484
1006.000000,0.002000,-0.185922,0.276349,0.001357,-2.551480,1.589172,0.569171,22.251361,-31.479301,3.389494
1007.000000,0.002000,1.970540,0.906422,-2.440367,1.014481,1.218364,1.102751,-1.132359,-0.520052,1.348143
1008.000000,0.002000,0.045601,-0.694026,-0.775216,0.294357,1.878415,1.362712,-0.512065,7.517307,9.087135
1009.000000,0.002000,-0.026980,-0.570874,-0.130088,-2.143186,4.661499,-0.162911,1.206219,27.133241,6.547983
1010.000000,0.002000,1.465022,-0.052936,0.669453,-1.767129,1.008710,-0.440271,-5.401030,0.403278,-2.407750
1011.000000,0.002000,-0.265649,-0.059322,-0.179628,-1.275817,-0.281004,5.501792,25.804401,1.853874,19.311537
1012.000000,0.002000,-0.686588,1.635663,-0.164910,0.932736,-0.596037,-1.119632,2.428256,-5.027990,0.638474
1013.000000,0.002000,-0.161822,-0.118266,0.539381,2.961053,4.167200,0.592234,7.368175,7.263321,-27.136863
1014.000000,0.002000,0.748839,-0.299445,0.322585,-3.011989,0.248840,-3.949935,-13.090666,5.395517,-5.451781
1015.000000,0.002000,-0.294450,-0.028920,-0.055561,-0.383087,3.130443,1.455241,37.474653,2.889053,9.483604
1016.000000,0.002000,0.831439,-0.040759,2.112628,-0.667378,1.329225,-1.106870,-1.320705,0.137926,-3.218152
1017.000000,0.002000,0.111763,0.502753,0.174351,-0.619601,-1.123450,-3.617286,-5.934055,-28.063344,-9.423448
1018.000000,0.002000,0.175631,0.323513,0.214567,-4.651963,1.056789,-3.187544,-12.863560,-26.741671,-18.626667
1019.000000,0.002000,0.154622,0.089439,0.298923,-1.131160,-0.558643,0.853442,-19.494891,-8.125664,-27.558161
1020.000000,0.002000,-0.146807,0.178343,-0.173674,-2.568093,3.843084,3.473788,11.156835,-20.255663,19.316703
1021.000000,0.002000,0.066487,0.038381,0.221571,0.417646,5.951863,1.504407,-4.686123,-9.866530,-31.176639
1022.000000,0.002000,-1.915819,-1.216593,0.124224,0.136870,1.323497,-1.211410,3.062435,1.871446,-0.025857
1023.000000,0.002000,0.021699,-0.021706,-0.296920,-2.496047,0.949456,-4.238678,-5.615456,1.408714,32.451700
1024.000000,0.002000,-0.714536,-0.727379,0.448503,2.322166,1.892822,-0.606852,6.918851,5.687304,-5.948077
1025.000000,0.002000,-1.034170,-0.658393,-1.173630,2.197919,0.504782,0.744056,3.474408,2.215217,4.140331
1026.000000,0.002000,-0.083005,0.164355,-0.571632,1.864847,2.488682,-2.308329,1.522014,-7.428377,25.378701
1027.000000,0.002000,-0.325864,0.209135,0.241015,1.287051,-1.378886,0.679796,24.587654,-16.323600,-17.774412
1028.000000,0.002000,0.080581,3.800551,-1.179590,0.542626,0.131834,0.588838,-0.037713,-1.197483,0.373863
1029.000000,0.002000,0.201951,-2.215709,-0.327908,-0.113545,1.105318,-0.261704,-0.389536,3.511633,0.515810
1030.000000,0.002000,1.196648,-0.397532,1.249705,-2.045344,0.384702,-0.780628,-3.721809,1.272955,-3.611758
1031.000000,0.002000,0.091747,-0.044782,0.213266,0.922746,-1.794332,-0.128659,-16.377642,9.062854,-30.599283
1032.000000,0.002000,-1.331677,-0.497146,-1.119905,0.166042,0.642552,1.476823,3.773002,1.427746,3.336357
1033.000000,0.002000,-0.139217,-0.779179,0.283096,-3.098788,2.211360,-1.186260,2.479736,15.497049,-5.470366
1034.000000,0.002000,0.744648,-0.310599,-0.295164,0.069607,-2.416930,2.635228,-13.856300,5.140173,4.738601
1035.000000,0.002000,0.252701,-1.009298,0.038809,0.096580,3.446631,-0.638971,-2.144116,12.009986,-0.691865
1036.000000,0.002000,1.200385,0.025615,-0.039461,-2.949536,1.432781,0.661856,-9.392874,-0.318373,0.111089
1037.000000,0.002000,0.347111,0.106551,-0.006860,-0.355933,2.309662,0.264824,-30.603238,-7.767488,1.565937
1038.000000,0.002000,-0.477178,0.514679,-0.964755,-1.169041,-1.299411,1.964918,3.714162,-4.422620,7.967326
1039.000000,0.002000,-0.154096,0.192496,0.297963,-1.130743,3.017826,-0.599610,13.563479,-17.468467,-27.073675
1040.000000,0.002000,-0.373721,3.670066,3.499105,-0.289160,-0.420106,1.267791,0.054964,-0.557701,-0.532925
1041.000000,0.002000,-0.017447,-0.083130,-0.511295,-0.198035,-4.378332,2.981920,0.889227,6.311252,29.049231
1042.000000,0.002000,1.545736,-1.143825,-1.335557,1.374267,1.885524,0.248232,-2.203026,1.603829,1.911559
1043.000000,0.002000,0.255521,0.029415,-0.194408,-0.492907,0.433695,-1.070950,-23.297961,0.353413,18.969070
1044.000000,0.002000,-0.150076,-0.162267,-0.148274,3.977814,3.515056,2.373245,17.370062,14.292174,19.355211
1045.000000,0.002000,-1.206049,-0.081838,-0.044132,2.557208,1.036481,0.623007,9.864661,1.030441,0.466648
1046.000000,0.002000,0.693499,-0.121620,-0.222076,0.662832,1.434592,3.635778,-18.285197,4.815991,5.883720
1047.000000,0.002000,0.395480,-0.008690,-0.203357,-5.051211,0.859034,1.619524,-28.034034,-0.737841,16.989336
1048.000000,0.002000,0.003368,-0.072457,0.477523,-3.793669,-2.758713,1.302741,-3.282833,7.642978,-30.943493
1049.000000,0.002000,0.075603,0.245063,0.057549,4.962996,-0.585513,0.203222,-13.541719,-25.596369,-6.999356
1050.000000,0.002000,0.150760,-0.023261,-0.149096,0.140588,-0.624776,5.986671,-23.120896,5.954433,17.167151
1051.000000,0.002000,-0.704244,1.321161,-0.235011,1.426599,0.797262,-2.156126,3.146830,-6.044611,1.052207
1052.000000,0.002000,-0.162045,-0.129462,-0.103774,-0.221123,-0.083701,-2.943688,19.883442,13.783767,12.058732
1053.000000,0.002000,0.116074,-0.059898,-0.333587,0.704915,2.542954,-2.089814,-14.852769,5.141674,30.747866
1054.000000,0.002000,0.066608,1.548593,-0.413505,-0.033331,-1.469427,-2.258506,-0.394419,-6.032926,1.720918
1055.000000,0.002000,0.781570,-0.232578,0.024998,0.342765,-1.482158,-0.340010,-15.767918,4.735605,-0.515397
1056.000000,0.002000,-0.127067,-0.386132,0.318548,0.508746,-2.600892,-2.346961,5.991169,23.657760,-19.318266
1057.000000,0.002000,-0.281000,0.017499,0.067052,5.827264,-3.000225,1.978280,30.472378,-4.268127,-4.051899
1058.000000,0.002000,-0.013523,-0.182091,0.534935,3.581461,1.292489,-1.487247,0.016622,10.045295,-27.412645
1059.000000,0.002000,0.465952,0.028393,0.302024,0.346255,1.767814,2.542373,-25.542963,0.059139,-15.121534
1060.000000,0.002000,-0.264945,0.120271,0.197938,3.258215,3.239650,1.323037,25.397928,-11.791464,-20.378442
1061.000000,0.002000,-0.022699,-0.362511,-0.257527,-2.646015,-2.313806,0.849183,-0.063118,28.070509,21.996084
1062.000000,0.002000,-0.141276,1.646777,-0.213340,1.462731,-2.857395,0.336382,0.576113,-5.903279,0.795740
1063.000000,0.002000,0.407749,-0.249436,0.051559,2.394992,-0.379696,-0.949115,-30.567974,14.121775,0.235113
1064.000000,0.002000,3.245238,0.985151,0.179016,0.603872,-0.078184,0.465747,-1.627677,-0.483343,-0.085367
1065.000000,0.002000,-0.719709,0.369768,0.372182,-1.670733,-3.707048,2.308573,13.009119,-6.414147,-7.538948
1066.000000,0.002000,-0.363929,0.046993,0.080606,0.220656,-2.864374,0.155847,32.228143,-4.196415,-8.466689
1067.000000,0.002000,-0.218673,0.631517,-0.251396,0.403461,0.155031,4.411384,6.343090,-17.249812,4.949342
1068.000000,0.002000,0.382671,-1.428469,-1.874416,-0.146745,0.521715,1.735718,-0.546335,1.919140,2.569455
1069.000000,0.002000,-1.063478,0.362437,-0.278081,2.069646,-0.838794,0.716863,9.406079,-3.346884,3.095390
1070.000000,0.002000,-0.323002,-0.070038,0.278256,-1.598228,-2.154904,2.902774,24.317233,7.649187,-22.119354
1071.000000,0.002000,0.100814,0.324986,-0.258623,2.210894,1.066314,-3.754535,-2.749985,-30.367753,19.750523
1072.000000,0.002000,-0.816827,-0.419217,0.621595,2.649241,1.898064,0.097426,5.908570,7.251426,-4.649482
1073.000000,0.002000,0.479367,-0.459861,0.763328,-0.543552,3.655543,1.018239,-5.861802,6.116632,-9.437767
1074.000000,0.002000,0.061680,-0.276612,-0.260068,-3.769707,-2.211320,2.738213,-4.932594,17.727833,22.592154
1075.000000,0.002000,0.492586,1.200556,-0.133651,-1.010535,2.081760,2.214212,-3.367612,-7.860402,1.302322
1076.000000,0.002000,-0.238957,-0.264217,-0.334622,-1.004018,0.413480,-0.467623,15.870624,18.440384,21.695687
1077.000000,0.002000,1.351011,0.504919,3.017840,1.302509,-1.043923,-0.484228,-0.731273,-0.264008,-1.574892
1078.000000,0.002000,-0.031849,0.091737,0.130304,1.900277,1.641836,-6.510877,2.412679,-3.762622,-20.876921
1079.000000,0.002000,-0.135297,-0.119483,-0.096957,-2.241038,-3.740999,1.013823,16.830041,9.955899,13.171096
1080.000000,0.002000,0.215637,0.304714,0.294819,0.877928,1.945767,2.437088,-18.307602,-19.766552,-20.204211
1081.000000,0.002000,-0.268064,0.016756,0.799542,-2.353971,2.991724,-2.420622,4.989353,0.343559,-15.858401
1082.000000,0.002000,0.208540,0.138470,-0.213955,3.441696,1.436592,-0.851776,-24.373370,-20.880847,23.102405
1083.000000,0.002000,-0.018742,0.003400,0.269061,-5.187834,-1.478095,3.877126,3.889036,3.391355,-31.199074
1084.000000,0.002000,-0.043989,-0.439742,0.093434,-5.508811,0.178541,-1.404445,0.736292,36.234380,-9.508539
1085.000000,0.002000,-0.273759,1.347943,-0.221845,-0.068923,-2.618233,-1.554730,1.473239,-7.551062,1.419322
1086.000000,0.002000,0.089553,0.131977,0.091128,-5.177035,0.338110,-1.120610,-12.484710,-11.793680,-11.845045
1087.000000,0.002000,0.632512,-0.060760,-1.085011,-1.762293,-1.698429,2.370203,-4.599066,0.197227,8.158064
1088.000000,0.002000,0.973177,1.630622,-0.042994,-0.134171,-0.394028,2.359883,-2.443397,-3.930805,0.250769
1089.000000,0.002000,0.087047,-0.572933,0.348533,-0.199271,4.539880,-0.893882,-3.330919,16.883661,-12.602754
1090.000000,0.002000,0.089845,-0.271887,0.730339,4.336281,2.219511,-0.526414,-2.713015,6.452689,-16.788029
1091.000000,0.002000,0.120062,-0.410847,-0.195571,-0.737193,-2.390597,-2.545925,-8.869016,29.209620,12.512147
1092.000000,0.002000,0.048745,0.158423,-0.045986,2.428033,2.672511,4.461738,-13.375356,-14.279695,2.859629
1093.000000,0.002000,-0.292026,1.674563,1.703031,1.184278,0.154358,-1.264554,0.300824,-2.241221,-2.402230
1094.000000,0.002000,0.861540,1.638125,0.629328,-1.367970,0.270925,0.670363,-2.085425,-3.731086,-1.539377
1095.000000,0.002000,-0.255824,0.426331,-0.207439,1.513763,-4.773511,1.929693,9.572978,-23.435643,8.133792
1096.000000,0.002000,-0.297796,0.320796,-0.010531,-4.048998,-0.251650,3.561971,20.400444,-25.050611,2.182158
1097.000000,0.002000,-0.047466,0.256218,-0.148417,4.445994,-2.281217,4.352528,9.004294,-25.757753,24.739380
1098.000000,0.002000,0.139059,0.191158,-0.583992,-4.497492,-1.720679,0.778560,-5.763152,-7.216807,22.227639
1099.000000,0.002000,0.270765,-1.659058,0.033402,-0.393683,1.160056,-0.173166,-0.832318,5.225348,0.364708
1100.000000,0.002000,1.154961,1.546572,0.038791,-2.071157,0.977136,1.619644,-2.835570,-3.569330,-0.093801
1101.000000,0.002000,-2.240250,-0.919634,-1.072462,0.324289,0.061198,1.369711,2.279012,0.913395,1.119137
1102.000000,0.002000,0.082141,0.330481,0.424331,-3.005196,-3.839104,0.517769,-5.024461,-17.301608,-23.254399
1103.000000,0.002000,-0.163388,0.222035,-0.115536,3.122926,-0.322354,-2.269663,15.086661,-23.783509,16.255489
1104.000000,0.002000,-0.077068,-0.023157,-0.186881,1.181769,-2.126593,0.747687,4.720263,0.491427,22.222143
1105.000000,0.002000,0.415800,-0.050751,0.053050,3.040407,-3.074081,0.640184,-32.440469,7.288005,-3.105843
1106.000000,0.002000,-2.375658,-1.500231,-2.245751,-0.020690,0.676571,-0.100916,1.009006,0.633550,0.964250
1107.000000,0.002000,-0.098864,-0.023232,-0.049073,1.451513,0.119226,1.021847,15.186078,-0.217895,8.466562
1108.000000,0.002000,-0.727994,0.398916,0.308474,2.893435,-2.318656,-1.970621,13.867568,-7.603635,-5.576705
1109.000000,0.002000,0.323867,-0.504936,0.208871,0.828785,-0.675385,-3.083224,-11.080102,19.100884,-6.587385
1110.000000,0.002000,-0.923557,0.226677,1.049711,2.466977,2.662265,-0.862486,4.878863,-1.118630,-5.866987
1111.000000,0.002000,0.037611,-0.196113,-0.167548,0.116057,1.905145,-1.241035,-9.609776,18.735828,21.502580
1112.000000,0.002000,-0.349596,0.908435,0.663689,-0.437938,-3.242016,-2.147658,2.770625,-7.693315,-5.699032
1113.000000,0.002000,0.334391,-0.114714,0.001266,-2.627806,-0.599227,-3.845308,-33.090256,10.916365,4.418483
1114.000000,0.002000,0.998643,-0.355452,-1.376982,-0.928913,-0.314646,0.433841,-3.181571,1.172593,4.489775
1115.000000,0.002000,-0.027424,0.135126,-0.359984,-2.753816,0.516924,-4.106560,1.440389,-14.171307,36.157106
1116.000000,0.002000,1.302555,-1.207002,0.392701,-1.356825,-0.299653,-0.496862,-3.623908,3.328901,-1.131230
1117.000000,0.002000,-0.431649,0.322133,-0.194113,1.985300,-4.220604,-1.695824,21.330466,-15.841633,11.179194
1118.000000,0.002000,0.449954,-0.513569,-0.309087,-3.523584,-0.750099,-0.820598,-11.828229,12.298906,7.148598
1119.000000,0.002000,-0.684291,-0.145376,0.029112,0.535881,-2.322894,-2.297434,21.245914,5.043418,-0.279035
1120.000000,0.002000,-0.167796,0.333295,0.049288,5.207821,2.584327,-0.456454,16.566458,-34.700418,-3.246696
1121.000000,0.002000,0.219049,-0.088271,-0.408522,0.779836,-1.564398,-1.993765,-13.781680,9.538660,27.680020
1122.000000,0.002000,-0.000647,0.150640,0.193970,0.767957,-0.242720,-1.561836,-1.717256,-15.401000,-24.909321
1123.000000,0.002000,-1.189690,1.138259,-1.371129,0.960772,-0.878503,1.326728,2.150049,-2.055728,2.567685
