# 
#                 columns are tag, mass, x, y, z, vx, vy, vz, ax, ay, az
#                 Time=0.600000
# 
1.000000,0.002000,1.422630,0.462642,0.922387,-1.593782,-0.122113,-0.761188,-4.074823,-1.095791,-2.630507
2.000000,0.002000,2.066956,2.033016,-0.921100,-0.709471,-0.117814,0.284572,-1.435079,-1.403429,0.648512
3.000000,0.002000,-0.202820,-0.344542,-0.305674,-2.644107,1.094461,1.182965,4.355573,11.537657,11.227057
4.000000,0.002000,0.083069,-0.471304,-0.401467,-1.417431,0.780738,-3.446659,-2.596493,13.304794,10.396489
5.000000,0.002000,0.211450,0.236666,-0.089227,-3.044893,-0.945207,-1.011308,-10.653385,-9.717574,5.809940
6.000000,0.002000,-0.095674,0.510782,0.236630,-0.619668,-3.941089,0.477238,3.654434,-12.888825,-5.365268
7.000000,0.002000,-0.476902,-0.268322,-1.992176,-1.224955,1.174434,1.890989,0.832406,0.455541,3.838466
8.000000,0.002000,0.450650,0.800061,-0.219904,-1.441815,-1.655923,1.666095,-4.832751,-10.031313,2.992436
9.000000,0.002000,2.911567,-0.979026,0.435880,0.499886,1.042292,0.574415,-1.849600,0.644170,-0.283642
10.000000,0.002000,-1.344071,1.719754,1.933063,-1.654269,-0.190213,0.248897,1.047192,-1.354597,-1.494051
11.000000,0.002000,-0.456975,0.155218,0.379943,0.646667,-1.335069,1.927824,9.733687,-3.614243,-9.128233
12.000000,0.002000,-1.420124,-1.003554,-1.098506,1.892008,-0.575126,-1.695659,2.887697,1.994022,2.277621
13.000000,0.002000,0.056119,0.530236,0.045758,-2.986291,-3.020127,0.985931,-3.177517,-14.870053,0.390564
14.000000,0.002000,-0.193741,0.458224,-1.436438,0.423390,2.507721,1.446767,1.183739,-1.571567,5.783683
15.000000,0.002000,-1.602255,1.713078,-0.999077,0.688740,-0.940066,-0.555213,1.812351,-1.922567,1.099335
16.000000,0.002000,0.104844,-0.668616,0.035575,0.926003,3.098067,-1.811613,-1.824137,13.782517,-1.300688
17.000000,0.002000,-1.386600,0.156160,-0.508388,1.712494,0.516821,1.215730,6.104521,-0.919806,2.126788
18.000000,0.002000,0.015596,-0.164284,-1.856112,-0.717537,0.749141,0.160471,0.004905,0.340350,4.562474
19.000000,0.002000,0.757374,0.647433,-0.084136,-0.082553,-1.153907,-0.210148,-7.340074,-6.278788,1.657484
20.000000,0.002000,-0.085099,-0.007621,0.079243,-0.626619,2.292057,0.485226,4.618115,1.849311,-7.338547
21.000000,0.002000,-0.990993,-0.511977,-0.801582,0.491893,0.396108,1.051053,4.448951,2.681836,3.777304
22.000000,0.002000,-1.142472,-0.081431,-1.326525,2.026705,-0.533583,-0.679195,3.416893,0.032991,3.873483
23.000000,0.002000,-1.328972,-0.047670,-0.801423,1.662694,-1.005490,0.949598,4.929438,0.036935,3.538737
24.000000,0.002000,0.345847,0.012473,0.498021,-0.688832,-2.027944,-1.300927,-7.117479,1.482858,-11.827685
25.000000,0.002000,1.006995,-0.856442,-0.121801,-1.309220,1.715772,-0.894737,-5.141675,4.581759,0.535847
26.000000,0.002000,0.009740,-0.124678,-0.086557,1.729633,2.930966,2.282511,-8.566500,10.834493,11.202528
27.000000,0.002000,0.853907,0.244443,-0.083508,0.424516,-0.198813,2.858913,-10.450838,-1.563876,0.816740
28.000000,0.002000,0.670803,-0.148639,-1.207628,-1.119221,-1.080407,1.884445,-3.595870,0.610192,6.146444
29.000000,0.002000,1.491571,2.136705,1.136476,-0.365276,-0.114849,-0.364556,-1.257216,-1.773772,-0.957572
30.000000,0.002000,0.329013,-0.171000,0.499620,0.169496,2.635936,-2.825559,-7.399337,4.779631,-11.115331
31.000000,0.002000,-0.060480,-0.081676,0.169168,1.568042,-3.323901,-1.447739,-1.219495,12.558968,-8.016784
32.000000,0.002000,0.564712,0.189669,0.106364,-2.654447,-0.935806,-1.831639,-16.066270,-4.933717,-2.380155
33.000000,0.002000,0.509222,0.250521,-0.395399,-0.241619,-4.307340,-0.060957,-10.438202,-2.485797,7.882718
34.000000,0.002000,0.823407,0.825524,-0.012522,-0.151610,-3.054427,2.702475,-6.538469,-5.545182,0.545017
35.000000,0.002000,-0.651873,0.571997,0.083884,2.412846,-1.866725,2.560993,7.926964,-7.180718,-1.083822
36.000000,0.002000,1.713154,-0.254525,0.607989,-1.554870,0.469133,2.133796,-4.259006,0.762916,-1.689168
37.000000,0.002000,1.477755,1.937219,1.825286,-1.060496,0.408131,-0.441590,-1.005142,-1.308650,-1.265485
38.000000,0.002000,1.538032,-0.284157,1.773791,0.520739,1.142402,-0.936208,-2.084747,0.275256,-2.364770
39.000000,0.002000,-0.575108,1.513964,1.584796,-0.202303,0.408145,0.206848,1.028028,-2.345333,-2.559464
40.000000,0.002000,-0.211606,-0.024301,0.190865,0.993743,-1.603387,-3.201433,6.139011,6.520053,-11.381122
41.000000,0.002000,0.353816,0.195933,0.365606,-1.467044,2.534374,-1.472502,-10.802589,-7.439734,-8.499580
42.000000,0.002000,0.269280,-0.057526,-0.314329,-3.748103,1.930556,0.590804,-7.469036,7.002629,10.510362
43.000000,0.002000,0.036754,0.417385,0.819711,0.910293,-3.644573,-1.125271,-0.941870,-4.547148,-9.978657
44.000000,0.002000,0.232145,-0.018947,0.375309,-1.363044,2.207391,-2.211416,-8.968050,-1.955866,-14.458887
45.000000,0.002000,0.251137,0.392792,0.064553,1.330447,-1.345607,1.887490,-9.192125,-13.455681,-4.108735
46.000000,0.002000,1.203807,-0.315946,-0.265146,-0.835374,-1.435588,0.330288,-6.801182,1.533444,1.538605
47.000000,0.002000,-0.153473,-0.757641,-0.049957,-0.888801,2.438785,3.142651,2.279042,11.669380,0.103253
48.000000,0.002000,-0.287109,-0.035775,-0.246813,-0.063102,-0.321645,-1.275611,12.758872,-6.176489,12.788099
49.000000,0.002000,1.546202,0.573510,0.665480,-2.465604,-1.008488,2.502290,-4.261188,-1.475984,-1.835199
50.000000,0.002000,1.629680,-0.626424,-0.619335,-0.180697,1.759914,0.097274,-4.009495,1.584813,1.485680
51.000000,0.002000,-0.750854,1.008031,0.233126,-0.414844,-2.668386,1.733750,4.881045,-5.824693,-1.207951
52.000000,0.002000,-0.677165,-0.539393,0.187931,1.972678,0.216022,1.407673,8.979843,6.472142,-2.796217
53.000000,0.002000,0.435555,-1.215244,-1.105972,-1.632916,0.700484,0.873156,-1.463482,3.745643,3.473586
54.000000,0.002000,-0.104281,-0.083350,1.109188,0.758875,1.020270,-2.949625,1.018288,0.941103,-8.615194
55.000000,0.002000,0.155132,1.025596,-0.178965,-2.029590,-0.042658,2.778366,-1.889710,-9.446249,2.265923
56.000000,0.002000,0.285299,-1.069073,-1.125506,-1.258357,0.810261,1.741367,-1.183489,3.987746,4.223344
57.000000,0.002000,-0.040655,0.221449,-0.176536,-3.193906,-1.745836,-2.003187,1.870879,-14.471984,8.938397
58.000000,0.002000,0.372453,0.275334,-0.224090,-1.406725,-2.277122,1.898618,-10.183323,-5.789505,4.610690
59.000000,0.002000,-0.703253,0.870521,-0.526666,1.497014,-0.713255,1.301492,4.360990,-5.198172,3.627817
60.000000,0.002000,0.227404,-0.330309,0.190128,1.387399,2.178216,-0.700702,-10.377244,12.048228,-7.782458
61.000000,0.002000,-0.657690,-0.358290,-0.665962,0.580004,2.754268,1.146815,3.425340,4.054059,7.654860
62.000000,0.002000,-1.884237,1.053425,-1.356559,1.159803,0.448254,0.842850,2.473637,-1.137518,1.718918
63.000000,0.002000,-0.596679,-0.101717,-0.422963,2.632753,-0.172518,1.707194,10.578777,1.134982,7.731903
64.000000,0.002000,1.367513,-0.715604,-0.876384,-1.307389,1.568283,-1.568010,-3.783609,1.860904,2.344503
65.000000,0.002000,-0.273034,-0.924811,-0.437020,0.058297,2.273851,-1.382688,2.555263,7.998469,3.265170
66.000000,0.002000,-0.493509,1.260928,1.223320,-0.185258,-0.219357,-0.237343,1.311996,-3.515168,-3.246808
67.000000,0.002000,2.381101,-0.929052,-0.814885,-0.415388,-3.714937,-0.513661,-2.272891,0.945462,0.763608
68.000000,0.002000,-0.233090,-0.522691,-0.095129,1.496248,-1.874460,-1.954925,6.234812,13.250381,2.700598
69.000000,0.002000,-0.637086,-0.150771,0.547473,-1.415552,3.885146,-0.264154,8.076464,2.326039,-7.607326
70.000000,0.002000,-0.419545,-0.035690,0.309480,2.546048,-0.707816,-0.388813,10.636383,-2.470434,-11.953857
71.000000,0.002000,0.461580,-0.243142,0.376317,-2.457439,-0.489149,-2.306793,-9.486913,4.779975,-7.587856
72.000000,0.002000,-0.154844,-0.230539,0.001092,1.796278,3.453815,0.962240,5.997762,11.407086,-3.434330
73.000000,0.002000,0.005253,0.539593,0.088265,0.025268,-1.183658,-5.164899,0.269766,-14.040281,-1.786926
74.000000,0.002000,-0.099258,-0.417013,-0.827574,0.045113,2.074459,0.820747,1.035556,4.227610,9.202768
75.000000,0.002000,-1.539279,0.839968,-1.526187,-1.217365,0.239540,0.807703,2.122742,-1.144619,2.166555
76.000000,0.002000,0.194546,0.530456,-0.272307,-0.587215,-1.252520,-0.186790,-5.492919,-11.430313,6.907993
77.000000,0.002000,0.057391,0.083435,0.042307,1.629771,0.211534,4.054162,-3.239050,-4.529074,-5.022919
78.000000,0.002000,0.227864,0.287188,-0.531987,1.068206,1.253171,0.243079,-3.938124,-4.829619,11.422719
79.000000,0.002000,-1.892846,1.248127,2.878557,-0.908114,0.561134,1.847287,0.771057,-0.523769,-1.162436
80.000000,0.002000,-1.793201,-0.293020,-0.093227,1.673799,-1.167717,-1.372229,4.813544,0.708075,0.188317
81.000000,0.002000,0.388249,-0.004681,0.056035,0.521983,1.706776,0.000380,-14.692526,0.509400,-2.920900
82.000000,0.002000,-0.293377,-1.044539,-0.987258,0.285105,-0.371252,2.459580,1.359433,4.440784,4.629471
83.000000,0.002000,1.425215,0.218107,-0.776538,-0.692462,-1.854306,0.743765,-4.967477,-0.838772,2.495639
84.000000,0.002000,-2.564463,0.904664,-0.387116,-1.010822,0.332632,0.499532,2.354700,-0.874304,0.332683
85.000000,0.002000,0.002070,0.112022,0.208955,-0.528308,0.956181,-2.977714,1.605972,0.322058,-9.006579
86.000000,0.002000,0.380886,-0.573917,-1.482748,-0.951530,0.721554,1.112635,-1.491434,1.769134,5.090754
87.000000,0.002000,-0.002653,0.761307,-1.567425,2.995178,-0.272796,0.472450,0.020489,-2.151245,5.585841
88.000000,0.002000,-0.112308,0.230803,-0.216717,2.270285,0.748527,1.193935,4.791498,-11.575830,14.355714
89.000000,0.002000,-0.205006,0.460934,0.803701,3.991849,-0.233230,-0.825945,2.100482,-5.467169,-8.599031
90.000000,0.002000,-0.369068,-0.159968,-0.592154,0.156731,0.955845,0.584504,6.704502,1.850190,10.606772
91.000000,0.002000,0.144256,-2.275643,1.545981,-0.475987,1.343265,-1.045961,-0.150520,2.035628,-1.411882
92.000000,0.002000,0.372019,0.272111,0.271793,-2.095200,1.493590,0.445416,-8.919685,-5.966909,-8.138521
93.000000,0.002000,0.516944,-0.976643,-0.683891,-0.591510,-0.581178,3.412622,-3.420144,5.448618,3.787877
94.000000,0.002000,1.267840,-0.187396,1.130425,-2.296105,-0.033931,-0.521400,-3.816146,0.274063,-3.585082
95.000000,0.002000,-0.439664,0.851164,-0.053214,1.202291,-2.829855,-0.507113,3.745401,-9.525700,1.100988
96.000000,0.002000,1.196027,-0.341289,0.063890,-0.397867,1.913958,-2.483359,-6.734671,3.078922,-1.528318
97.000000,0.002000,0.517562,0.939943,-1.916739,-0.566531,-1.218431,-1.294168,-0.745655,-1.526659,3.108207
98.000000,0.002000,-0.227857,1.627338,-0.015131,0.605783,-2.310011,1.956348,1.120055,-5.313669,-0.030966
99.000000,0.002000,0.328553,0.558072,-0.018007,0.189229,-3.225322,-0.019263,-7.755324,-12.649683,1.118465
100.000000,0.002000,-0.298190,0.218481,-0.192023,-0.414185,0.210516,-0.720868,13.437066,-9.716562,7.169838
101.000000,0.002000,-1.161230,0.555324,-0.631668,1.369953,-2.673812,-0.375859,5.470113,-3.366833,3.257127
102.000000,0.002000,-0.077357,0.111879,0.203542,2.391622,-2.553610,0.796398,6.365648,-6.754799,-10.721001
103.000000,0.002000,-1.020882,-0.697928,-0.075962,1.778537,2.075941,-1.413717,6.593964,4.309438,0.510430
104.000000,0.002000,-0.163007,0.256657,-0.124381,0.864484,-0.500360,-2.884508,6.796898,-14.346967,6.629420
105.000000,0.002000,-0.303500,-0.141792,-0.025072,3.380420,2.340961,0.893792,13.602892,7.342908,1.656406
106.000000,0.002000,-0.098293,-0.016156,1.251811,-0.390522,0.137428,0.806522,0.491236,0.033805,-7.648746
107.000000,0.002000,0.321207,-0.298409,-0.452880,-0.031944,0.619577,2.274061,-6.901164,6.536704,10.070618
108.000000,0.002000,0.060924,0.349599,-0.087910,2.034618,-1.572473,2.927686,-0.853738,-13.814095,3.263628
109.000000,0.002000,-0.219933,0.131621,-0.395531,3.417881,0.511446,1.112091,7.208829,-6.412454,15.464198
110.000000,0.002000,1.607877,-0.102914,2.085713,-1.663043,1.114345,1.358187,-1.635902,0.111237,-2.113020
111.000000,0.002000,0.351200,-0.534117,0.626136,-1.555447,2.311158,-1.433621,-4.780615,6.617691,-7.450379
112.000000,0.002000,-1.104550,-1.448160,1.043251,0.581219,2.727264,0.377820,2.039285,2.705278,-1.932745
113.000000,0.002000,-1.234797,-0.712237,-0.434272,2.236646,-1.502795,0.973417,5.143010,3.149532,1.992481
114.000000,0.002000,1.849391,1.049850,0.811811,-0.586338,-0.558069,1.953718,-3.026249,-1.628402,-1.268397
115.000000,0.002000,-0.923011,-1.377271,-1.123869,0.168445,0.668150,-0.526043,1.799460,2.969041,2.558642
116.000000,0.002000,-0.940480,-1.124921,0.694689,-0.202886,-0.103497,0.202952,2.945135,3.742854,-2.122572
117.000000,0.002000,0.418941,0.131545,-0.298705,-1.674140,-0.971741,2.158579,-11.411794,-2.221465,8.101793
118.000000,0.002000,-0.832617,1.058611,-0.944260,1.720206,-1.325331,0.217587,2.492439,-2.958115,3.172415
119.000000,0.002000,-0.053213,-0.199917,-1.397434,1.215785,0.801183,2.224981,0.071566,0.775932,6.550264
120.000000,0.002000,-0.487191,-0.074260,-0.196279,2.286515,1.392871,-1.282176,18.147816,2.323979,7.036697
121.000000,0.002000,0.259748,-0.133395,0.283351,-2.089897,0.233353,-3.015280,-9.570283,5.038390,-10.753542
122.000000,0.002000,-0.269831,0.405079,-0.275608,-0.443438,-1.054522,0.067883,7.231665,-10.488276,7.292655
123.000000,0.002000,0.341991,0.039816,0.352952,-0.092084,1.297886,-0.504786,-8.918111,0.749833,-10.833806
124.000000,0.002000,-1.046862,0.401035,-0.179785,1.669520,-0.367344,1.941951,7.990041,-2.980557,1.269602
125.000000,0.002000,0.400244,-0.590433,-0.451805,-2.245862,0.717275,-0.004475,-6.298383,7.894287,6.336934
126.000000,0.002000,0.101010,0.180248,-0.758986,-0.992507,-1.361960,3.266218,-4.228630,-3.037786,14.789138
127.000000,0.002000,-0.479477,-0.602184,-1.144742,0.052197,-2.367215,2.335730,2.643361,2.771695,5.907511
128.000000,0.002000,0.616150,-1.496138,-2.469623,0.231887,1.738324,-1.891571,-0.471681,1.081699,1.833908
129.000000,0.002000,0.021860,-0.894011,-0.296439,-0.156956,2.999446,1.820385,-0.679933,10.114521,2.970847
130.000000,0.002000,-1.530243,0.622381,1.303256,0.709205,-2.256443,1.391066,2.869070,-1.402911,-2.645021
131.000000,0.002000,0.339231,0.552923,0.319608,-2.011461,-0.108771,0.678844,-4.196695,-10.938307,-5.749142
132.000000,0.002000,-1.788052,-0.913713,-0.673155,0.698014,-0.640677,0.545758,3.394856,1.714750,1.328248
133.000000,0.002000,0.266353,1.406089,0.849380,-1.348907,-0.544274,-1.776707,-1.126093,-4.577397,-2.632636
134.000000,0.002000,-0.040803,0.685371,-0.294139,-1.884838,0.877287,3.270236,0.810658,-11.174738,4.938986
135.000000,0.002000,-0.175512,0.516990,-0.600593,-1.596946,-0.643261,3.668563,2.445966,-7.236680,8.832816
136.000000,0.002000,-0.343257,0.201127,0.444790,-0.592017,-2.456145,-1.113699,7.524552,-3.969159,-12.124757
137.000000,0.002000,0.331575,-0.488518,-0.908966,0.649287,1.286909,2.487490,-0.367333,3.217771,7.161587
138.000000,0.002000,-0.342558,-0.117416,-1.151621,-1.933170,0.518683,0.260309,2.151686,0.387642,7.827041
139.000000,0.002000,1.338463,-0.113775,0.328229,-2.083970,-1.361140,-0.434299,-6.271848,0.766047,-1.922672
140.000000,0.002000,1.331071,0.526911,0.690542,1.179066,-2.289161,-2.571137,-4.846296,-1.612604,-2.489561
141.000000,0.002000,1.390882,0.546307,-1.469966,0.181109,-0.303035,1.798039,-2.478201,-1.014718,2.634007
142.000000,0.002000,-0.273376,0.442962,0.098355,0.359897,-0.685452,-0.367752,8.572653,-11.760481,-2.290202
143.000000,0.002000,0.666138,-2.361978,-0.197964,-0.714114,1.354435,0.721307,-0.919522,2.813713,0.246043
144.000000,0.002000,-0.245339,-0.440053,-1.049643,-0.744789,0.635877,2.304807,1.771308,3.086716,7.938523
145.000000,0.002000,0.430644,0.042322,0.133969,-2.983683,-0.738080,2.305667,-15.401426,1.649726,-5.036044
146.000000,0.002000,-0.126994,0.171099,0.367934,-0.710766,-2.799861,-1.119307,5.762660,-7.412909,-13.245937
147.000000,0.002000,0.126743,0.012889,0.060396,-3.324083,-0.278398,1.155942,-12.036429,-2.001060,-12.763005
148.000000,0.002000,0.038161,0.564457,0.327933,3.052965,-0.403823,-1.142175,-1.850717,-10.931957,-8.695828
149.000000,0.002000,0.083872,-0.830016,-0.119250,-2.334324,0.722049,-1.187288,-1.226728,11.825128,0.670135
150.000000,0.002000,-0.411462,-0.223719,0.219415,2.753442,2.152810,0.029903,12.151435,7.120901,-5.139796
151.000000,0.002000,-1.147259,-0.213153,-0.843432,1.378787,-1.903265,-1.592237,5.383773,0.408987,3.439084
152.000000,0.002000,0.303066,0.817848,2.457405,-0.095377,0.566807,-0.123750,-0.378852,-0.868654,-2.623670
153.000000,0.002000,-0.061959,-1.744652,1.149950,0.806221,1.716392,1.161906,0.202244,3.321645,-2.098616
154.000000,0.002000,-0.666469,-0.644117,-0.609141,-0.128586,0.861950,1.915054,5.307615,4.807257,5.042330
155.000000,0.002000,0.059472,-0.527361,0.134318,1.125478,0.792321,1.327240,-2.033860,13.853920,-5.396226
156.000000,0.002000,1.426815,-0.111729,-1.577965,-2.382766,1.557821,-0.731427,-2.534720,0.100797,2.820013
157.000000,0.002000,-2.413400,-0.265228,-0.318672,0.508069,-0.854807,3.103336,3.059594,0.338705,0.349520
158.000000,0.002000,0.038528,-0.563144,0.148259,1.485008,1.779679,1.620528,-1.244118,15.380509,-8.817655
159.000000,0.002000,2.760287,1.220220,1.665280,1.243203,0.153846,0.274145,-1.328355,-0.583414,-0.806223
160.000000,0.002000,-0.869800,0.266187,0.742874,1.200469,-2.176714,-0.566567,5.967746,-2.164540,-5.403472
161.000000,0.002000,1.357439,0.189659,-0.808167,-0.111176,-1.830163,1.010683,-4.547422,-0.570705,3.027523
162.000000,0.002000,0.191729,-0.285804,-1.817560,0.982647,-1.953211,2.465471,0.128835,0.747100,5.297600
163.000000,0.002000,0.192016,0.693900,0.105393,-3.518726,-1.522681,0.044204,-3.303850,-13.353971,-1.465794
164.000000,0.002000,-0.391780,-0.577013,-0.285134,-0.323232,2.692060,0.812009,6.568351,10.080790,4.283814
165.000000,0.002000,1.586502,2.223353,2.604338,0.629520,1.299839,-0.492901,-0.577989,-0.812114,-0.964180
166.000000,0.002000,-0.002186,0.217222,0.132643,0.312672,1.245371,1.176379,-1.256007,-14.077687,-8.925665
167.000000,0.002000,-1.882981,0.172094,-0.435927,-0.108619,0.365521,-1.222532,4.417964,-0.523900,1.114437
168.000000,0.002000,-0.266715,-0.431518,-0.953347,0.168404,-2.743289,0.578003,1.921473,3.571355,7.778750
169.000000,0.002000,-1.030240,-1.493768,-0.684534,-0.580352,-0.663777,2.268403,2.335592,3.368948,1.563036
170.000000,0.002000,-1.389015,-1.692252,1.954692,0.702950,-0.445253,0.611017,1.047433,1.310573,-1.507013
171.000000,0.002000,0.631413,1.214122,-1.837599,-0.743948,-0.849593,-0.097036,-0.923136,-1.840566,2.694488
172.000000,0.002000,0.107283,-0.321742,-0.294292,4.629936,2.109557,0.206158,-5.535264,13.551181,11.357443
173.000000,0.002000,-0.058045,0.517310,-0.418873,-0.981137,-2.964330,-0.176731,5.057613,-9.972933,9.661101
174.000000,0.002000,0.701122,-0.257813,-0.989989,-2.888136,0.208145,0.997902,-4.552853,1.285392,5.951024
175.000000,0.002000,-1.144059,-0.109660,0.241842,2.506747,1.866699,-0.391847,8.056683,0.929077,-1.106063
176.000000,0.002000,0.191842,1.012167,1.206981,1.899625,-0.692828,-1.463520,-0.772213,-3.705287,-4.456887
177.000000,0.002000,-1.672718,0.192324,-1.781877,1.655260,-1.221859,1.283108,2.041226,-0.332965,2.274074
178.000000,0.002000,1.449659,-0.007848,0.082467,0.291594,-2.607142,-0.066889,-6.172651,0.193972,-0.460029
179.000000,0.002000,-0.341559,-0.501716,0.029827,3.097062,1.671404,0.529753,7.850254,11.151415,-0.572595
180.000000,0.002000,-0.241508,-0.293789,0.061754,1.226979,1.745961,-0.049712,8.034406,13.533133,-6.534637
181.000000,0.002000,0.544174,-1.488890,-0.000668,0.196895,0.958652,0.457497,0.314811,6.092015,1.176359
182.000000,0.002000,0.146279,0.599693,0.254344,-4.011117,0.231063,0.865104,-3.896984,-12.497899,-5.277609
183.000000,0.002000,0.751638,-1.797725,1.024174,-0.843189,1.951729,-0.645160,-1.206010,2.790445,-1.593110
184.000000,0.002000,0.114541,-0.379858,0.005534,1.530943,0.782187,-0.583446,-5.577603,14.374651,-1.013083
185.000000,0.002000,-0.392536,-0.414868,0.233805,-1.915095,1.818142,1.382613,8.282239,9.247162,-5.372959
186.000000,0.002000,1.574011,-0.877774,-1.126417,-0.227957,3.085348,-1.568945,-2.871300,1.591390,1.973348
187.000000,0.002000,-1.396941,-0.693621,1.055216,0.658608,0.527920,-2.322695,3.490802,1.894234,-2.519326
188.000000,0.002000,-0.705070,0.012412,-1.419309,-0.594583,-0.359391,1.845613,2.437575,-0.299758,5.108955
189.000000,0.002000,-0.514674,0.367407,-0.203616,2.305349,-0.704510,-0.594519,9.843622,-7.994644,4.806777
190.000000,0.002000,0.119661,0.201948,0.272521,-1.991813,-0.122587,-2.383876,-7.664225,-7.243638,-12.116298
191.000000,0.002000,-0.071812,-0.902098,0.067192,-1.044161,3.411262,-0.091428,0.415174,10.976248,-1.786846
192.000000,0.002000,0.449984,0.217998,-0.242066,-2.415043,-1.567797,1.054280,-12.726000,-3.718331,5.600113
193.000000,0.002000,-0.308890,-0.299785,0.755502,1.855997,2.662278,0.295463,3.561202,4.745247,-10.125743
194.000000,0.002000,0.631369,-1.694956,-0.978209,-1.225135,1.286688,-0.117195,-1.266497,3.296371,1.824281
195.000000,0.002000,0.183646,-0.370362,0.382992,3.028997,-1.206032,0.469566,-6.030039,9.229424,-10.770149
196.000000,0.002000,-0.607315,-0.057176,0.143378,1.954539,0.743659,-1.399633,13.506526,-0.806239,-4.237572
197.000000,0.002000,-0.386372,-3.320863,0.816619,0.066666,0.044930,0.341767,0.172012,1.611794,-0.391949
198.000000,0.002000,-0.217964,0.693933,0.235265,-0.922638,-0.350997,2.892127,3.492515,-12.227292,-3.078884
199.000000,0.002000,-0.045337,-0.923462,-0.129344,-1.009285,-0.409249,1.194982,-0.889530,10.710437,1.566494
200.000000,0.002000,-0.395109,-1.401405,-0.840123,0.062417,0.554423,-0.454783,0.954961,4.712403,2.827895
201.000000,0.002000,-2.129020,0.093962,-0.069999,0.145500,-0.665491,1.685855,3.891213,-0.238552,0.183739
202.000000,0.002000,-0.192267,-0.600026,0.390288,-0.591276,3.441475,1.203372,2.217726,9.970655,-6.907616
203.000000,0.002000,-0.121822,-0.601575,-0.531112,0.364879,3.589035,-0.269980,2.467934,6.387980,9.845730
204.000000,0.002000,-0.532334,-1.622409,-1.335739,-0.031129,0.962836,0.592157,0.822796,2.687974,2.604972
205.000000,0.002000,0.065152,-0.371306,0.515895,-1.789326,-1.967265,-0.703463,-1.442559,7.441992,-11.610306
206.000000,0.002000,0.303780,0.283932,-0.272822,-1.766105,-1.166491,-0.321381,-4.314018,-14.237898,4.911113
207.000000,0.002000,1.185807,-0.759924,-0.129078,-1.224031,2.151496,-1.453886,-5.367436,3.652902,0.376028
208.000000,0.002000,0.552050,-0.047492,0.617630,0.418884,0.873161,-0.145891,-7.519678,1.318429,-8.622437
209.000000,0.002000,0.288296,-0.776414,0.286606,0.833368,2.704463,-0.504759,-3.877014,9.721491,-4.093797
210.000000,0.002000,1.420305,0.356669,0.031137,-1.950847,0.529732,-0.041517,-6.567241,-1.484840,-0.323664
211.000000,0.002000,-0.028412,-0.278439,0.269250,1.884799,0.937652,-2.087084,2.444821,9.770338,-11.395137
212.000000,0.002000,-0.456252,-0.137870,0.148117,1.655925,1.516494,-1.473620,13.175545,5.222093,-5.812058
213.000000,0.002000,0.111795,-0.207315,-0.365772,2.585333,-0.220600,-1.105900,-5.110307,7.452895,13.436261
214.000000,0.002000,-0.230125,-0.818667,0.720981,-2.996827,-0.258103,-2.480945,1.686868,6.480309,-5.931293
215.000000,0.002000,0.245225,0.597097,-0.285946,-2.424793,1.987324,3.069037,-4.419664,-11.139940,4.257106
216.000000,0.002000,-0.125580,-0.383968,-0.088765,1.743984,-1.957605,0.714171,3.761155,14.013232,1.676686
217.000000,0.002000,-0.266628,0.388566,0.896177,1.171287,-3.133849,-0.236345,2.919368,-3.207761,-9.101548
218.000000,0.002000,-2.600991,-0.290520,-0.082549,0.372135,-0.978562,-1.053286,2.771433,0.299085,0.058744
219.000000,0.002000,-0.678259,0.311013,0.075987,0.142972,-1.567015,0.123267,11.645814,-4.487015,-0.372028
220.000000,0.002000,-1.472802,-0.070817,-0.379465,1.032373,0.625365,1.505285,5.894673,0.228702,1.509811
221.000000,0.002000,-0.483404,-0.937595,0.685529,1.530986,1.805102,-0.392769,2.828186,6.052361,-4.256668
222.000000,0.002000,-0.700945,-0.687842,-0.208339,-0.228046,1.109522,1.501538,6.247297,7.059158,1.673829
223.000000,0.002000,0.087789,0.759327,-1.321854,0.076301,-1.182769,2.249304,-0.848529,-2.932479,4.828648
224.000000,0.002000,0.229877,0.300934,-1.233423,-0.532031,1.307726,2.635953,-1.397227,-1.604971,7.002976
225.000000,0.002000,-0.265791,-0.212265,-0.331765,4.702008,2.211818,-0.084838,7.952681,6.118335,11.777000
226.000000,0.002000,0.681565,-1.763870,-0.302719,-0.058863,-0.190328,-2.325236,-1.628189,4.011356,0.621838
227.000000,0.002000,0.351727,-0.125826,-0.383524,-3.706019,-0.802369,1.753179,-10.909994,3.551580,10.108664
228.000000,0.002000,0.594261,1.567372,0.152957,-1.535626,0.169851,-1.543576,-1.591304,-5.168651,-0.719345
229.000000,0.002000,-1.013524,-2.453858,1.992188,-0.466889,1.012268,-0.507315,0.542051,1.310092,-1.070366
230.000000,0.002000,-1.431935,0.220708,1.021800,1.107371,0.337966,-3.027522,4.297104,-0.594868,-3.010338
231.000000,0.002000,1.830243,1.281204,-0.905908,1.867520,-0.004143,1.537744,-2.327390,-1.624679,1.145838
232.000000,0.002000,-1.124529,-0.655764,0.872524,2.055142,0.312087,-1.055456,3.957055,2.700577,-3.270692
233.000000,0.002000,-0.217729,-0.790819,-0.936631,0.677863,1.456120,-0.879488,1.533959,5.246616,5.618876
234.000000,0.002000,0.645480,-0.615836,-1.032167,-1.449502,2.201261,1.300195,-3.429197,3.095237,5.077202
235.000000,0.002000,-1.809608,0.501511,0.605896,-0.594565,-1.568955,0.253299,4.038403,-1.225911,-1.418738
236.000000,0.002000,0.850438,0.032574,0.125747,-3.916611,-1.720972,0.086964,-11.005144,-0.011155,-1.820452
237.000000,0.002000,0.487039,0.080096,-0.202633,-3.490967,-0.351046,1.758718,-13.761728,-1.400641,5.223066
238.000000,0.002000,0.953195,-0.372857,0.070842,-1.211467,1.632420,0.538906,-8.244158,3.722833,-1.081096
239.000000,0.002000,0.642401,0.315922,-0.566987,-2.803855,0.236949,1.622920,-8.880848,-4.018164,6.918111
240.000000,0.002000,0.460005,1.518425,-1.060822,1.467710,-0.271347,-0.143293,-0.882253,-3.580139,2.318171
241.000000,0.002000,0.025434,0.244063,0.007381,1.292294,0.465948,-0.880436,0.314221,-13.683704,-0.279297
242.000000,0.002000,-0.523197,-0.748355,-0.419555,0.502286,2.901378,1.472786,4.787629,7.737029,3.558315
243.000000,0.002000,-0.325737,0.450494,0.197116,2.329399,-2.945887,-1.842093,10.029990,-11.275761,-4.812168
244.000000,0.002000,-0.115005,-0.613056,-0.042938,-1.463313,1.948522,1.989299,2.523406,14.433598,0.107925
245.000000,0.002000,-0.814570,-1.393701,2.122052,-0.322724,-0.213726,-1.252058,0.765802,1.369457,-2.094670
246.000000,0.002000,-2.613828,-0.369349,-0.379029,0.148186,-1.562162,1.724815,2.676028,0.356108,0.366415
247.000000,0.002000,-0.436502,-0.868925,0.670233,0.019094,1.913041,2.813702,2.618497,5.990267,-4.580651
248.000000,0.002000,-1.508122,0.707008,-0.038795,0.446695,-2.508123,0.206392,4.885386,-2.359630,0.036578
249.000000,0.002000,-0.534452,-0.703443,-0.547602,1.942762,-1.398188,0.065934,5.190246,6.077409,5.017792
250.000000,0.002000,0.374948,-0.807590,0.545311,-1.256269,3.079930,-0.268635,-3.383540,7.038129,-4.795981
251.000000,0.002000,0.121081,0.052239,0.666844,-1.871764,3.772772,-1.342594,-2.446904,-1.010029,-12.559896
252.000000,0.002000,0.770936,0.159852,0.283969,-3.386637,0.187364,-1.676979,-11.855513,-2.074905,-4.542396
253.000000,0.002000,0.752559,-0.205727,-0.058576,-1.862884,1.814803,-0.158328,-11.907937,3.009681,-0.086554
254.000000,0.002000,-1.250414,-0.084473,0.230496,2.100827,0.846726,-0.303055,7.492494,0.080931,-0.922778
255.000000,0.002000,-0.216215,-0.303614,-0.255462,-1.618885,1.046400,-1.602866,8.164838,9.606958,8.371051
256.000000,0.002000,0.158590,0.239697,0.161942,2.825188,-0.590374,-0.696924,-9.698798,-9.501542,-6.981375
257.000000,0.002000,2.714643,-0.095033,-0.559288,0.624177,0.272584,0.060909,-2.420188,0.071375,0.440250
258.000000,0.002000,0.646146,0.119629,-0.004541,-0.914638,2.530206,-0.707029,-13.304936,-1.733639,1.262516
259.000000,0.002000,0.734357,-0.391223,0.502018,0.906800,3.855592,0.186949,-8.083867,4.689217,-4.687234
260.000000,0.002000,1.251115,-2.801949,-0.178369,2.396030,-1.180194,-0.131006,-0.841983,1.820568,0.118384
261.000000,0.002000,1.264460,-0.947108,-0.274417,-1.731657,-1.938291,-1.527781,-4.297992,3.229958,0.834868
262.000000,0.002000,-0.196750,0.406748,0.420230,3.385098,-1.301135,-0.781957,3.297252,-8.462057,-8.190965
263.000000,0.002000,0.168641,0.017094,-0.086317,-1.979801,-1.263078,3.808161,-12.824807,1.368848,5.517973
264.000000,0.002000,0.010240,0.293928,-0.096463,0.410031,1.409378,1.210242,3.470605,-18.110497,5.864280
265.000000,0.002000,-0.179444,1.439847,0.651738,1.559971,-1.161444,2.346042,0.491635,-5.205141,-2.289636
266.000000,0.002000,-0.946469,0.650102,-0.995392,0.856984,0.494522,1.179485,3.562744,-2.313088,3.872687
267.000000,0.002000,0.957844,-0.352354,0.300272,1.201087,1.749344,-3.061741,-7.906266,3.671075,-2.744353
268.000000,0.002000,0.424282,0.327226,-0.772146,-1.839804,0.124802,1.054915,-4.175468,-3.591624,9.436232
269.000000,0.002000,0.849081,0.581245,0.190753,-1.709354,-0.626388,-1.043779,-8.141979,-5.067667,-1.659463
270.000000,0.002000,-0.329021,-0.692493,0.218826,0.019186,3.599260,0.191287,4.758914,10.353488,-3.046307
271.000000,0.002000,-0.771555,-0.044563,1.006170,0.532955,-1.422523,-1.407860,4.139403,0.088229,-6.090525
272.000000,0.002000,0.108038,-0.279820,1.366388,1.311114,-1.113049,-2.071586,-0.914402,1.271168,-6.564709
273.000000,0.002000,0.189081,-0.531645,0.212541,1.296385,-3.592815,1.864307,-5.204415,13.921056,-6.224467
274.000000,0.002000,-0.087863,0.084769,0.073683,0.498700,-0.745571,-0.596855,5.445059,-6.949617,-7.623332
275.000000,0.002000,-0.994625,-0.097543,-0.043250,1.574826,1.259740,1.544006,9.770812,0.840239,0.734920
276.000000,0.002000,0.089451,-0.150496,1.876181,-0.485063,-0.797053,-1.705816,-0.246886,0.376485,-4.527791
277.000000,0.002000,0.686965,-0.703544,1.012060,-2.142223,0.411961,0.206380,-2.901843,3.408323,-4.917415
278.000000,0.002000,-0.301193,0.405537,-0.274596,-2.362732,-1.047008,0.998541,10.355184,-10.657538,7.110483
279.000000,0.002000,-0.240443,1.165548,-0.723211,-0.321038,-0.778155,1.169981,0.777930,-5.731298,3.659741
280.000000,0.002000,0.512187,0.468253,-0.165374,0.265818,-1.773502,-0.716595,-10.555011,-9.263592,3.160906
281.000000,0.002000,-1.117160,-0.347978,0.500119,-1.088260,0.736049,-1.940074,6.463956,2.425007,-3.252137
282.000000,0.002000,1.627761,0.971591,-0.037557,-1.892765,0.461865,0.328755,-3.934039,-2.417276,0.262431
283.000000,0.002000,0.510923,0.394715,-0.142982,-2.392236,1.105733,2.000121,-14.869041,-9.249900,1.810076
284.000000,0.002000,0.159686,-2.468694,-1.324329,0.221861,0.725965,0.038301,-0.163860,2.089937,1.152168
285.000000,0.002000,-2.033425,-1.292109,-1.185128,-2.224352,0.678714,0.197866,1.991046,1.268734,1.194327
286.000000,0.002000,-0.685567,-0.258935,-0.007458,1.059109,3.758470,0.961159,13.786159,5.078473,2.328161
287.000000,0.002000,-0.128130,0.022359,0.242753,1.711924,-0.081769,-3.828931,9.387618,-1.992209,-13.295952
288.000000,0.002000,0.135844,0.693911,0.633487,-0.596025,-0.254099,-0.731385,-1.585920,-7.309001,-6.653463
289.000000,0.002000,0.335640,0.592778,-0.639363,-0.868197,2.188192,0.726968,-3.915786,-6.872905,8.109545
290.000000,0.002000,0.917651,-0.295654,0.320465,-0.311939,2.773712,-1.708089,-8.085557,3.242005,-3.213739
291.000000,0.002000,0.141018,-0.556075,-0.171012,-2.889522,1.966441,0.736534,-2.642608,6.637171,3.948388
292.000000,0.002000,-0.867107,-0.171135,-0.311165,1.624541,-1.548688,2.245149,9.422494,1.694684,3.815483
293.000000,0.002000,-0.072594,-0.485290,0.013079,0.625697,3.091016,-0.095877,2.094484,16.796272,-0.821945
294.000000,0.002000,-1.010339,0.433691,-0.336825,2.561646,-2.227008,1.385189,10.317851,-7.549078,-2.643938
295.000000,0.002000,0.421949,0.555040,-0.156666,-0.559816,-0.017415,2.340087,-7.133921,-11.062227,3.166048
296.000000,0.002000,-0.511102,0.679591,-0.398226,1.680490,-1.826526,1.080523,5.037665,-7.002839,4.673459
297.000000,0.002000,-0.313446,-0.346236,-0.963165,-0.779898,1.615256,1.177882,2.596755,2.313773,8.243422
298.000000,0.002000,-0.188804,-0.067742,0.742138,-1.048837,-2.564182,-0.345155,3.397312,-0.507707,-10.229110
299.000000,0.002000,-1.913003,1.831873,-1.784384,-0.450109,-0.671454,-1.228170,1.134841,-1.108645,1.112708
300.000000,0.002000,-1.252332,2.772244,-0.266181,0.753319,-0.243864,0.291098,0.859681,-1.868486,0.181791
301.000000,0.002000,-0.599126,-0.054456,0.306362,3.424529,1.589819,-0.959592,11.019653,0.939990,-6.660315
302.000000,0.002000,0.157692,0.015264,1.902616,-0.211827,1.634331,-0.966487,-0.418820,-0.018556,-4.415439
303.000000,0.002000,-1.126242,-1.799921,0.906164,-0.542284,-0.212376,-0.533498,1.656998,2.665119,-1.178604
304.000000,0.002000,0.796068,-1.082615,-1.646293,-1.361189,0.027927,0.411193,-1.448256,1.868549,3.004473
305.000000,0.002000,2.444406,-2.263542,-1.186201,2.013160,0.024324,0.267623,-1.081040,0.998934,0.501123
306.000000,0.002000,0.365673,0.553913,-0.051429,-2.753475,-0.451687,0.619153,-7.974111,-11.918118,1.977897
307.000000,0.002000,0.062238,-1.357075,-1.304393,-0.596834,-1.275811,1.140729,-0.108106,3.267274,3.231989
308.000000,0.002000,0.933739,1.381584,1.296912,-1.215271,-0.738399,1.222446,-1.712693,-2.459776,-2.574727
309.000000,0.002000,0.635619,2.125204,-0.462827,0.797204,-1.244082,-0.140579,-0.971413,-3.030205,0.777852
310.000000,0.002000,-0.101984,-0.038990,0.057009,0.775697,-0.789506,-4.524241,3.727786,2.209294,-5.134616
311.000000,0.002000,1.096348,-0.043765,0.881428,-2.170914,0.501229,0.195227,-5.234881,0.339456,-4.152645
312.000000,0.002000,-0.214953,-0.174643,0.029247,4.013578,1.117922,2.021301,4.434137,7.639365,-3.955901
313.000000,0.002000,-0.449341,1.239878,0.161472,1.482226,-2.148468,1.731916,2.048118,-6.866036,-1.117460
314.000000,0.002000,0.416484,0.105771,0.088978,0.725798,-1.019805,-3.720914,-13.725309,-2.420055,-3.171214
315.000000,0.002000,0.823004,1.560173,-0.998208,0.229313,-2.874896,-1.206427,-1.650562,-3.138703,1.950343
316.000000,0.002000,0.579373,0.468062,0.643359,-0.353400,-0.372903,-2.841949,-5.154913,-4.773335,-6.537183
317.000000,0.002000,0.034420,-0.591115,-0.508263,-1.291468,0.303583,2.487493,-2.218314,9.192710,8.051036
318.000000,0.002000,0.370456,0.945879,-0.039074,-0.329712,-2.651121,0.969207,-3.698813,-9.464053,0.678943
319.000000,0.002000,-0.192105,0.137853,-0.027126,-0.916209,-1.220469,-3.149022,9.148201,-11.678658,-1.354658
320.000000,0.002000,-2.403999,1.995615,-1.096495,-2.308235,-1.015371,0.533831,1.310917,-1.159658,0.633300
321.000000,0.002000,-0.467108,0.559389,0.462862,0.743498,-2.238171,-0.752296,5.632679,-7.514869,-6.067354
322.000000,0.002000,-0.280484,-0.115619,-0.129513,-1.695665,2.242467,0.854174,12.520985,6.617144,6.619818
323.000000,0.002000,-0.361704,1.932742,0.996333,-0.498188,-0.371883,0.032166,0.540847,-3.216492,-1.623857
324.000000,0.002000,0.567673,-0.181379,-0.596563,-2.150865,1.807631,-2.152701,-7.699010,2.887522,8.286864
325.000000,0.002000,0.646375,1.128416,1.530704,0.451186,-1.012518,-1.638873,-1.378576,-2.230166,-3.183789
326.000000,0.002000,-0.532559,-0.208099,0.091184,1.520506,1.485990,1.983474,13.101164,6.310490,-2.959322
327.000000,0.002000,0.687633,0.185560,0.506088,0.008858,1.065437,-1.296378,-6.221876,-1.464784,-7.661105
328.000000,0.002000,-0.814653,-0.136657,0.922275,-0.276801,0.688513,-1.819111,5.297301,1.368678,-6.517634
329.000000,0.002000,-0.866884,0.503986,0.172073,1.829089,-0.790461,1.062810,8.884362,-4.833259,-0.933143
330.000000,0.002000,-0.097934,-0.508171,0.068937,-2.264044,-2.426124,0.788431,2.482856,16.143394,-3.401789
331.000000,0.002000,0.127034,-0.100833,-0.337508,-1.309527,-0.280683,3.024385,-5.166552,4.888506,15.393953
332.000000,0.002000,-0.252969,0.410976,-0.069571,-0.057121,-1.813648,-0.925424,9.815503,-13.711961,3.480211
333.000000,0.002000,-0.234584,0.299425,0.014687,1.271124,-1.189773,3.293307,12.301549,-15.196726,-0.633958
334.000000,0.002000,-1.202069,-0.177698,1.292913,-0.520491,-1.311076,-0.460799,3.146553,0.648592,-3.737277
335.000000,0.002000,0.412500,0.283883,0.298152,0.369348,-0.714069,-1.320359,-11.746522,-7.035407,-9.490586
336.000000,0.002000,0.353485,0.464080,-1.565043,0.004959,-0.473856,1.634032,-1.065288,-1.535374,4.932999
337.000000,0.002000,-0.194560,0.074966,0.072258,1.015711,-0.936597,2.896369,11.817786,-3.854328,-7.691626
338.000000,0.002000,0.886281,-0.013442,1.267696,-2.139035,-0.293907,-1.487277,-3.382560,0.293411,-4.827124
339.000000,0.002000,-0.105782,-0.361028,-0.771099,1.881189,2.272814,-0.357786,1.261331,4.216262,10.090398
340.000000,0.002000,-0.592003,-0.346886,-0.180515,3.872074,-0.386461,-0.083212,10.407130,5.965049,5.110839
341.000000,0.002000,0.949986,0.205333,-0.181301,-1.854005,-1.301182,0.881181,-9.152246,-1.497424,1.890643
342.000000,0.002000,-1.673161,1.376722,-0.076227,-0.250787,-1.283716,1.344856,2.842232,-2.394670,0.097006
343.000000,0.002000,-1.125802,-1.769580,1.026918,0.393515,-0.441961,-0.634883,1.604006,2.483508,-1.561570
344.000000,0.002000,0.288192,-0.857043,0.194217,1.284256,1.811005,-0.439028,-3.732341,9.715093,-2.409700
345.000000,0.002000,0.435312,-0.003392,0.453776,-0.039803,1.928574,-2.410269,-10.383177,1.689344,-10.026987
346.000000,0.002000,-0.130926,0.128806,0.386503,-2.466478,-2.499168,-2.757739,7.865980,-4.140729,-12.968917
347.000000,0.002000,1.174690,-0.902374,1.016317,0.700961,2.117617,-1.804627,-3.116873,2.349887,-2.642985
348.000000,0.002000,-0.156602,1.286216,1.374941,-0.833885,0.281266,-0.604895,0.263283,-3.053590,-3.317800
349.000000,0.002000,0.291181,-0.138948,0.025056,-4.220918,-0.772505,-1.276434,-14.683027,8.983398,-0.856272
350.000000,0.002000,0.518325,0.263840,0.152396,0.491081,-0.495559,2.612488,-12.507422,-6.596100,-4.321839
351.000000,0.002000,-0.746721,-0.072504,1.062132,1.207728,1.883385,0.846393,3.800535,0.716354,-6.762967
352.000000,0.002000,0.793254,2.853201,-0.013835,-0.605631,-1.099381,-0.351329,-0.610646,-2.126822,0.017237
353.000000,0.002000,-1.121058,2.512944,-0.840461,0.793917,1.396438,-0.686143,0.928779,-2.016779,0.660091
354.000000,0.002000,-1.207115,-0.048365,-0.320701,0.509728,-0.461531,2.364195,7.231963,0.257630,2.025546
355.000000,0.002000,-0.001204,0.810487,-0.350729,-0.536445,-0.384312,0.047255,0.433617,-10.493765,4.467233
356.000000,0.002000,-0.342163,0.737763,0.588244,-0.772358,-0.282375,-0.411815,3.741519,-6.965187,-5.737484
357.000000,0.002000,0.068434,-0.206426,0.094974,-1.604284,-0.526092,2.960014,-5.878496,12.929710,-7.481589
358.000000,0.002000,-0.719086,0.083479,-0.711495,2.386938,0.063096,2.488337,6.619548,-0.991456,7.107473
359.000000,0.002000,0.342797,-0.125238,1.894090,0.123372,-2.005429,0.856654,-0.927413,0.346866,-4.218533
360.000000,0.002000,0.015375,-0.050262,0.083002,2.989928,2.711223,-1.629056,-3.342501,3.490820,-10.765213
361.000000,0.002000,-0.069042,0.342729,0.438357,1.087082,0.474114,-2.451770,2.773230,-7.745753,-12.451655
362.000000,0.002000,-0.684643,0.444762,-0.753449,1.673518,1.035772,1.367162,4.113468,-4.545177,5.706152
363.000000,0.002000,-0.594582,-0.194686,0.459167,2.311543,1.896811,-1.524310,8.602159,2.286279,-7.250499
364.000000,0.002000,0.131456,-0.471656,-0.186916,-0.553983,2.797767,0.634777,-5.688727,13.232327,5.206609
365.000000,0.002000,-1.325857,0.322861,2.583915,0.874834,1.774308,0.123485,1.056627,-0.245291,-2.050300
366.000000,0.002000,0.461396,-0.618141,0.218432,-0.424650,-1.120708,-0.119361,-8.396960,10.007081,-4.073392
367.000000,0.002000,-0.338053,-0.428532,-0.455692,-0.737284,-1.400147,3.129706,0.995177,8.244998,8.237038
368.000000,0.002000,-0.946966,1.134963,-0.157943,-0.887183,-1.990190,1.436879,4.022827,-4.836859,0.702471
369.000000,0.002000,-0.204564,0.287496,0.577290,1.770395,0.716081,-1.428197,5.966792,-2.879981,-15.421042
370.000000,0.002000,0.306572,0.696128,-0.356866,-1.191164,-2.884701,-1.052129,-3.581192,-10.743525,5.101487
371.000000,0.002000,-0.476877,0.649578,0.912417,-0.204969,-2.155601,-0.842262,3.587816,-4.285297,-5.898595
372.000000,0.002000,-1.724209,1.899510,1.480342,-0.070267,-1.446352,-0.780431,1.275285,-1.450937,-1.107284
373.000000,0.002000,-0.347044,-0.493884,0.624565,0.165476,-0.813627,-3.144039,4.109902,5.997104,-8.314246
374.000000,0.002000,-0.163720,-0.006798,1.089358,0.201845,-1.476581,-1.782313,1.652110,0.082228,-8.790671
375.000000,0.002000,-0.399952,-0.330911,-0.113238,2.804175,1.772659,-2.127716,11.642489,12.029137,3.757011
376.000000,0.002000,0.569308,1.097456,0.042655,-0.735476,-1.328608,0.371582,-3.556486,-7.291422,-0.211231
377.000000,0.002000,0.182913,-1.404165,-1.682528,0.780977,1.734290,-0.204936,-0.311593,2.284124,2.883444
378.000000,0.002000,-0.690962,0.372784,0.222029,0.158465,-2.145933,-1.497054,9.939376,-6.169750,-2.713312
379.000000,0.002000,0.386244,0.600870,0.323136,-0.100290,0.084948,-0.879208,-6.530730,-10.476530,-4.693370
380.000000,0.002000,-0.651290,0.227119,0.339973,0.050044,-3.507643,-0.581518,12.167759,-5.912198,-5.345697
381.000000,0.002000,-1.618051,-1.467074,1.458096,0.246395,0.108808,-0.542919,1.685805,1.517614,-1.519370
382.000000,0.002000,0.389789,-0.212938,0.196777,2.322084,-1.752347,0.067044,-13.829253,7.431517,-6.214993
383.000000,0.002000,-0.084366,0.021382,0.143057,0.455980,0.335905,-4.152394,8.019163,-0.820837,-14.250968
384.000000,0.002000,-0.218611,0.016904,-0.319013,0.842190,0.064886,4.292217,8.521509,-0.511169,13.726694
385.000000,0.002000,0.451418,-0.076008,-0.457100,-1.205115,-1.332175,0.133814,-8.970475,2.709358,9.847875
386.000000,0.002000,0.647507,0.167987,0.606492,-2.918543,0.034929,-0.521293,-7.666825,-1.392400,-7.106253
387.000000,0.002000,1.134571,-1.305716,-0.406345,-1.630416,1.226900,0.340876,-3.027823,3.502188,1.010166
388.000000,0.002000,0.633347,0.200150,-0.229117,-3.245348,-1.952338,-1.445762,-12.213108,-2.205601,4.339519
389.000000,0.002000,-0.070209,0.813685,0.581768,-1.809921,-0.343475,-3.170192,0.477903,-8.339559,-6.222354
390.000000,0.002000,-0.420627,-0.102839,0.105858,0.039420,-0.256490,-1.345441,12.268057,3.435224,-5.626996
391.000000,0.002000,-0.177938,0.382401,0.702883,-0.472689,2.611911,-2.123545,2.484540,-4.809942,-7.711691
392.000000,0.002000,-0.362308,0.705576,0.142375,0.249218,-3.767773,0.270291,6.467974,-9.815231,-1.516344
393.000000,0.002000,0.221077,0.635927,-0.328018,-1.105838,-0.837768,1.789067,-2.159228,-12.647279,6.454455
394.000000,0.002000,0.670506,1.549756,0.225473,-1.032476,-1.718990,0.316195,-2.151035,-4.730641,-0.871687
395.000000,0.002000,-0.292119,0.283080,0.292849,1.569041,0.239711,4.509900,8.079392,-7.297063,-8.909781
396.000000,0.002000,0.042229,-0.131150,0.308202,0.253121,-0.434874,-3.586973,0.972476,3.817483,-13.551705
397.000000,0.002000,0.275751,0.520393,-0.541797,-2.392255,0.677876,1.039292,-3.836412,-7.592068,9.016166
398.000000,0.002000,0.572996,0.386293,-0.296447,-2.883712,0.303981,1.180824,-11.278198,-6.728969,4.792361
399.000000,0.002000,0.278541,0.397791,0.019385,-3.636130,-2.772851,0.075545,-9.458695,-13.676158,-2.573314
400.000000,0.002000,-0.777771,-0.674596,0.069311,0.708453,3.622787,-1.161626,7.674463,6.507856,-0.802934
401.000000,0.002000,-1.073492,-1.037330,0.127905,0.470666,2.530978,-2.814724,4.819862,4.974610,-0.127389
402.000000,0.002000,0.863865,-0.779000,-1.008556,-0.507885,1.362264,1.230723,-3.708391,3.295543,3.122843
403.000000,0.002000,-0.322451,-0.257644,-0.358525,-1.717764,3.017330,-2.758972,9.053362,6.453311,12.081580
404.000000,0.002000,-0.204199,0.078846,-1.016713,-1.475990,-1.466024,-0.571059,2.129537,-1.364983,9.586860
405.000000,0.002000,-0.428091,-0.127054,0.092781,0.645908,-2.168341,1.366452,13.518427,7.368405,-2.982833
406.000000,0.002000,-0.644554,-0.213209,0.069350,0.644401,-1.690452,-1.827441,12.463907,5.207023,-2.055624
407.000000,0.002000,-0.083212,-0.680553,0.532890,2.724130,1.208021,-0.711751,0.440749,9.699812,-7.070238
408.000000,0.002000,0.552085,0.858975,-0.373834,1.185539,-3.211523,0.641440,-4.828185,-7.437939,3.404339
409.000000,0.002000,-0.370789,0.247593,0.114624,1.477120,-2.679673,-0.959938,13.784735,-9.445195,-4.536161
410.000000,0.002000,0.349419,0.108406,0.216730,-0.323077,2.237025,-1.742120,-10.770899,-2.161069,-7.137053
411.000000,0.002000,-0.054401,-0.371236,-0.237750,-2.804971,-0.530893,2.640844,1.774054,11.212440,6.519569
412.000000,0.002000,0.850350,-0.391052,-0.718849,-2.488878,2.327434,2.296755,-5.778664,2.533071,5.106029
413.000000,0.002000,0.771611,0.883070,-0.288056,-1.630013,0.012596,1.058883,-5.173080,-5.778426,2.377785
414.000000,0.002000,-1.032381,0.590271,-0.606340,1.037261,-3.853967,-0.825667,5.074323,-3.353990,3.055003
415.000000,0.002000,0.134074,0.156951,0.424757,-1.746715,-1.026389,-2.079550,-3.259502,-0.338242,-13.849577
416.000000,0.002000,-0.732664,-0.586765,-0.261410,-0.876036,-1.714725,1.554750,7.839808,5.479843,2.813172
417.000000,0.002000,-0.222369,-1.186462,-0.432895,0.390244,2.437629,1.129292,1.359445,7.776507,2.605646
418.000000,0.002000,-0.633540,0.263784,0.147728,-0.207790,-2.774608,-1.680740,11.215441,-4.729485,-1.699472
419.000000,0.002000,-1.262739,-0.479771,-1.810760,-1.182867,1.555077,2.350006,1.938047,0.721690,2.819991
420.000000,0.002000,0.896175,-0.069773,-0.644829,-1.991153,1.217099,0.585283,-7.282386,0.902683,5.267990
421.000000,0.002000,0.038168,0.390670,0.043829,-0.725025,2.940824,1.163523,-1.056041,-17.560792,-1.684870
422.000000,0.002000,1.133129,1.010357,0.539191,-2.552681,0.191007,-0.026688,-4.005816,-3.657272,-1.897582
423.000000,0.002000,-1.531354,1.729580,-0.672481,0.545283,-1.426883,1.510551,1.982596,-2.187370,0.862529
424.000000,0.002000,1.348512,-2.093725,1.113442,-1.319225,0.512068,-0.769703,-1.289100,1.886077,-1.056715
425.000000,0.002000,1.571264,-1.333905,1.358167,-0.730224,-0.322434,1.098478,-1.878130,2.096332,-1.717840
426.000000,0.002000,-0.213428,-1.202586,-0.113881,-1.292466,0.924094,2.872731,1.408796,8.113344,0.425863
427.000000,0.002000,-0.750637,-0.075670,0.281879,2.957481,-1.205611,0.136562,11.393552,0.989772,-4.380719
428.000000,0.002000,-0.069840,0.505314,0.292944,1.317378,-2.677101,-1.655007,1.896002,-11.712430,-7.820369
429.000000,0.002000,-0.851354,-0.103967,0.414841,1.472332,2.675550,-1.086623,8.972267,1.304703,-4.874517
430.000000,0.002000,-0.504149,0.078884,0.411448,1.295795,-0.285306,-3.738639,10.262899,-0.462291,-9.746228
431.000000,0.002000,0.029430,0.249163,0.138212,-1.780397,1.962943,-1.530786,-1.742122,-12.125034,-7.215865
432.000000,0.002000,0.012717,0.729375,-0.728969,1.976248,-2.831154,0.787391,1.251650,-8.554964,8.782155
433.000000,0.002000,-0.112101,-0.069628,0.186421,-0.106920,-0.419813,-1.835323,8.527313,6.457720,-16.607228
434.000000,0.002000,-2.166726,-1.493659,-0.585717,0.260739,0.369980,-0.070690,1.955754,1.480060,0.363344
435.000000,0.002000,-0.071085,0.374022,0.183843,-0.898843,-0.961527,2.470140,3.610251,-14.851856,-5.382633
436.000000,0.002000,-0.712577,-0.641898,0.004034,2.723890,0.657022,1.087438,7.795130,6.990253,-0.129659
437.000000,0.002000,-0.368467,-0.497965,-0.144832,-0.893333,1.790609,-1.651060,7.706873,10.387257,3.464568
438.000000,0.002000,0.094147,0.101657,-0.073177,1.640333,0.080730,2.000287,-8.712719,-6.963489,6.756261
439.000000,0.002000,-0.404215,0.656846,-0.548469,1.517707,-1.187188,1.673926,4.210868,-6.834769,6.073648
440.000000,0.002000,0.193409,0.161074,0.090252,0.595725,-0.378568,3.730832,-12.755752,-7.163172,-6.860764
441.000000,0.002000,-0.673349,0.250373,0.278633,1.502578,1.616239,0.901569,11.483475,-4.501297,-4.262035
442.000000,0.002000,-0.264268,-0.117492,-0.009463,1.135968,2.851977,0.634818,16.507976,6.424580,-0.276490
443.000000,0.002000,-0.546436,-0.915059,0.603594,-3.131419,-0.330208,-2.206050,3.483111,5.985739,-3.850304
444.000000,0.002000,0.619587,1.218219,-0.997742,0.011771,-0.296394,0.503259,-1.875865,-3.634843,2.965105
445.000000,0.002000,0.283034,0.069563,-0.284491,-1.202486,-0.578407,2.234001,-13.007364,-3.448387,10.125158
446.000000,0.002000,-1.273099,-0.372216,0.388229,0.329770,2.561904,-2.492703,6.595785,2.151224,-1.853828
447.000000,0.002000,-0.611171,1.376983,-0.617354,1.181762,-1.111696,0.222945,1.836577,-4.776777,2.210095
448.000000,0.002000,-1.170614,0.226921,0.262095,1.197455,-1.264393,1.577863,7.019839,-0.984199,-4.189650
449.000000,0.002000,0.224927,-0.402458,0.034678,-2.042067,1.764152,-1.529899,-5.582026,14.598531,-0.980283
450.000000,0.002000,-0.495218,0.122929,-0.301922,2.885687,-2.116305,-0.850615,10.856821,-4.509171,8.019598
451.000000,0.002000,-0.773737,2.551067,0.329280,0.456591,-0.827511,-0.463512,0.737254,-2.451367,-0.308329
452.000000,0.002000,1.098675,1.509008,-0.041823,-2.689691,-0.925083,0.312848,-2.803842,-3.665881,0.233693
453.000000,0.002000,0.144664,-0.197788,-0.857457,0.794346,0.554926,3.430990,-1.832790,1.748480,10.071939
454.000000,0.002000,-0.477053,-0.188657,0.882951,1.143082,-0.622181,-2.744457,4.416210,1.795544,-8.297202
455.000000,0.002000,-0.737368,0.566418,-0.855963,0.856223,-1.310965,1.791612,4.001955,-3.674438,5.284222
456.000000,0.002000,-0.545223,0.197504,-0.499289,2.006896,1.041852,-0.459342,8.259176,-3.667360,8.244939
457.000000,0.002000,0.452615,0.463837,0.930503,-0.646722,-1.806361,-1.165780,-3.054731,-3.164989,-7.439933
458.000000,0.002000,-0.382326,1.120969,1.317860,-0.956065,0.500819,-1.602471,0.882500,-3.180029,-3.847691
459.000000,0.002000,-0.124008,0.313073,-1.227450,0.869626,-1.229920,2.419220,0.898125,-1.799293,7.164382
460.000000,0.002000,0.744814,0.507113,-0.121301,-1.381980,0.945827,0.024515,-9.146365,-6.083493,1.551896
461.000000,0.002000,0.387617,0.423829,1.427074,-1.723691,0.124495,-0.396444,-1.693257,-1.589609,-5.609403
462.000000,0.002000,1.189179,0.722966,0.657898,-1.579541,0.047016,-1.543788,-4.643892,-2.737295,-2.676145
463.000000,0.002000,-0.506765,-0.156370,-0.311677,1.471486,0.178457,1.860668,12.901858,2.441495,6.855104
464.000000,0.002000,0.309841,0.017745,-0.216065,-3.091324,-1.096332,1.659400,-13.288377,0.078516,8.155966
465.000000,0.002000,-0.374725,-0.127297,-0.093563,0.833145,-3.004809,0.563229,15.106590,4.084190,3.026386
466.000000,0.002000,-0.653413,0.466362,-1.899166,0.873111,0.350800,1.092065,1.255933,-0.906061,3.610369
467.000000,0.002000,-0.113500,-0.184688,-0.069093,-2.117724,1.945309,1.833950,6.736470,13.311662,3.678186
468.000000,0.002000,0.019315,-0.058969,0.691240,-1.853376,2.811418,-3.846425,-0.730730,1.327955,-13.098878
469.000000,0.002000,-0.508985,-0.108700,0.323775,1.382577,1.346916,-2.751496,11.059116,3.148299,-8.685611
470.000000,0.002000,0.304964,1.764868,0.158203,-0.880234,-2.220074,0.595714,-0.930538,-5.159483,-0.222819
471.000000,0.002000,0.335338,-0.439659,-0.379938,-0.091216,3.551633,0.961601,-7.595680,8.337515,7.592190
472.000000,0.002000,-0.806435,-0.479013,-2.355418,0.157924,0.121827,-0.166947,0.909739,0.539721,2.708399
473.000000,0.002000,1.152507,-1.464507,-3.037380,-1.024007,0.105457,-0.005566,-0.511796,0.661366,1.335523
474.000000,0.002000,-0.212232,0.889306,-0.701358,2.341369,1.721135,2.134734,1.131006,-6.273328,5.166300
475.000000,0.002000,0.585124,0.399434,-0.490339,-2.803147,0.184103,0.018912,-9.864521,-6.242137,6.223342
476.000000,0.002000,0.135124,-0.271056,0.017348,-2.323148,0.132152,-2.937794,-9.028108,12.969054,-2.498129
477.000000,0.002000,-0.603929,-0.829845,1.635982,1.429470,0.099667,0.629774,1.303500,1.942806,-3.681363
478.000000,0.002000,-0.945868,-1.800737,0.358590,3.236203,0.045739,-0.395994,1.834877,3.614307,-0.575821
479.000000,0.002000,0.279880,0.616643,-0.571396,1.234164,-2.493752,-1.561994,-2.698596,-7.384545,9.011585
480.000000,0.002000,-0.614059,-0.763849,1.275697,1.603770,-1.592022,-1.086652,2.110200,2.856651,-4.181029
481.000000,0.002000,0.177788,0.454123,-0.413759,-0.966931,1.892259,-1.522501,-5.137663,-7.650564,10.247336
482.000000,0.002000,-0.079600,-0.081395,-0.192650,-2.001294,-1.150750,-1.659156,6.205591,6.538907,10.084379
483.000000,0.002000,-2.236099,1.008309,1.373410,1.758310,0.012717,-1.026542,1.928415,-0.916528,-1.219465
484.000000,0.002000,0.636540,1.033043,-0.285978,-0.837239,-0.036487,-1.702077,-3.958640,-6.493054,2.015869
485.000000,0.002000,-0.023693,0.360068,0.490258,-0.966897,-2.201860,-0.836577,1.248103,-8.975171,-11.895382
486.000000,0.002000,-0.969342,-0.233161,-1.873650,0.193961,1.568189,-0.480029,1.736460,0.354883,3.377128
487.000000,0.002000,-0.853798,-0.601371,0.775798,1.723031,1.450945,-2.517412,4.615202,3.796212,-4.245650
488.000000,0.002000,0.288314,-0.520815,0.445925,-2.023428,1.828146,0.538855,-5.423747,9.226903,-8.506451
489.000000,0.002000,-0.346965,0.577837,0.385124,0.240574,1.202834,-0.895818,6.440654,-8.923693,-5.286249
490.000000,0.002000,0.186963,-0.192318,-0.065200,-2.996019,0.570341,-0.937648,-12.343967,10.853348,4.911469
491.000000,0.002000,0.015911,-0.190019,-0.247329,-3.046037,1.315027,-0.107844,-3.514501,4.055590,14.397051
492.000000,0.002000,-0.125020,0.091604,0.301787,1.670032,-0.155665,-0.370613,4.786269,-2.832604,-14.603289
493.000000,0.002000,-0.337334,0.173676,0.548666,1.568534,-0.553285,-1.846888,7.506905,-2.813525,-11.122330
494.000000,0.002000,0.167146,-0.450374,-0.185502,-0.973622,-0.762497,2.743590,-8.186082,12.102857,5.621848
495.000000,0.002000,-0.538672,0.527376,0.550844,2.371920,-0.757954,-1.338709,6.231404,-6.439339,-7.448492
496.000000,0.002000,0.184192,0.629716,0.515450,-0.149637,-2.754303,-1.895083,-3.383554,-8.568681,-8.034405
497.000000,0.002000,1.389684,-0.433148,-1.177730,-2.984712,-0.219635,0.248854,-3.353733,0.941537,2.819015
498.000000,0.002000,-0.296072,0.334718,-0.394258,2.535707,0.966253,-0.654678,7.106777,-7.906198,10.896458
499.000000,0.002000,-1.275887,0.123056,-0.496024,2.734057,-2.407501,-0.054121,5.683266,-0.748707,2.714611
500.000000,0.002000,0.618188,0.484996,0.422949,-0.141288,2.597777,-0.140808,-7.518683,-5.435334,-5.274179
501.000000,0.002000,-0.244724,0.076880,0.572726,0.270749,0.255431,-1.729304,5.008531,-2.870016,-12.447941
502.000000,0.002000,-0.216411,-0.005436,0.279004,1.868398,2.396847,-2.121795,7.798459,-0.246976,-12.978252
503.000000,0.002000,0.194591,-0.261820,1.016539,-0.249959,-0.457426,-1.913032,-2.585713,0.628140,-11.272007
504.000000,0.002000,0.626048,-0.477127,0.309677,2.087123,2.002193,-3.042754,-9.041942,6.274386,-4.191240
505.000000,0.002000,-1.637654,-1.557118,0.186143,0.455372,0.234062,-1.216536,2.444264,2.436775,-0.193683
506.000000,0.002000,1.153340,-0.127612,-0.098678,-0.340000,-0.222095,0.125699,-8.159462,1.119225,0.566311
507.000000,0.002000,-0.246881,0.109298,-0.213982,0.743756,-0.233111,-3.583176,12.114670,-7.834002,13.338471
508.000000,0.002000,0.214293,1.256636,1.141630,0.980963,1.665134,-2.306953,-0.618962,-3.850771,-3.522346
509.000000,0.002000,0.566593,2.324135,0.340622,0.770219,-0.749823,0.651301,-0.831277,-2.965905,-0.490491
510.000000,0.002000,-0.001170,-2.375575,0.260255,-2.516779,-0.291767,0.102105,0.025500,3.154876,-0.239140
511.000000,0.002000,-0.766913,1.318748,-0.525137,2.072452,-0.131707,1.705467,2.748993,-4.673472,1.811436
512.000000,0.002000,0.177119,-0.486006,0.204147,-1.290948,1.711338,2.701455,-5.261911,12.415148,-6.802772
513.000000,0.002000,-0.974319,0.427498,2.869645,1.380192,1.543856,1.238810,0.624031,-0.295605,-1.984151
514.000000,0.002000,-0.386822,-0.253355,0.145537,1.785524,-1.926400,-0.173201,11.828117,8.951069,-4.379502
515.000000,0.002000,-0.131320,-0.253842,-1.081671,-1.923219,3.674986,0.279922,-4.668395,1.274827,11.350255
516.000000,0.002000,0.317984,-0.679137,-0.331586,-2.522689,0.898690,0.238612,-3.998917,13.358819,6.006170
517.000000,0.002000,-0.016249,0.158158,0.306694,1.163352,-3.555185,-1.585124,-0.836637,-5.916905,-16.628963
518.000000,0.002000,0.193568,0.133869,-0.015557,-1.120904,-2.468660,-1.790962,-15.458829,-7.078428,1.479018
519.000000,0.002000,0.085221,1.241728,-0.599420,-0.302395,-1.995519,-0.371519,-0.446210,-6.051628,2.913477
520.000000,0.002000,0.717227,0.816041,0.059344,-0.869792,1.415864,-0.356887,-6.052293,-6.564119,-0.364137
521.000000,0.002000,1.737844,-0.855469,-0.226151,-0.750051,0.124747,1.789041,-3.774516,1.915605,0.471694
522.000000,0.002000,-0.646223,0.344390,0.224475,-1.809908,-0.062256,-0.896607,9.695288,-5.992759,-3.894363
523.000000,0.002000,0.401946,-0.062566,0.056641,-0.853923,0.061191,-2.781375,-15.228905,4.554624,-2.931630
524.000000,0.002000,-0.240898,-0.572036,0.253796,2.067928,2.691052,-0.294674,5.402253,9.771129,-3.554498
525.000000,0.002000,-2.162485,-1.381313,1.278447,-0.441496,0.324377,-1.339719,1.773631,1.149850,-1.055967
526.000000,0.002000,-0.244952,0.327446,0.191628,-1.493393,-0.519351,-3.750984,8.590418,-10.035585,-7.086045
527.000000,0.002000,-0.734479,-0.892467,-0.357062,1.811322,0.294534,-1.535192,4.941328,6.326997,2.394804
528.000000,0.002000,1.140457,-0.144701,-1.183718,-0.233206,-1.133404,3.206303,-3.708572,0.236993,3.886331
529.000000,0.002000,-0.561028,0.273955,-0.581910,2.136910,-1.193376,0.781846,7.049259,-3.517223,8.009118
530.000000,0.002000,2.591336,0.802266,0.496878,-0.602967,-0.417364,-0.222582,-2.423941,-0.731665,-0.384176
531.000000,0.002000,0.018617,0.010417,-0.522459,3.184118,0.139705,0.469920,-0.830600,0.165749,18.145919
532.000000,0.002000,0.790172,1.021868,0.954627,-1.250727,-0.615755,-1.011773,-2.534062,-3.457260,-3.934930
533.000000,0.002000,-0.886257,1.314869,-1.336333,0.448247,-0.812954,0.725601,1.527669,-2.457231,2.512963
534.000000,0.002000,0.222994,0.468935,0.441818,0.965605,-1.796944,-0.203935,-5.728231,-8.071535,-8.149726
535.000000,0.002000,-1.473366,-0.528623,-0.757422,0.256655,0.932502,2.060455,5.009224,1.800368,2.615829
536.000000,0.002000,-0.049407,-0.280709,0.030734,-1.877141,-2.798180,-0.091435,3.241060,14.193354,-3.655781
537.000000,0.002000,-0.385701,-0.921823,0.812394,0.473372,2.102994,-1.049083,2.003683,5.365463,-4.685891
538.000000,0.002000,1.903485,-3.144772,-0.771485,-0.790485,-1.883526,0.601186,-0.712404,1.154212,0.277128
539.000000,0.002000,-0.451034,-0.375574,0.357074,1.885188,1.573497,-0.732295,8.370201,6.815142,-7.018223
540.000000,0.002000,1.665166,0.891218,0.335831,-0.923467,-0.760295,-0.559508,-3.972813,-2.095192,-0.828960
541.000000,0.002000,0.011774,-0.000346,-0.291746,1.708243,2.684435,3.012354,-2.864892,-3.561238,14.908667
542.000000,0.002000,1.112092,0.461935,-0.319891,-2.275871,0.478851,0.702702,-6.601437,-2.522419,2.430719
543.000000,0.002000,-0.611635,0.065418,-0.601304,0.331388,-1.806402,2.813336,8.999557,0.892235,7.975235
544.000000,0.002000,2.117163,-0.106364,-0.564187,0.085038,-0.455104,-0.306774,-3.384537,0.215053,0.826297
545.000000,0.002000,0.490016,-0.789879,-0.128797,-1.464817,-0.349091,0.913703,-5.972738,8.693859,1.279799
546.000000,0.002000,-0.160360,0.141198,-0.045955,1.260988,2.320234,-2.095478,7.420499,-12.654428,0.021538
547.000000,0.002000,-0.570599,-0.122660,-0.366307,1.765234,2.431779,-0.105763,11.251162,2.198575,6.928409
548.000000,0.002000,0.856032,-0.198074,-0.211710,-2.558642,0.067019,1.237544,-9.409951,2.455107,2.277043
549.000000,0.002000,-0.416077,1.286872,-1.596725,-1.338843,-1.745995,0.502151,0.967021,-2.086343,3.290051
550.000000,0.002000,0.061266,-0.336324,0.440377,-1.039332,-0.121752,-3.299567,-1.572318,7.788511,-12.838921
551.000000,0.002000,-0.052150,0.095287,-1.152022,-2.051397,0.361212,2.529320,0.634611,-0.977430,8.436472
552.000000,0.002000,0.246128,-0.215655,-0.392013,-2.253896,2.019523,2.455041,-10.074847,1.533666,11.819273
553.000000,0.002000,1.381422,-1.343739,0.524159,-0.359825,-0.040162,-1.923231,-2.803917,2.683610,-1.127810
554.000000,0.002000,-0.083870,0.354122,0.319275,-1.086319,-1.402166,-1.752968,3.911926,-10.151869,-11.909348
555.000000,0.002000,0.042455,0.091148,-0.029928,4.112263,4.236817,-0.554538,-4.308520,-8.566136,3.397199
556.000000,0.002000,0.490205,-0.046068,-0.501145,-1.536676,-0.148965,2.361860,-12.046202,-3.046031,8.633250
557.000000,0.002000,0.146171,-0.100171,0.014988,-0.856374,0.529663,3.175425,-13.665997,7.838661,-1.009459
558.000000,0.002000,1.082309,-1.774802,-0.822185,-0.413115,0.795521,-2.201766,-1.710367,2.806120,1.305610
559.000000,0.002000,0.294737,-0.240287,0.064203,-1.813988,-2.054650,2.916946,-11.553760,6.993804,-3.417519
560.000000,0.002000,0.577918,2.281413,-0.162906,0.627994,-0.710653,-1.421166,-0.801650,-3.104793,0.188205
561.000000,0.002000,0.520755,0.690696,0.313610,-0.407732,-1.310299,-0.297503,-5.772806,-6.860984,-4.027425
562.000000,0.002000,0.732051,0.430757,-0.702899,-3.742539,-1.551828,-0.361576,-6.053596,-3.502792,6.001627
563.000000,0.002000,0.802512,0.219856,-0.347320,-1.152626,1.141672,-2.918569,-10.222659,-2.295057,3.638137
564.000000,0.002000,-0.879523,-1.735520,0.926020,1.294265,0.523299,-1.336161,1.441203,3.313181,-1.500405
565.000000,0.002000,2.364683,0.208880,0.182730,-0.583232,-0.526164,0.020321,-3.122500,-0.263619,-0.318374
566.000000,0.002000,-0.278604,0.140577,-0.158585,-0.947098,1.599275,-0.149641,12.381825,-7.356795,7.386897
567.000000,0.002000,-0.158736,-0.256381,-0.142947,0.337913,-1.159874,4.547320,9.387142,11.723251,7.538798
568.000000,0.002000,-0.804554,-0.174818,0.853376,0.989216,-2.111904,1.689657,5.453550,2.172898,-5.602537
569.000000,0.002000,-0.613423,2.004192,0.213312,0.964059,-1.019857,0.229894,1.047878,-3.629681,-0.355859
570.000000,0.002000,-0.402863,-0.620641,0.421979,1.053452,3.301360,-1.467905,5.251340,7.883527,-5.901294
571.000000,0.002000,0.006653,-1.198334,0.006889,-1.576026,0.088751,2.382814,-0.283343,8.076653,-0.185414
572.000000,0.002000,-0.102948,-0.622628,-0.509287,-0.018900,1.822103,2.230741,0.455746,7.282504,6.995787
573.000000,0.002000,0.365202,0.006991,-0.014691,-0.776320,3.255019,-0.947559,-17.643942,0.977936,0.868530
574.000000,0.002000,0.955468,-1.007541,-0.912000,-0.100711,0.550663,1.503151,-3.140612,3.330538,2.797292
575.000000,0.002000,1.759122,-0.943109,-1.262447,-0.427087,0.425603,-0.561973,-2.387690,1.237433,1.687675
576.000000,0.002000,0.122994,0.545172,-0.098129,-0.643858,-2.337674,0.801049,-2.390035,-14.643174,2.120525
577.000000,0.002000,0.162339,0.148608,0.227535,-2.306640,0.589189,2.372749,-9.090200,-4.070964,-11.071447
578.000000,0.002000,1.691265,3.053435,1.591675,0.252674,0.603443,-0.370237,-0.598626,-1.076357,-0.560426
579.000000,0.002000,0.025226,1.204659,0.203103,-0.316093,-2.694159,-0.551320,-0.283403,-8.132045,-1.225331
580.000000,0.002000,-1.109190,-0.181051,-0.068835,0.854533,-1.133944,0.300147,8.703530,1.847610,0.597049
581.000000,0.002000,0.311041,-0.909465,0.115992,2.196562,1.834647,-1.762061,-3.680505,9.498190,-1.064392
582.000000,0.002000,-1.455860,1.193481,-1.065563,1.325762,0.582165,1.445075,2.482752,-2.019905,1.701674
583.000000,0.002000,-1.818776,-1.416454,2.045501,0.842355,0.980727,-0.227771,1.222162,0.967827,-1.373489
584.000000,0.002000,0.242111,0.866832,1.245577,0.548572,0.703844,-1.678984,-1.110259,-3.290175,-4.956509
585.000000,0.002000,0.404664,-1.398040,-0.287552,-1.520450,1.276318,-1.975242,-1.841191,5.860258,1.033520
586.000000,0.002000,0.023862,-0.334397,-0.259506,-0.749275,1.854857,0.742596,-2.374547,10.839968,9.225652
587.000000,0.002000,0.461489,-0.076337,-0.420305,-3.472491,2.144426,-0.746684,-10.368609,2.808594,7.085033
588.000000,0.002000,-0.448838,-0.763847,-0.622846,-0.276039,3.160741,1.119996,4.383060,7.125496,5.369370
589.000000,0.002000,-0.410081,-0.001230,-0.055664,0.478723,-3.583185,-2.521544,15.375709,-0.698031,2.989200
590.000000,0.002000,0.925287,-1.178306,1.305289,0.088350,-0.015770,-1.540469,-2.207292,2.365063,-2.509195
591.000000,0.002000,-0.414218,0.235212,0.178628,0.578302,2.403587,-0.015313,12.822125,-7.102286,-5.240984
592.000000,0.002000,0.990116,-0.414236,-0.060746,-1.552414,-0.061343,-2.053062,-7.818233,3.841063,0.655450
593.000000,0.002000,-0.058042,0.235169,-0.478840,-2.522989,-1.361809,2.724273,1.978077,-7.291345,13.635961
594.000000,0.002000,0.830303,-0.642089,0.933751,0.468757,-0.639132,-2.836584,-4.489251,2.758600,-4.164658
595.000000,0.002000,-1.721086,0.188602,-0.436898,1.077048,0.400132,0.598075,4.953952,-0.744279,1.471611
596.000000,0.002000,-1.137994,-1.419775,0.419930,-2.083499,2.660681,-1.486049,2.796874,3.470626,-0.997341
597.000000,0.002000,0.152463,-0.346958,0.150313,-0.171219,4.850637,0.373987,-6.064289,13.100420,-8.318364
598.000000,0.002000,0.460230,-1.347175,-0.507670,-0.791019,1.738959,-0.517304,-2.097260,5.508401,2.001815
599.000000,0.002000,0.140997,-0.494755,0.073146,2.560056,2.436140,-0.294237,-10.015594,14.401741,-3.255272
600.000000,0.002000,0.638902,0.346539,-0.117207,-1.370240,0.933222,-0.753945,-11.695753,-5.270958,2.700787
601.000000,0.002000,0.643249,0.023806,0.200767,-1.943827,0.663213,-3.280873,-11.731589,0.298166,-1.323652
602.000000,0.002000,0.330439,0.138710,-0.839696,-3.074667,1.043366,1.206447,-3.901496,-1.298178,9.600457
603.000000,0.002000,0.430168,0.038378,-0.006175,3.423934,0.186494,1.459731,-17.133698,-0.441676,1.088416
604.000000,0.002000,-0.068265,-0.158702,-0.223751,-1.937884,4.219398,1.251498,3.907065,9.250443,12.477508
605.000000,0.002000,0.309031,-0.213124,0.148769,-3.146319,2.257262,1.740181,-12.828298,7.402220,-5.172368
606.000000,0.002000,-0.712504,1.602728,-0.227464,1.672313,-2.613015,1.061948,2.169272,-4.377542,1.145534
607.000000,0.002000,-0.485770,-0.557479,-0.995145,2.245759,1.168776,0.796340,2.848664,3.717237,6.466682
608.000000,0.002000,-0.634483,-0.145279,0.250795,1.445943,-2.268123,0.503276,12.345771,2.849724,-5.027880
609.000000,0.002000,-0.001239,0.484864,0.196264,2.855984,2.970350,-0.762321,-0.201994,-13.832751,-5.359551
610.000000,0.002000,0.192463,0.088703,-0.289219,-0.320664,-4.293273,0.692467,-7.730440,-5.484902,18.674057
611.000000,0.002000,-0.017550,0.121820,0.246279,0.264427,3.103973,-0.456882,1.804364,-4.759396,-14.941305
612.000000,0.002000,0.454261,-0.348715,-0.677470,1.015920,0.742186,2.235759,-6.194334,4.245397,7.906061
613.000000,0.002000,0.101289,0.251451,0.196475,-2.114359,-0.165236,-0.056733,-4.035392,-7.552068,-11.143864
614.000000,0.002000,-1.284335,0.148038,-0.254539,2.256745,-0.870275,-1.162009,6.597150,-0.956908,1.020200
615.000000,0.002000,-1.343367,1.639070,-0.813141,-0.276285,0.391934,1.409059,2.006134,-2.430950,1.200425
616.000000,0.002000,0.328927,0.055952,0.426381,-1.038553,0.678027,2.981163,-8.740865,1.786666,-10.816778
617.000000,0.002000,0.171894,0.440157,-0.263916,-0.470351,-4.191242,0.118797,-4.143522,-11.679579,7.421532
618.000000,0.002000,-0.119227,-0.016161,0.653505,1.429090,-1.108522,-1.055680,1.538042,1.179459,-12.075035
619.000000,0.002000,0.431902,-0.152488,1.280715,0.220924,0.764828,-1.729914,-2.389015,1.160094,-6.308312
620.000000,0.002000,-0.100292,-0.272260,0.058222,-1.254190,2.651162,-0.303517,4.292739,13.316450,-5.754551
621.000000,0.002000,0.346742,0.366469,0.229341,1.231300,0.644063,1.221419,-12.700554,-9.048803,-5.449105
622.000000,0.002000,-1.121946,1.088980,-0.312759,1.076598,-0.473264,0.255420,4.014799,-4.088727,1.030640
623.000000,0.002000,0.618724,0.613664,-0.709542,-1.290351,1.532112,0.134127,-4.702933,-4.915798,6.088577
624.000000,0.002000,-0.129290,0.362427,0.068387,2.194203,-2.640221,0.721833,3.458607,-16.797365,-5.056198
625.000000,0.002000,-1.352834,-1.537334,-0.407340,-0.458387,1.102569,-1.026720,2.490015,2.869911,0.809785
626.000000,0.002000,-0.368596,-0.179072,-0.473994,2.106251,0.100849,1.709209,8.302279,3.257274,11.336597
627.000000,0.002000,0.070466,-0.546225,0.669508,-2.470643,-1.108560,-1.457070,-1.374992,7.000503,-8.280186
628.000000,0.002000,0.292209,-0.906670,0.280928,1.262546,-1.100622,-3.879377,-3.184597,8.481864,-3.362685
629.000000,0.002000,-0.358532,-1.232752,-0.950968,1.240891,-1.599754,2.296482,1.175162,4.569107,3.542043
630.000000,0.002000,0.692603,-0.531787,0.996949,-2.068770,0.331690,-0.594248,-3.428931,2.648745,-4.376572
631.000000,0.002000,-2.121074,2.297260,-0.456513,-0.234927,0.361733,-0.076206,1.265244,-1.451396,0.337159
632.000000,0.002000,0.052147,-0.143739,0.309836,-2.005243,0.147242,-0.721400,-5.194286,11.144216,-14.770011
633.000000,0.002000,1.949622,-2.274993,0.507393,-0.010155,-0.541040,0.245076,-1.337719,1.555959,-0.339938
634.000000,0.002000,0.272115,-0.079854,0.586111,-2.723830,0.088407,-0.510925,-5.793371,2.363528,-13.525994
635.000000,0.002000,0.598560,0.511255,0.069140,-0.514699,2.810779,-0.397514,-9.423569,-8.148268,-1.722633
636.000000,0.002000,-0.314115,-0.474052,0.149159,-0.888640,0.857859,0.289124,7.541951,11.347772,-4.911433
637.000000,0.002000,-0.722763,0.428674,0.528889,0.833851,0.762819,-2.655387,6.697384,-4.522471,-5.580016
638.000000,0.002000,-1.127765,-0.570154,-0.573557,2.931119,-0.647397,0.038589,5.668839,2.577039,2.804156
639.000000,0.002000,0.858799,0.216525,1.435504,-1.709948,0.170250,-1.096809,-2.653378,-0.613522,-4.579529
640.000000,0.002000,-2.645480,-0.407930,-0.561685,-0.011697,-1.411666,-1.298021,2.521360,0.353231,0.625437
641.000000,0.002000,1.040449,-1.060458,0.930798,-1.343805,1.794177,1.434360,-2.883582,2.825424,-2.548354
642.000000,0.002000,-0.225249,0.101724,0.752065,-0.092135,1.148341,-2.769830,3.283523,-1.791327,-10.984285
643.000000,0.002000,0.273089,2.233640,1.519804,1.008565,-0.348187,0.349204,-0.239944,-2.111442,-1.461270
644.000000,0.002000,0.921035,0.029701,-1.509618,-0.782253,-1.059414,0.341635,-2.472231,-0.055627,4.166631
645.000000,0.002000,0.181010,-0.335921,-0.117404,0.591403,-0.391810,-2.012843,-10.256266,8.600747,4.009319
646.000000,0.002000,1.571292,-0.572164,-0.765971,-0.609982,0.213755,0.728120,-3.970838,1.369585,1.921635
647.000000,0.002000,1.186384,-0.574837,-0.442696,-0.814710,1.271789,-2.193994,-5.683585,2.809376,1.990485
648.000000,0.002000,0.991437,-0.185225,0.219866,-2.239999,-1.001144,0.756583,-8.842813,2.034208,-1.929810
649.000000,0.002000,-0.130797,0.416802,-0.008982,0.402095,-2.616480,0.284314,3.612292,-16.029956,2.321278
650.000000,0.002000,3.258019,-0.758820,-0.517696,1.219564,0.554709,0.938054,-1.660115,0.414757,0.246062
651.000000,0.002000,-0.649652,0.241826,-1.670481,0.971783,1.373561,1.855602,1.634923,-0.673632,4.381892
652.000000,0.002000,0.319715,-0.208183,-0.123107,0.806749,2.639223,-0.044453,-13.839019,7.916771,3.924867
653.000000,0.002000,0.854322,-0.063516,0.716888,-0.398426,2.614814,-1.577716,-5.941109,0.781599,-6.166594
654.000000,0.002000,1.274725,-0.312577,1.543425,-1.564836,-0.014501,-0.799620,-2.487102,0.647116,-3.038738
655.000000,0.002000,-0.437542,1.921741,0.694378,-0.968811,-1.095593,-1.105969,0.634304,-3.672793,-1.180177
656.000000,0.002000,-0.923987,0.236757,1.802305,1.731004,0.299247,0.334902,1.862068,0.298190,-3.920254
657.000000,0.002000,0.691225,0.126941,0.360302,-0.255955,0.228861,-3.028208,-10.267703,-0.839339,-6.486551
658.000000,0.002000,0.009337,-0.077362,0.034857,2.537241,0.589777,-1.370668,-3.820218,5.462320,-9.396599
659.000000,0.002000,-0.236920,0.683877,1.060350,0.592529,0.558644,-1.122572,0.851575,-3.914882,-6.507297
660.000000,0.002000,0.533335,0.270446,-1.143293,-0.515406,1.793112,1.422216,-2.502817,-1.279555,6.606481
661.000000,0.002000,0.232477,-0.117193,-0.747974,1.866441,0.073966,1.086610,-1.932257,0.566425,10.406260
662.000000,0.002000,-0.381966,-0.530115,-0.758599,1.593588,0.888788,2.656177,4.094646,5.286470,7.871895
663.000000,0.002000,0.300764,0.414620,-0.813749,-0.644704,0.024651,2.511117,-2.563531,-4.614852,9.004208
664.000000,0.002000,0.255531,0.667559,-1.187653,0.170314,-2.095751,0.426765,-1.224730,-3.259793,5.654532
665.000000,0.002000,0.063744,-0.425390,-0.050873,-3.665723,1.674396,-0.413941,-3.116673,15.251183,0.558500
666.000000,0.002000,0.125707,0.104871,0.109088,-0.862532,-4.141782,-0.537729,-10.512948,-3.948820,-8.850964
667.000000,0.002000,-0.951639,-1.263936,-0.900331,0.976491,0.826778,1.771541,3.225193,2.853358,1.904525
668.000000,0.002000,-0.016190,-0.493670,-0.074073,4.211008,0.615763,2.457849,-0.964335,14.702092,2.609946
669.000000,0.002000,-1.018268,-0.569536,0.051601,-0.085166,1.322967,1.875637,7.667142,4.061872,0.677647
670.000000,0.002000,0.208585,0.400536,0.638804,0.998301,-1.514752,-2.258839,-4.256119,-6.892315,-8.980352
671.000000,0.002000,0.168350,-0.221461,0.563011,-1.084412,2.511217,-1.911628,-3.868639,5.666295,-13.076476
672.000000,0.002000,0.602563,0.202998,-0.551450,-1.537955,-0.484933,1.351007,-7.843385,-0.644872,10.589222
673.000000,0.002000,-0.100647,0.715547,-1.704772,-1.404671,0.195047,3.283223,0.070069,-1.718041,4.379837
674.000000,0.002000,0.047688,-1.491246,1.124706,-1.275601,1.648657,0.120229,0.306369,0.719282,-0.672078
675.000000,0.002000,-0.371394,0.450537,-0.163196,0.623170,-3.177623,0.628966,8.930031,-10.758916,4.330228
676.000000,0.002000,-0.484178,-0.270503,0.521040,1.863758,0.448711,-2.341256,6.395923,4.658727,-8.905167
677.000000,0.002000,0.410416,0.277182,-0.027225,-1.057524,-0.003272,-2.216359,-10.661126,-10.191766,-1.990532
678.000000,0.002000,-0.649274,-0.330181,0.245246,-0.298602,0.245188,-3.508020,9.242604,10.705431,-9.637533
679.000000,0.002000,1.500413,0.717983,0.066006,-1.329255,-0.361852,0.622285,-4.519615,-2.210314,-0.110120
680.000000,0.002000,0.803326,0.989516,0.276186,-2.193153,-1.381460,-1.117044,-4.770023,-5.959782,-1.587817
681.000000,0.002000,-0.316453,-0.253479,-0.329971,3.306275,-0.112660,2.254429,8.024400,6.430569,8.909961
682.000000,0.002000,-0.011413,0.183620,0.179902,0.524711,-1.474668,-1.208540,2.307326,-12.000960,-8.466123
683.000000,0.002000,0.021904,0.126690,-0.370805,1.176212,-2.989397,4.213366,-4.308922,-2.810767,14.271621
684.000000,0.002000,0.035756,-1.463631,-0.189238,-1.445731,2.022467,-0.927431,-0.435362,6.490951,0.638010
685.000000,0.002000,-0.261237,0.037515,-0.045674,3.332972,-2.541286,-0.026279,17.129788,-1.575176,2.286663
686.000000,0.002000,-0.000403,-1.260919,-0.449464,-0.534455,1.227096,0.971770,-0.256932,7.231335,2.507663
687.000000,0.002000,-0.104900,0.408719,3.140852,-0.524538,-0.362614,-0.226296,0.058467,-0.216673,-1.926565
688.000000,0.002000,0.075682,1.546667,-1.059584,-0.327598,0.067502,1.628212,-0.213127,-3.607200,2.457686
689.000000,0.002000,-1.512171,-0.158291,0.074121,1.053035,0.633496,2.399022,6.209006,0.696380,-0.215011
690.000000,0.002000,1.755801,0.234627,1.486603,-0.283960,1.096894,-0.480910,-2.568313,-0.301897,-2.208155
691.000000,0.002000,0.542405,-0.773493,0.635874,-2.837602,-0.523681,-0.697035,-3.860285,5.287852,-4.635999
692.000000,0.002000,0.210323,0.102664,0.181294,-0.255806,-1.846831,-2.280982,-14.333375,-3.819428,-8.191177
693.000000,0.002000,-0.299241,0.769678,1.291899,-0.074024,-0.166771,-1.991483,1.207111,-2.948242,-5.233798
694.000000,0.002000,-0.100280,0.185822,-0.478087,-1.683457,-1.327923,0.829026,3.457572,-5.614986,13.683032
695.000000,0.002000,0.121444,0.203165,-0.301143,2.782495,2.415852,0.289067,-3.628669,-5.909109,12.648548
696.000000,0.002000,-1.061223,-1.201746,2.010439,0.945559,-0.352426,0.548586,1.110443,1.322826,-2.200185
697.000000,0.002000,1.722144,-2.077861,2.026614,-0.616160,-0.370023,0.357748,-0.888051,1.046235,-1.016901
698.000000,0.002000,0.101465,-0.133301,0.520716,0.492693,0.440396,-0.905870,-3.442776,3.784633,-13.755393
699.000000,0.002000,1.903482,-0.403800,-0.295215,0.313974,2.581702,-1.219276,-3.867838,0.893525,0.618284
700.000000,0.002000,-1.407497,0.509598,1.981791,-0.241866,-0.329123,-0.067387,1.776907,-0.681874,-2.454322
701.000000,0.002000,-1.070447,0.310634,1.216863,-0.962445,-0.595658,0.121263,3.520396,-1.029969,-4.278947
702.000000,0.002000,-1.525285,1.066401,1.771197,-0.781025,-1.161268,-0.479685,1.612551,-1.237541,-2.046196
703.000000,0.002000,-0.671973,0.594069,0.017191,-1.343870,-0.729224,1.480584,7.930706,-7.870276,0.554455
704.000000,0.002000,-0.808809,1.390817,1.333437,0.076488,-1.249532,-0.780738,1.621347,-2.723816,-2.636703
705.000000,0.002000,-1.721231,-1.510506,-1.766194,-2.486439,0.473324,2.265246,1.387128,1.216716,1.420897
706.000000,0.002000,-0.019935,0.042421,0.252576,2.599002,0.421544,-4.215243,0.795458,-0.195409,-15.265884
707.000000,0.002000,-0.121303,-0.310986,-0.006952,2.142574,-0.455235,-3.810159,3.965301,15.089048,-3.261688
708.000000,0.002000,0.077045,0.240473,-0.211684,-0.180992,-0.352878,3.970316,-3.389749,-10.754657,10.493611
709.000000,0.002000,-2.438510,0.424719,-1.307026,-1.225706,-0.181411,-1.467193,2.096587,-0.355512,1.101680
710.000000,0.002000,0.537630,0.038185,-0.378601,-1.225674,0.267767,-1.218684,-11.392691,0.027896,6.911991
711.000000,0.002000,-0.907756,-0.743415,2.179473,0.099426,-0.431487,-0.345500,1.052169,0.949428,-2.659571
712.000000,0.002000,-0.127312,-0.409468,-0.487763,2.058271,0.771720,1.837446,3.510876,8.161608,8.328863
713.000000,0.002000,-0.085380,-0.565853,0.398597,-1.299833,-1.921004,0.257717,0.834262,10.763149,-7.329609
714.000000,0.002000,0.601964,-0.258930,0.002876,0.171473,1.300244,-1.706052,-12.452679,5.570295,0.107111
715.000000,0.002000,0.187192,-0.803643,-2.409447,1.578830,-0.498611,0.734706,-0.239364,0.871679,2.673180
716.000000,0.002000,-0.840052,0.316422,0.629142,2.293344,0.325262,-1.488646,6.796484,-2.957386,-5.501283
717.000000,0.002000,-0.234133,-0.145576,-0.485786,-0.547638,2.406806,3.572173,6.683119,3.063178,13.280325
718.000000,0.002000,0.186620,-0.779354,1.565128,-0.153359,2.198330,-0.151252,-0.759243,2.317572,-4.392919
719.000000,0.002000,0.201964,-1.243340,-1.223188,0.080280,1.579587,0.403271,-0.659969,3.436045,3.606002
720.000000,0.002000,-0.014635,-0.445964,-0.800295,1.494363,1.378065,2.801425,-0.013938,5.586595,9.541709
721.000000,0.002000,0.139625,-0.588920,-0.154841,2.104206,2.350438,1.779215,-0.909786,22.719251,-3.556774
722.000000,0.002000,-0.101106,0.534356,-0.011701,-2.583604,-0.972737,2.780643,2.719600,-14.608186,1.199511
723.000000,0.002000,-0.180449,-0.943901,-0.163424,0.814264,1.817506,0.581559,1.912223,9.398834,1.748571
724.000000,0.002000,0.278798,0.355890,1.001786,-1.475789,-0.131230,-3.571187,-2.125691,-2.731094,-8.261012
725.000000,0.002000,0.117929,0.129121,-0.143796,-2.084945,2.493004,-2.115114,-10.024179,-7.234879,9.320519
726.000000,0.002000,0.578861,1.552803,-1.683706,-1.185828,0.115719,-0.298506,-0.807642,-2.109665,2.286849
727.000000,0.002000,-0.186841,0.933797,-0.860279,0.132111,-1.338923,2.428608,0.674479,-5.184187,4.783733
728.000000,0.002000,-0.862910,-0.288327,-0.260842,0.772954,2.871635,1.935090,9.283352,3.153600,3.584987
729.000000,0.002000,-0.597370,0.547936,-0.225839,1.986266,-2.629664,0.491470,7.646867,-7.655642,3.634491
730.000000,0.002000,-0.641853,0.029669,0.540968,2.059773,2.314219,-0.353458,9.409903,0.559419,-8.060733
731.000000,0.002000,-0.299780,0.015799,-0.166162,1.046633,-3.952681,-0.939417,14.123906,-2.022844,7.650136
732.000000,0.002000,-1.301028,0.029104,0.298527,1.647032,1.253698,-1.773385,7.229094,0.056213,0.276618
733.000000,0.002000,-0.114888,0.664245,-0.388306,1.252152,-3.356909,2.232141,2.388639,-10.218402,6.998946
734.000000,0.002000,-0.184986,-0.105614,-0.625649,-1.179055,2.091535,1.779352,3.785994,1.110104,13.656681
735.000000,0.002000,0.702342,-0.387132,0.613789,-2.104841,0.149338,-1.518347,-7.695249,4.677898,-6.069651
736.000000,0.002000,-0.606999,0.184213,0.318722,-0.297098,-2.430795,2.131567,10.399560,-2.530912,-5.303960
737.000000,0.002000,-0.252672,-0.816299,-0.325470,0.720612,-0.866626,2.134441,2.773267,9.380830,3.277453
738.000000,0.002000,1.350223,0.207578,-0.934629,-1.636919,1.772269,-0.438558,-4.252601,-0.647531,3.244137
739.000000,0.002000,-0.856999,-1.031879,0.757922,0.785658,2.659966,-2.352998,3.115094,3.958254,-2.997874
740.000000,0.002000,-0.191333,0.161153,-0.689901,0.975154,1.060766,1.331548,3.967819,-2.633862,11.674618
741.000000,0.002000,1.370910,-0.633934,-0.468589,-1.255010,1.214673,-1.806346,-5.001640,2.347274,1.497958
742.000000,0.002000,-0.016616,-0.331969,0.194212,0.960096,2.310751,-2.086752,0.347931,11.737026,-9.366487
743.000000,0.002000,1.227825,0.634653,-0.276571,-1.100676,1.555849,1.413113,-6.197967,-3.001606,1.290134
744.000000,0.002000,-0.715286,0.288140,-1.410385,1.473493,-1.842975,-0.347331,2.687035,-1.142877,4.111510
745.000000,0.002000,-1.434568,0.830274,-1.778054,1.197641,-1.305253,-0.117386,1.744486,-1.016567,2.257816
746.000000,0.002000,-0.054904,0.078760,-0.063997,-2.649494,-0.921814,-0.782403,-0.668181,-11.680958,2.575672
747.000000,0.002000,0.158589,0.197035,-1.459844,1.230254,-0.591046,1.794291,-0.677571,-0.850055,6.111215
748.000000,0.002000,-0.081977,0.215368,0.659608,-1.364066,-3.360361,-2.119801,1.215977,0.545958,-11.611623
749.000000,0.002000,-0.740474,-1.149945,0.044621,3.137771,0.843086,0.386397,3.407853,6.130394,-0.049891
750.000000,0.002000,-0.296987,-0.052437,-0.233973,-0.405804,0.266500,2.629424,14.055287,2.342585,7.520149
751.000000,0.002000,0.145847,0.953461,0.237691,-1.199215,-2.201601,0.642904,-1.861309,-9.639193,-2.267019
752.000000,0.002000,1.316101,-2.646486,-1.249170,0.760519,0.391955,-0.308914,-0.783811,1.543631,0.708002
753.000000,0.002000,-0.156032,0.340295,0.032455,1.754612,0.282224,-1.356238,7.641192,-13.709237,1.264526
754.000000,0.002000,-0.482330,-0.000229,-0.028630,-1.695901,-1.581707,2.268862,15.528982,-0.347721,1.747406
755.000000,0.002000,-1.897432,0.948931,-1.007384,0.066362,0.353931,1.882846,2.674474,-1.343172,1.376713
756.000000,0.002000,0.031657,-1.063802,-0.687551,-1.302458,-0.329741,2.102930,-0.264365,6.251046,4.041879
757.000000,0.002000,-0.206817,0.406889,0.137363,-0.355495,-1.303122,-0.209798,7.595932,-12.503734,-4.313667
758.000000,0.002000,-0.044829,0.044387,-0.110207,0.649415,-1.553678,-2.920833,2.134963,-2.449136,9.529032
759.000000,0.002000,0.448331,0.048523,0.299551,-2.099041,-2.543315,-0.293990,-14.260781,-0.357059,-8.363204
760.000000,0.002000,1.061749,0.597992,-0.344810,-2.240782,-0.613656,0.787100,-5.882224,-3.468215,2.550138
761.000000,0.002000,-0.288657,-0.195599,-1.250799,1.933191,-0.681908,1.552404,1.586292,0.832433,7.324444
762.000000,0.002000,-0.026944,-0.264780,0.176283,3.068568,0.188404,1.100700,0.715396,11.525832,-10.387752
763.000000,0.002000,-1.087663,0.359732,0.119523,1.543264,0.173801,-0.163879,8.185369,-2.932408,-0.362603
764.000000,0.002000,0.139093,-0.365839,-0.030327,0.132136,1.980738,-2.555504,-5.645663,14.409950,1.834520
765.000000,0.002000,-0.165727,-0.312080,1.918019,-0.847623,-0.011891,-1.972752,0.492357,0.680984,-4.404430
766.000000,0.002000,0.152780,-0.253648,-0.320748,-0.810332,-2.600857,2.257125,-6.617985,8.820219,12.047739
767.000000,0.002000,-0.604559,-0.484956,0.061721,2.932919,1.673059,0.651300,9.731341,7.934370,-1.477883
768.000000,0.002000,0.274472,0.627033,-0.527500,1.237432,-3.068117,0.382474,-2.415556,-8.508825,6.285653
769.000000,0.002000,0.108760,0.235964,0.321552,-2.026509,-0.690175,0.571533,-4.458349,-6.625545,-15.688938
770.000000,0.002000,0.806616,1.990438,-0.967041,0.991315,-0.418338,0.080340,-1.089215,-2.681141,1.357729
771.000000,0.002000,1.075315,-0.593555,-0.752162,-0.611715,1.538957,0.274584,-4.958944,2.270529,2.873635
772.000000,0.002000,0.108052,0.200441,0.789113,-0.008917,-0.645975,-3.069723,-1.836711,-2.444039,-11.074419
773.000000,0.002000,0.402758,-0.474052,-0.220232,-0.473312,2.393584,-1.679620,-9.822790,9.853383,4.231597
774.000000,0.002000,0.048076,0.262589,0.296537,0.993602,-1.420695,-0.641573,2.327348,-13.045302,-19.174186
775.000000,0.002000,-0.558869,0.743242,-0.076021,3.759561,-0.727554,-1.182914,6.651641,-7.639662,1.366077
776.000000,0.002000,0.907821,0.323645,-1.229768,-0.765861,-3.057600,0.921823,-3.474321,-1.200735,4.634703
777.000000,0.002000,-0.479732,0.030526,0.164317,-0.143994,-1.436103,0.936288,13.848980,0.176735,-6.138892
778.000000,0.002000,0.121232,0.424317,-0.079206,-1.136738,-1.800258,3.269980,-3.091174,-16.841286,3.916750
779.000000,0.002000,0.143972,-0.010255,0.045697,-1.633449,3.087760,1.691055,-15.048848,3.148181,-4.869259
780.000000,0.002000,-0.574842,0.319170,0.295025,3.961167,1.022983,0.385418,9.675360,-6.526704,-5.265463
781.000000,0.002000,0.910492,0.470588,-0.698153,-0.442857,0.338860,2.695220,-5.604149,-2.798779,4.559023
782.000000,0.002000,0.343607,-0.370757,0.994525,-1.738928,0.161241,-0.654973,-2.772629,2.815004,-7.486359
783.000000,0.002000,0.439277,0.886018,1.850740,-1.123621,-1.348820,-1.008984,-0.815512,-1.670295,-3.388293
784.000000,0.002000,-0.015369,0.271538,0.199820,0.521346,-2.009999,2.799377,1.372588,-12.125963,-6.859444
785.000000,0.002000,0.548847,0.522499,-0.652410,-1.882621,2.625512,3.441847,-5.484870,-5.801455,7.045877
786.000000,0.002000,-0.267092,0.044642,0.753087,-1.894638,1.285836,-2.122966,4.313134,-0.447346,-11.110528
787.000000,0.002000,0.713905,-1.706594,-2.618870,0.401178,0.164625,0.630933,-0.441033,1.018245,1.552396
788.000000,0.002000,-0.436016,0.585148,0.102755,2.634527,-0.169181,2.842119,7.600600,-9.555727,-1.685322
789.000000,0.002000,0.143313,0.138106,-0.031177,1.274234,3.962545,-0.518801,-12.596484,-9.263233,10.143254
790.000000,0.002000,-0.243763,0.208610,-0.332447,0.548570,0.715079,-3.241033,7.303770,-6.385602,11.329807
791.000000,0.002000,0.933140,-0.256320,-1.024408,-1.868290,-1.356984,2.302210,-4.300577,1.074795,4.692838
792.000000,0.002000,-1.394421,-0.358769,-0.258507,0.969578,-1.175620,1.055923,5.897553,1.639207,0.901488
793.000000,0.002000,-0.445324,1.167235,0.249501,0.735109,-1.176570,-0.917830,2.481049,-6.928973,-1.479198
794.000000,0.002000,-0.083458,0.294268,0.918067,-2.844074,1.044127,-2.533807,0.290971,-2.781121,-9.951461
795.000000,0.002000,-0.707335,0.558978,0.039732,1.030135,-3.037877,-0.167272,9.285296,-6.461230,-0.230978
796.000000,0.002000,-1.914904,-1.891966,-0.132575,-1.186197,0.261581,0.381337,1.829051,1.842594,0.123384
797.000000,0.002000,-0.635640,-0.169790,-0.041367,1.589934,-2.133747,0.622313,13.419558,2.950574,2.434812
798.000000,0.002000,-1.472881,0.394513,0.819915,-0.519279,-1.854799,1.283665,4.391123,-1.546024,-2.195608
799.000000,0.002000,0.120737,-0.293502,0.228422,1.560898,-0.696606,0.557913,-4.574008,10.539135,-9.301315
800.000000,0.002000,-0.158035,-0.198060,-0.170705,-1.609488,2.710500,1.017426,8.368384,10.195038,10.041942
801.000000,0.002000,-0.550558,0.095699,0.104458,0.856717,1.063562,-0.450733,12.251538,-3.250693,-0.684018
802.000000,0.002000,0.952504,0.161203,0.705797,-1.410140,-0.737674,-0.748812,-6.524822,-0.661676,-5.269073
803.000000,0.002000,0.227167,-0.051531,-0.327175,1.115961,-2.729317,-0.616218,-7.788472,2.802934,13.548484
804.000000,0.002000,-0.292109,0.361978,-0.698985,-2.346037,1.582787,1.037536,3.657769,-4.528173,9.218815
805.000000,0.002000,-0.057292,-0.062909,0.007511,-1.968454,2.497977,0.420852,2.388820,4.783242,-3.659492
806.000000,0.002000,0.739937,1.572478,0.430570,-2.498809,-1.480198,-1.704527,-2.023688,-4.294255,-1.229360
807.000000,0.002000,0.972029,-0.805740,0.592272,-1.004186,1.292804,-0.454430,-4.809370,3.610896,-2.670944
808.000000,0.002000,0.430327,-0.326339,-0.558572,0.499712,2.632659,1.373566,-7.559075,5.854796,9.137200
809.000000,0.002000,0.298653,0.332056,-0.401276,-0.822718,0.935456,2.090047,-5.814888,-8.224510,10.358286
810.000000,0.002000,-0.195250,-0.189161,0.012139,-1.870673,0.531312,-1.405686,7.580798,10.935634,-2.129764
811.000000,0.002000,-0.644784,-1.649669,-0.930550,-0.952308,-0.660731,1.530027,1.486203,3.649475,1.841633
812.000000,0.002000,0.082597,-0.303657,-0.749918,-0.662081,0.803254,3.874076,-1.474979,3.257633,10.308268
813.000000,0.002000,-0.298940,-0.473543,0.699332,0.773551,2.343356,-1.367356,3.323166,5.731222,-9.224353
814.000000,0.002000,-0.742450,1.060803,-0.420537,-1.578249,-0.434590,1.281813,3.983476,-5.464965,2.118089
815.000000,0.002000,0.626848,0.026980,-0.567790,-1.799613,-0.656206,1.117714,-8.877710,-0.009381,8.205027
816.000000,0.002000,-0.559734,-0.162076,-0.434414,1.480877,-2.200216,1.460378,10.012731,2.243228,7.855559
817.000000,0.002000,0.909234,0.564204,1.141809,0.407325,-1.299522,-2.342332,-3.448952,-1.874867,-4.437624
818.000000,0.002000,0.552729,0.679954,-1.034170,-2.549240,-0.936022,1.856536,-2.718121,-3.479522,5.149744
819.000000,0.002000,-0.106570,-1.025517,0.618921,1.352546,0.369682,-2.884143,2.136404,9.252004,-4.099801
820.000000,0.002000,0.122745,-0.204540,0.086508,1.407946,-0.347733,-1.110959,-10.245892,10.690361,-6.201004
821.000000,0.002000,-0.616975,-0.257851,-0.092934,2.751417,-0.670473,-1.087289,12.383348,4.565531,2.697029
822.000000,0.002000,-0.882375,1.677569,-0.725171,1.077699,0.058546,2.777284,1.716869,-3.431324,1.249426
823.000000,0.002000,0.055250,0.943498,-0.306569,1.316792,-1.659667,2.436666,-0.563533,-9.994122,3.593169
824.000000,0.002000,0.148348,-0.343855,0.123936,-1.288481,3.679927,-0.003178,-5.914052,12.539281,-3.273525
825.000000,0.002000,-1.639781,0.134969,-1.672649,1.748532,1.667687,0.345362,2.221550,-0.191735,2.204644
826.000000,0.002000,0.399878,-0.060293,-1.093427,1.036500,0.740460,1.084900,-4.273632,-1.228764,7.402769
827.000000,0.002000,-0.062974,-0.032585,0.012386,-2.442647,2.749102,-2.171999,2.923245,0.560788,-1.702126
828.000000,0.002000,2.348717,-0.264977,-1.143756,0.412047,-0.635067,-0.059267,-2.411393,0.249943,1.285903
829.000000,0.002000,-0.516371,0.299397,-0.116490,3.431754,1.434395,-1.520128,11.804759,-7.573556,3.714619
830.000000,0.002000,-0.000027,0.659182,0.260149,-0.397390,-2.477511,-1.977803,1.043261,-14.663857,-5.710101
831.000000,0.002000,-0.358277,-0.007722,0.886232,-0.443113,-0.896932,-3.448171,3.935874,-0.006859,-9.685821
832.000000,0.002000,1.142108,-0.343931,1.131834,-1.368979,0.195434,-0.613485,-3.180431,1.184878,-3.409469
833.000000,0.002000,0.051622,-0.434852,0.548864,-1.503000,-2.456833,-2.257271,-0.080845,8.383086,-11.199987
834.000000,0.002000,-0.392164,-0.300799,-0.342821,2.336625,3.801306,-1.144295,10.948514,6.805332,8.408354
835.000000,0.002000,2.268690,-0.601993,0.710511,-0.258499,0.573087,1.319469,-2.846108,0.811087,-0.881068
836.000000,0.002000,-1.282528,1.549664,-2.729458,-0.201849,0.372311,-0.253554,0.636318,-0.785444,1.379670
837.000000,0.002000,-1.060234,1.197949,1.150630,2.874349,0.759369,1.588059,2.365471,-2.665519,-2.421584
838.000000,0.002000,-0.121646,-0.601622,0.035021,1.074691,1.619334,-1.635430,2.139291,14.738077,-2.213859
839.000000,0.002000,-0.497482,-0.523547,0.151792,1.046332,2.745030,1.986030,8.432754,9.437871,-4.065649
840.000000,0.002000,1.578711,-0.137841,-2.570273,0.719577,0.741767,-1.321881,-1.104052,0.095971,1.778091
841.000000,0.002000,1.047091,1.262604,0.507047,0.896310,0.274214,-2.143886,-3.194671,-3.828012,-1.392500
842.000000,0.002000,-1.054136,-0.164826,0.623971,-0.915366,1.493430,-0.902306,6.450148,0.881028,-4.040226
843.000000,0.002000,0.666747,0.180779,0.257317,-2.179323,-0.019307,-0.067585,-10.828863,-2.983751,-4.104481
844.000000,0.002000,-0.585312,0.635566,1.432705,-1.037954,0.722749,0.567950,1.867502,-2.017134,-4.686989
845.000000,0.002000,-0.312548,-0.541859,0.024744,2.430729,2.833617,1.863748,6.657216,15.676886,-3.090799
846.000000,0.002000,-0.071832,-0.206376,-0.336338,-1.986760,0.263605,-2.002062,7.361723,6.232277,17.426894
847.000000,0.002000,0.000063,-0.652573,0.879122,0.326664,1.920579,-1.812744,-0.296664,5.229341,-7.260851
848.000000,0.002000,0.644358,0.855085,0.142910,0.307449,-2.495856,-1.306886,-5.779241,-7.377774,-1.021489
849.000000,0.002000,1.017401,1.376055,0.807654,-2.861764,2.070841,-0.690229,-2.453093,-3.599411,-2.048282
850.000000,0.002000,0.303129,-0.505459,-1.054501,-1.901927,1.006576,-0.172583,-0.085200,2.813482,6.612225
851.000000,0.002000,-1.030875,-0.559718,0.548951,1.873716,2.527654,0.253799,5.893034,3.402924,-3.261734
852.000000,0.002000,0.032513,0.483616,-0.607770,-2.097025,-1.793283,-0.250526,-0.128373,-6.921564,9.883761
853.000000,0.002000,-0.257823,0.202815,0.066990,-1.934830,1.084844,0.866707,13.109475,-9.944930,-2.342553
854.000000,0.002000,0.455281,0.416179,-0.166067,-2.238005,-1.405380,0.746902,-8.177661,-9.973296,4.772902
855.000000,0.002000,0.264833,-0.484201,-0.743403,-2.711506,2.552859,0.689812,-2.918596,5.627539,7.593042
856.000000,0.002000,-0.338036,0.687583,0.174716,0.918098,-2.158937,-0.064665,5.378597,-9.694064,-3.420844
857.000000,0.002000,-1.274743,-0.288627,0.724024,1.180209,-1.367579,-1.415341,4.758005,0.018636,-3.267110
858.000000,0.002000,1.291534,0.134484,-0.718967,-0.080161,-1.046508,2.891059,-5.195951,-0.452324,3.015712
859.000000,0.002000,0.138793,-0.119714,-0.410094,2.128673,-1.275172,1.579143,-7.357851,4.670498,14.798210
860.000000,0.002000,-0.139845,-0.425845,-0.201258,-1.114824,3.691965,0.355712,1.959803,13.747699,7.645289
861.000000,0.002000,-1.134550,-2.485160,0.476849,0.757827,-0.221004,0.184403,0.959987,2.205884,-0.404514
862.000000,0.002000,0.416224,-0.076897,-0.617255,-2.237178,-0.456045,0.433728,-6.696810,1.182497,11.335248
863.000000,0.002000,-1.235904,1.037473,-0.415644,1.577239,-0.731165,-0.378568,4.040834,-3.475372,1.432472
864.000000,0.002000,2.001297,0.162860,-2.784240,-0.260338,-1.372487,-0.880766,-0.982984,-0.080739,1.345700
865.000000,0.002000,1.392399,-0.861464,-1.627042,0.426313,1.422457,-0.821474,-2.072570,1.191964,2.352125
866.000000,0.002000,0.823172,-0.418549,-0.630609,0.440735,0.264451,-0.855089,-5.833765,3.237654,4.793945
867.000000,0.002000,-1.071650,-0.673572,-0.415211,1.158889,1.828111,-1.548733,5.590280,3.770258,1.995482
868.000000,0.002000,-0.596201,0.379688,-1.687297,-0.742730,0.118285,1.957361,1.434368,-1.071791,4.258250
869.000000,0.002000,0.318507,-0.004717,-0.059164,-0.494565,2.556181,2.970560,-15.200648,-0.117665,4.980685
870.000000,0.002000,0.892691,0.366345,-0.035951,-1.889235,2.523519,2.308291,-10.268346,-4.954674,0.447006
871.000000,0.002000,-0.058227,-0.166841,-1.553845,0.572990,-1.121996,0.398365,-0.047601,0.686447,6.006606
872.000000,0.002000,1.997388,1.054725,-1.045118,0.582327,-1.137331,0.110552,-2.342838,-1.244098,1.195208
873.000000,0.002000,-1.091190,-0.548249,-0.785644,-0.572450,1.021846,2.544363,4.694594,2.861719,3.004232
874.000000,0.002000,0.623297,0.398627,0.631491,-0.269467,-1.247873,-3.779147,-6.932733,-3.939298,-7.093851
875.000000,0.002000,-0.758660,1.319022,0.652927,0.833193,-0.975182,-1.781465,2.795210,-3.998967,-2.121466
876.000000,0.002000,-1.342589,0.378949,0.555960,-1.415078,-1.084005,-1.445098,5.568516,-1.824850,-2.248581
877.000000,0.002000,1.211126,-0.028264,-0.223046,-2.861237,-0.975763,-0.070353,-7.384620,-0.107715,1.396095
878.000000,0.002000,-0.555760,-0.229373,0.416792,2.022135,-0.677477,-2.463475,8.245600,3.864456,-6.903076
879.000000,0.002000,-0.530915,-0.339399,-0.095125,0.072760,2.605726,-0.143795,12.490116,3.460975,1.877762
880.000000,0.002000,-0.691286,0.329974,-1.053335,-0.306749,-0.271790,2.405706,3.672057,-1.980221,5.963154
881.000000,0.002000,-0.047747,0.485274,0.422642,-1.389427,-1.946799,-1.609461,1.508702,-10.274488,-10.021414
882.000000,0.002000,-0.191530,-2.149426,-0.571577,-0.247893,0.478332,-0.741700,0.262721,3.381498,0.851840
883.000000,0.002000,1.232918,0.070736,-1.549107,-0.323217,1.645667,1.593267,-2.625772,-0.222484,3.275858
884.000000,0.002000,-0.936811,1.031157,0.480211,2.167522,0.315287,-0.273614,4.073457,-4.455952,-2.111301
885.000000,0.002000,-0.220414,-0.591830,-1.419105,-1.979317,-0.544081,1.581309,0.814192,2.262671,5.542206
886.000000,0.002000,-0.286504,0.274686,0.554499,2.219152,-2.014938,-0.736023,5.889623,-4.738940,-11.375855
887.000000,0.002000,-0.179578,-0.466516,-0.183402,-1.751220,-0.001345,1.295246,6.618648,15.002153,4.588764
888.000000,0.002000,0.136962,0.671217,0.316450,0.385179,-3.909782,-0.853009,-3.608970,-12.084866,-5.173722
889.000000,0.002000,0.202806,-0.072136,-0.183384,-0.732785,-1.355738,0.389132,-13.374977,3.544548,9.963483
890.000000,0.002000,-2.199898,0.693300,1.044981,0.575768,-0.131478,-1.670726,2.447951,-0.792472,-1.275084
891.000000,0.002000,-0.605623,0.092201,-0.491548,1.735318,-3.272213,0.694704,8.873795,-1.273342,7.984226
892.000000,0.002000,-0.057885,0.176964,0.576062,-0.707123,-3.193452,0.929503,1.215021,-3.480627,-12.258757
893.000000,0.002000,0.827797,-0.466290,-1.084442,-1.620463,1.815213,0.562908,-4.594602,1.992499,4.563958
894.000000,0.002000,0.135268,0.199148,0.460490,1.288086,-2.168882,-0.203925,-2.648984,-5.869089,-15.552517
895.000000,0.002000,-1.206961,-0.700115,-1.027602,1.493366,-0.359377,0.329991,3.351854,2.333303,3.280896
896.000000,0.002000,-0.371381,-0.116155,0.303983,-1.397535,1.467228,-1.259977,11.101261,4.052987,-10.287005
897.000000,0.002000,0.101403,0.160055,-0.160742,0.779836,-2.164014,1.271038,-6.393352,-10.665050,11.091842
898.000000,0.002000,0.464684,-1.237988,-0.985754,-0.057180,3.365848,-1.322233,-1.682888,3.858665,3.645330
899.000000,0.002000,-0.354735,0.414333,0.069824,-0.441752,-0.334489,-2.410491,10.746079,-10.690657,-0.449424
900.000000,0.002000,-0.009776,0.623584,0.214494,-1.739430,-3.268281,-0.385897,2.212581,-13.401618,-3.149560
901.000000,0.002000,-2.128634,-1.923719,-1.513004,-0.024944,0.936880,0.399445,1.223701,1.128199,0.877355
902.000000,0.002000,0.480690,0.217492,-0.063626,-1.211719,0.295643,-0.834778,-16.615620,-3.566637,1.032750
903.000000,0.002000,-0.177280,-0.082917,0.165836,2.148899,2.452538,-2.152825,9.524389,6.874716,-11.658884
904.000000,0.002000,0.261075,-0.446052,0.011346,-2.421774,1.381047,-0.079073,-9.823873,14.039089,-0.319002
905.000000,0.002000,-0.184091,0.245397,-0.798008,-0.926177,-1.208901,2.492225,3.186058,-4.153777,11.031864
906.000000,0.002000,0.173836,-0.076638,0.225084,1.362307,4.022439,0.501197,-9.441607,4.624126,-13.175744
907.000000,0.002000,0.305250,0.279499,-0.274602,-2.080130,-1.477960,2.814304,-8.427721,-1.314836,10.063738
908.000000,0.002000,0.535110,-0.302286,0.064657,-2.018398,0.290382,1.313671,-11.495037,8.940065,-1.224003
909.000000,0.002000,-0.984686,0.018151,0.669745,2.054593,0.291924,-0.836004,13.386129,2.132832,-3.952972
910.000000,0.002000,-2.357052,0.221859,3.025321,-0.032248,1.029469,0.935305,0.833723,-0.076680,-1.068788
911.000000,0.002000,0.619142,0.235703,-0.068823,-2.176127,-0.836098,1.851844,-13.147621,-2.898747,1.026940
912.000000,0.002000,-0.635935,-0.486065,1.735996,0.476488,-0.424298,-0.892474,1.392532,1.052702,-3.985985
913.000000,0.002000,-0.706558,-0.725165,1.060403,-1.629259,1.106082,-1.438017,2.998989,3.349025,-4.588501
914.000000,0.002000,0.155996,-1.118470,-0.613062,0.706622,-4.135225,1.423945,-1.494261,6.837235,3.341604
915.000000,0.002000,-0.138986,-0.199666,0.268228,2.810584,-0.084737,-3.044479,3.669804,7.717998,-11.356622
916.000000,0.002000,1.184467,-0.226479,-1.344434,-0.692823,-0.581510,0.399072,-3.292676,0.375193,3.433331
917.000000,0.002000,0.910744,-1.927253,-1.789406,2.228716,0.797237,-0.987484,-0.835890,1.614278,1.557934
918.000000,0.002000,-0.269985,0.212603,0.153501,1.563671,-1.755470,0.683087,11.060576,-3.649198,-3.374878
919.000000,0.002000,-0.783510,0.131956,0.034662,0.820818,0.840785,-2.071241,12.348589,-2.625329,0.281952
920.000000,0.002000,-0.490271,1.163017,1.010485,1.115653,-0.238839,-2.498517,1.870037,-3.580258,-2.877027
921.000000,0.002000,0.217528,-0.352986,0.142515,-1.765382,2.201780,1.034240,-7.978155,11.210544,-6.101250
922.000000,0.002000,0.262691,0.385471,-0.461310,-2.934723,2.362611,2.412558,-4.834062,-8.275244,10.571595
923.000000,0.002000,0.483033,-1.086180,-1.380321,2.766846,1.193465,0.383170,-1.309673,2.946235,3.556494
924.000000,0.002000,-0.647941,1.103107,-0.384180,-2.108140,-1.438818,1.228914,3.327141,-6.113946,2.016469
925.000000,0.002000,0.489945,0.041858,0.738009,-0.666847,-1.891513,-0.540290,-4.061202,-0.460802,-9.488918
926.000000,0.002000,-0.763552,-1.393399,1.622927,0.699203,0.791752,0.370061,1.095565,2.122484,-2.446330
927.000000,0.002000,0.102043,0.694971,-0.823191,-1.019827,-0.869836,1.968622,-0.841760,-5.900836,7.203290
928.000000,0.002000,0.119718,0.260502,0.242121,-1.314768,-2.405801,-1.630522,-5.016377,-8.415351,-11.203364
929.000000,0.002000,-0.022537,1.880599,-1.183665,1.379642,0.672984,1.120429,-0.469032,-2.730904,1.499546
930.000000,0.002000,0.287813,1.831359,1.088535,-1.312863,0.457701,-1.460644,-0.491519,-3.203526,-1.883257
931.000000,0.002000,0.234507,-1.043486,0.322275,0.813839,1.534537,-1.576356,-0.079022,7.056718,-2.201656
932.000000,0.002000,-0.979887,0.354458,0.076770,1.474685,-0.056921,0.968851,8.903554,-4.100459,-0.186469
933.000000,0.002000,-0.677787,0.251134,-0.434255,1.626652,-0.776940,2.895786,9.272385,-3.701367,6.040601
934.000000,0.002000,0.771088,-0.441847,-1.108956,-0.404077,1.327388,2.255162,-3.646382,0.803186,5.524642
935.000000,0.002000,-0.156648,0.118177,0.223134,0.571646,-1.329594,-2.574056,4.611117,-4.747002,-9.603743
936.000000,0.002000,0.797648,-1.764076,-0.851485,-0.372995,1.806061,0.616478,-1.467318,3.245841,1.476748
937.000000,0.002000,0.198618,0.823841,0.413399,-0.148982,-2.765051,-1.563004,-2.152383,-9.179144,-4.451017
938.000000,0.002000,1.966266,0.213998,0.281891,-1.011638,1.258331,-0.177865,-4.116303,-0.455876,-0.650908
939.000000,0.002000,-0.015943,-0.356918,-0.285433,2.877392,1.464395,2.302339,1.154067,11.141557,10.701279
940.000000,0.002000,-0.303607,-0.193661,0.440810,2.117910,1.316626,-0.633141,7.563204,4.605248,-12.175855
941.000000,0.002000,-0.398551,-1.356783,-0.291168,-0.036116,-1.626790,-0.497243,1.820125,6.597123,1.071147
942.000000,0.002000,0.681209,0.120923,0.291274,-0.027090,1.464101,0.338459,-10.761451,-1.342572,-4.964619
943.000000,0.002000,0.130952,0.584762,0.459899,0.966684,-1.286013,-2.389906,-2.370336,-9.255517,-7.987192
944.000000,0.002000,0.366265,0.171861,0.839338,-2.682226,1.955642,-0.928849,-3.916588,-1.265934,-9.224292
945.000000,0.002000,-0.209987,0.822691,1.280312,2.509496,0.125311,-0.883864,0.640508,-3.280209,-5.097500
946.000000,0.002000,-0.015852,1.027670,-1.576915,0.223422,-0.829624,0.254164,-0.094598,-2.500770,3.651609
947.000000,0.002000,-0.789168,0.446533,-0.623183,1.864182,0.390506,-2.435479,5.897437,-3.802154,4.773941
948.000000,0.002000,0.429697,0.277561,-0.043534,0.347898,0.659856,2.971767,-15.204023,-10.057080,1.899197
949.000000,0.002000,0.233430,0.280591,-0.143550,-0.858204,-3.759181,-1.639186,-9.548916,-10.098403,7.037309
950.000000,0.002000,0.709078,-0.066917,-1.090748,-0.990811,0.381753,0.511648,-3.992298,0.335127,5.887012
951.000000,0.002000,-0.624334,-0.111903,-0.136298,-0.696831,0.403546,1.194539,13.331237,1.731683,4.640807
952.000000,0.002000,0.526297,0.271300,-0.353872,-2.546783,0.466351,2.144118,-11.698101,-3.578981,5.880813
953.000000,0.002000,-0.116367,-0.301972,0.023118,-2.568018,0.715811,3.050915,5.603736,14.524821,-4.084304
954.000000,0.002000,-0.683193,0.913507,1.837735,1.027736,1.069400,-1.689097,1.172103,-1.557903,-3.264564
955.000000,0.002000,-1.403162,-0.016931,-0.121964,-0.202670,0.754960,-3.207395,6.617777,0.238914,0.395018
956.000000,0.002000,0.855437,-0.349465,-0.522707,0.608009,2.767551,2.860518,-6.568426,2.811606,3.876197
957.000000,0.002000,0.989039,0.170181,1.740471,-1.072774,-1.052719,0.574028,-1.993689,-0.323940,-3.562778
958.000000,0.002000,0.555417,0.385587,-0.062540,-0.814710,1.605395,0.913967,-11.298727,-7.423116,0.980044
959.000000,0.002000,-0.546867,-0.378258,0.002517,0.183475,2.504994,-1.669200,10.844017,7.126872,-1.208949
960.000000,0.002000,0.226962,-0.042253,0.171739,3.057568,1.419302,-0.495337,-16.575100,3.431954,-12.188628
961.000000,0.002000,-1.101924,-2.382398,0.138815,-0.389622,0.448812,-0.579066,1.096331,2.446271,-0.111293
962.000000,0.002000,-0.714769,0.916531,-0.395063,0.968686,-1.944641,0.446448,4.681136,-5.775249,2.548815
963.000000,0.002000,-0.049341,0.358320,-0.386758,1.727160,-1.170635,-2.002506,2.594481,-9.176317,13.019617
964.000000,0.002000,-0.325917,-0.226038,0.852736,1.051499,-2.228224,-2.741898,3.877747,1.970772,-9.741005
965.000000,0.002000,0.784914,0.986524,1.243524,-0.857945,-1.770407,-0.856865,-2.188272,-2.707741,-3.587692
966.000000,0.002000,0.036833,0.999099,0.183026,-3.022040,-2.731201,-0.302557,-0.696985,-10.365284,-1.417339
967.000000,0.002000,0.141906,-1.836035,-2.216567,0.968387,1.233334,-0.990945,-0.191138,1.483241,2.093184
968.000000,0.002000,-0.206036,0.413449,0.445851,1.587888,0.517340,-0.545745,4.993221,-8.898067,-11.860783
969.000000,0.002000,-0.961284,-1.602942,0.378269,0.654727,0.979518,0.733509,2.302598,3.726699,-0.757771
970.000000,0.002000,-0.223235,-0.103534,-0.064467,1.308809,2.579717,2.355317,11.438305,3.528162,4.402083
971.000000,0.002000,-0.872385,0.017191,-0.242359,1.868226,0.815802,1.877315,10.450824,-1.029599,2.893782
972.000000,0.002000,-0.117413,0.263011,-1.061526,-2.721612,-0.388294,1.605410,1.275290,-2.054569,8.543317
973.000000,0.002000,-0.351652,-1.690334,0.917165,0.059742,0.172660,-0.793601,0.695213,3.716865,-1.952865
974.000000,0.002000,1.106691,-0.529758,-0.225484,-1.924194,-2.875591,2.135847,-6.469012,3.531635,1.379674
975.000000,0.002000,0.242005,-0.209978,-0.150467,-0.529355,1.958130,-1.619616,-10.264235,8.189284,4.717433
976.000000,0.002000,0.176364,0.607544,0.399401,2.572225,0.984205,0.386611,-3.678531,-10.272871,-7.038804
977.000000,0.002000,-0.143831,-0.466862,-0.310695,-0.047726,-1.090366,2.049888,3.344503,12.146122,8.112840
978.000000,0.002000,-0.163084,-0.224230,-0.713400,-1.559249,-1.929347,1.236991,2.587136,2.926022,11.739381
979.000000,0.002000,-0.930586,-0.856810,0.176090,1.577230,1.614949,-1.078520,5.378907,5.052325,-1.077359
980.000000,0.002000,-0.665405,-1.669306,-0.523715,0.093013,1.236210,-1.809450,1.502455,4.231465,1.186508
981.000000,0.002000,-0.041538,-0.893907,0.752687,-0.294961,2.102486,-1.830005,-0.047492,6.324882,-5.343079
982.000000,0.002000,0.989631,0.688733,-0.051927,-1.165749,0.097713,2.647485,-6.875362,-4.414679,0.613468
983.000000,0.002000,-0.524421,0.123330,-1.998273,1.870105,0.704630,0.499167,0.872503,-0.254361,3.808409
984.000000,0.002000,0.069103,-0.435150,-0.378607,-1.108798,3.736701,-0.105242,-1.079532,11.015693,8.466184
985.000000,0.002000,-0.272046,0.196721,-0.414232,1.036756,-2.090781,2.724822,7.536261,-5.986498,13.687466
986.000000,0.002000,-0.077323,-0.109869,-0.499109,-0.700035,3.985945,-1.006707,4.677674,-0.998160,14.827635
987.000000,0.002000,-0.115959,0.486052,-0.256975,0.419852,-1.701701,3.366576,4.145193,-13.324194,6.861369
988.000000,0.002000,-0.394719,0.350259,0.514894,-0.972062,-1.015669,-1.650352,6.885552,-5.910892,-9.152143
989.000000,0.002000,-0.455173,0.057513,0.587648,-0.793912,0.423417,-3.110292,6.421483,-1.449840,-10.375793
990.000000,0.002000,-0.071927,-0.003825,-0.127133,1.101053,2.608470,0.926630,8.526288,-1.172983,15.901430
991.000000,0.002000,-0.081578,-0.913179,-0.098025,2.188311,1.149710,0.363947,0.752313,11.817030,0.715687
992.000000,0.002000,-0.102291,0.631032,2.445246,0.523254,0.542106,-0.082149,0.141596,-0.714859,-2.816583
993.000000,0.002000,-0.080977,-0.125593,0.006600,-1.575556,-2.722577,1.958566,6.404163,11.933242,-2.416413
994.000000,0.002000,-0.709474,-0.615382,1.329354,0.585654,0.263625,-0.363761,2.498256,2.099020,-4.566891
995.000000,0.002000,-1.313204,-0.461954,-0.230761,2.627121,1.477637,-0.432263,6.127522,2.249393,1.002009
996.000000,0.002000,-0.191245,1.351344,-0.178159,0.242048,-2.526555,-0.969837,0.852646,-6.653083,1.179716
997.000000,0.002000,0.230089,-1.411677,-1.515180,1.591289,1.204094,-1.227519,-0.403471,2.623892,2.774751
998.000000,0.002000,0.616938,0.121235,-0.288949,2.635516,-1.592239,0.226084,-12.318600,-1.523577,4.969170
999.000000,0.002000,0.216037,2.306569,-1.527833,-0.249219,-0.271839,-0.632068,-0.242619,-1.972528,1.310220
1000.000000,0.002000,-0.040024,-0.258304,0.542407,0.438871,3.207910,-0.527220,1.241148,6.527154,-12.869276
1001.000000,0.002000,0.110777,0.915024,-0.132012,-3.436404,-1.059553,0.342835,-1.362617,-10.688818,2.085940
1002.000000,0.002000,0.305494,-0.879597,-0.639738,-0.518077,2.238442,0.342931,-2.886916,7.002001,4.496291
1003.000000,0.002000,0.022822,0.422691,-0.016094,-0.182843,-1.228432,4.118858,-0.507107,-17.922330,1.760867
1004.000000,0.002000,-0.426608,0.301473,-0.155171,-0.093219,-1.629267,1.652422,11.386062,-8.926328,5.162799
1005.000000,0.002000,-0.410126,-1.974603,-1.748531,-0.588782,-0.202471,0.134187,0.429234,1.974808,1.756000
1006.000000,0.002000,0.333853,-0.324131,-0.011968,-1.204116,2.625421,-0.098190,-12.567521,10.726319,-0.012916
1007.000000,0.002000,1.745084,0.653189,-2.632719,1.235431,1.308822,0.812756,-1.009156,-0.384041,1.551845
1008.000000,0.002000,-0.021076,-0.941959,-0.904279,0.363194,0.663009,0.058688,-0.039877,5.206555,5.209039
1009.000000,0.002000,0.356681,-1.187713,-0.042649,-1.578782,2.109369,-0.518077,-2.676833,7.053915,0.512694
1010.000000,0.002000,1.720002,-0.243556,0.714382,-0.818621,0.881227,-0.014292,-3.811931,1.129759,-1.995702
1011.000000,0.002000,0.193252,0.046762,-0.833304,-2.318889,-0.533577,1.666841,-2.654612,-0.707295,10.566564
1012.000000,0.002000,-0.829519,1.661549,0.064085,0.490985,0.321865,-1.151085,2.211606,-4.363197,-0.158370
1013.000000,0.002000,-0.591959,-0.757350,0.126595,1.418005,2.235293,2.741147,4.787823,7.515447,-1.579052
1014.000000,0.002000,1.180637,-0.288487,1.017141,-1.575581,-0.230645,-3.063250,-3.871823,1.093963,-3.116963
1015.000000,0.002000,0.147364,-0.320547,-0.114791,-2.561437,-0.398717,-0.620811,-5.705574,11.138945,4.360546
1016.000000,0.002000,0.939888,-0.302136,2.273897,-0.422869,1.276950,-0.524870,-1.133606,0.374802,-2.635169
1017.000000,0.002000,0.143323,0.386572,0.681143,0.168664,1.591715,-1.395215,-2.627084,-5.319076,-11.529565
1018.000000,0.002000,0.793885,-0.083807,0.578490,-1.949019,2.211013,-0.917335,-8.177919,1.667959,-5.635506
1019.000000,0.002000,-0.010940,0.013365,-0.226148,2.177724,1.225878,2.560249,0.218026,-5.339248,13.168128
1020.000000,0.002000,0.366955,-0.562379,-0.397963,-1.961797,2.747422,-0.327578,-6.578176,8.535774,6.051056
1021.000000,0.002000,-0.095647,-0.728137,-0.304928,0.847621,1.956422,2.559506,1.604594,11.560585,4.290967
1022.000000,0.002000,-1.881419,-1.442786,0.359702,-0.441806,0.935519,-1.134476,2.513120,1.964400,-0.497295
1023.000000,0.002000,0.173603,-0.067148,0.600594,0.469167,-0.281644,-3.095045,-3.437575,0.714848,-13.012286
1024.000000,0.002000,-1.065712,-0.989747,0.500021,1.280128,0.830372,-0.002849,4.147367,4.048753,-2.004396
1025.000000,0.002000,-1.407406,-0.719624,-1.250847,1.548119,0.127802,0.082813,2.998878,1.516357,2.613126
1026.000000,0.002000,-0.216669,-0.305097,0.300201,-0.750251,1.370456,-4.800818,8.890634,8.784304,-10.691589
1027.000000,0.002000,-0.143792,0.134991,-0.097172,-2.683734,1.913911,1.753312,7.442953,-9.556623,7.740891
1028.000000,0.002000,-0.028437,3.750271,-1.289610,0.546193,0.370972,0.509925,0.002857,-1.197526,0.416690
1029.000000,0.002000,0.217871,-2.369930,-0.266531,-0.051688,0.449690,-0.347721,-0.225704,3.109504,0.373583
1030.000000,0.002000,1.538734,-0.452175,1.344038,-1.405319,0.173530,-0.202467,-2.826253,0.914618,-2.392363
1031.000000,0.002000,-0.148871,0.164934,-0.146775,0.628375,0.410521,2.094759,7.877348,-10.563825,9.323668
1032.000000,0.002000,-1.295869,-0.599003,-1.351141,-0.501508,0.394144,0.839314,3.218424,0.527065,3.288871
1033.000000,0.002000,0.465618,-0.989751,0.429050,-2.809575,0.181031,-0.332284,-2.777160,5.807773,-3.349220
1034.000000,0.002000,0.504521,0.226112,-0.681823,2.117808,-2.682134,1.066453,-6.070403,-1.485047,9.579296
1035.000000,0.002000,0.198720,-1.520164,0.155893,0.396010,1.838920,-0.531121,-0.805914,5.882686,-0.526380
1036.000000,0.002000,1.634540,-0.255350,-0.168328,-1.525361,1.339252,0.607639,-5.516176,0.303604,0.114231
1037.000000,0.002000,-0.112052,-0.247457,-0.016474,3.649262,0.458773,-0.114125,4.834002,12.323872,0.265584
1038.000000,0.002000,-0.193951,0.698571,-1.217801,-1.582649,-0.580822,0.647996,0.822018,-3.122211,5.434161
1039.000000,0.002000,0.172085,-0.357725,-0.114904,-1.166268,1.391057,3.239241,-6.343924,13.177426,2.018267
1040.000000,0.002000,-0.314816,3.742578,3.234902,-0.299758,-0.303167,1.374174,0.050874,-0.613153,-0.530984
1041.000000,0.002000,0.021809,0.715630,-0.712504,-0.208823,-3.325012,-0.170902,-0.953522,-5.459260,4.970589
1042.000000,0.002000,1.230078,-1.486001,-1.347356,1.766672,1.520781,-0.124213,-1.718630,2.082575,1.787494
1043.000000,0.002000,-0.116889,-0.050504,0.148678,2.935380,-0.002846,-0.998578,17.762200,3.771451,-14.589371
1044.000000,0.002000,-0.628913,-0.582583,-0.383419,1.322388,1.227938,0.442433,7.147662,5.365649,4.883657
1045.000000,0.002000,-1.558776,-0.275271,-0.163625,1.086474,0.891958,0.579666,5.943068,1.018091,0.377871
1046.000000,0.002000,0.303204,-0.321085,-0.783844,2.774442,0.598390,1.899698,-3.818615,3.058761,8.762059
1047.000000,0.002000,1.042558,-0.152618,-0.349013,-2.056247,0.554815,0.219614,-8.789089,2.037323,3.475615
1048.000000,0.002000,0.501814,0.394800,-0.201603,-1.041491,-1.465981,3.975579,-10.825964,-8.023292,6.069752
1049.000000,0.002000,-0.637630,-0.058741,-0.031400,1.636957,2.282946,0.394589,15.197886,0.336571,2.850278
1050.000000,0.002000,-0.057511,0.090090,-0.895181,1.219000,-0.431547,2.112211,-0.148142,-1.007691,10.185596
1051.000000,0.002000,-0.915919,1.046251,0.207943,0.643279,1.909353,-2.231162,3.931167,-5.130597,-0.867835
1052.000000,0.002000,0.141480,0.123291,0.320117,-1.694515,-1.542289,-0.262725,-6.001603,-2.008511,-14.033682
1053.000000,0.002000,-0.157897,-0.197218,0.341756,1.223601,-1.092300,-2.908628,4.982501,6.191806,-12.176678
1054.000000,0.002000,0.065647,1.729465,0.060460,0.030158,-0.358128,-2.419759,-0.108087,-5.233209,-0.130194
1055.000000,0.002000,0.374511,0.125308,0.067356,3.751020,-1.809574,-0.048208,-14.702585,-2.274380,-3.432332
1056.000000,0.002000,-0.108250,0.348621,0.333852,-0.657022,-3.541022,1.880988,6.797758,-9.653728,-13.095923
1057.000000,0.002000,-0.985754,0.485165,-0.314019,2.240136,-1.806685,1.663256,6.926734,-4.113403,2.515155
1058.000000,0.002000,-0.618249,-0.281210,0.475138,2.207143,-0.141794,1.450289,9.893121,5.239746,-5.952572
1059.000000,0.002000,-0.078277,-0.196222,-0.319920,4.062174,0.016108,2.435829,6.862827,5.687363,9.204030
1060.000000,0.002000,-0.396882,-0.444783,-0.216561,-1.025556,1.869294,1.946316,7.904078,9.866685,5.023550
1061.000000,0.002000,0.281143,0.370211,-0.008477,0.009492,-3.346537,-2.453428,-10.081941,-13.765143,3.510679
1062.000000,0.002000,-0.421461,2.120149,-0.267197,1.334786,-1.952948,0.213813,0.696064,-3.549579,0.471492
1063.000000,0.002000,-0.384010,0.144990,0.052966,3.334142,-2.514962,1.042710,15.576983,-6.622340,-1.436059
1064.000000,0.002000,3.091127,0.990633,0.084426,0.941771,0.025883,0.478792,-1.765656,-0.559080,-0.044498
1065.000000,0.002000,-0.181128,0.909701,-0.154694,-3.314014,-1.580607,2.663792,2.556800,-10.107818,2.329045
1066.000000,0.002000,0.080476,0.313900,-0.024547,-3.262366,0.623500,0.497171,-3.138762,-15.013912,1.067073
1067.000000,0.002000,-0.211228,0.376067,-0.939114,-0.342322,1.939301,2.525046,2.177618,-3.615810,8.135392
1068.000000,0.002000,0.402032,-1.498038,-2.173465,-0.050742,0.189458,1.268889,-0.423509,1.454537,2.143714
1069.000000,0.002000,-1.322826,0.475150,-0.373065,0.642863,-0.309009,0.278719,5.711471,-2.387642,1.689583
1070.000000,0.002000,0.331139,0.227704,-0.375683,-3.241080,-0.451186,2.047166,-7.641170,-3.734682,10.870326
1071.000000,0.002000,-0.256965,-0.271796,0.520536,0.846152,3.254170,-2.515226,4.572637,5.727695,-11.001709
1072.000000,0.002000,-1.214014,-0.715638,0.519277,1.431601,1.134239,0.810846,4.659836,2.908486,-2.221782
1073.000000,0.002000,0.490992,-1.062503,0.427802,0.339670,2.343039,2.151262,-3.529826,7.973728,-3.627285
1074.000000,0.002000,0.534900,0.324412,-0.404975,-1.141557,-2.843640,-0.554532,-9.368609,-5.806204,8.105360
1075.000000,0.002000,0.612099,0.629223,-0.528226,-0.092375,3.575695,1.618180,-5.794726,-6.221073,4.798745
1076.000000,0.002000,0.131261,0.030620,0.138051,-1.846152,-2.724738,-2.937318,-8.615322,-0.921886,-9.882731
1077.000000,0.002000,1.076877,0.707625,3.082995,1.433990,-0.979175,-0.166172,-0.585077,-0.382565,-1.609393
1078.000000,0.002000,-0.294131,-0.240714,0.951239,0.864931,1.476941,-2.587268,2.380017,2.436045,-9.316264
1079.000000,0.002000,0.310991,0.449321,-0.004146,-1.319897,-1.218230,-1.094382,-10.454707,-12.855537,-1.882510
1080.000000,0.002000,-0.204522,-0.311213,-0.316471,2.008370,2.644967,2.148193,6.696345,7.507423,11.249884
1081.000000,0.002000,0.229035,-0.536286,1.032822,-2.407587,2.423592,-0.208453,-1.824313,3.824489,-7.157587
1082.000000,0.002000,-0.464671,-0.181929,0.232153,1.925730,1.034685,-2.181070,12.691952,4.370101,-7.135096
1083.000000,0.002000,0.614684,0.207555,-0.614977,-1.459237,-0.569196,3.636703,-8.178073,-2.044137,8.860760
1084.000000,0.002000,0.832400,-0.068599,0.233212,-3.010116,-2.698338,-0.209855,-10.922345,1.555890,-3.152212
1085.000000,0.002000,-0.237093,1.741335,0.103923,-0.277592,-1.378294,-1.649151,0.802072,-5.248458,-0.289041
1086.000000,0.002000,0.648579,-0.080875,0.106615,-0.947348,1.186702,0.466434,-12.994988,2.927935,-1.140679
1087.000000,0.002000,0.911329,0.272974,-1.435429,-1.090265,-1.604671,1.250621,-2.678320,-0.881872,4.221007
1088.000000,0.002000,0.953477,1.631474,-0.504890,0.312965,0.376471,2.230191,-1.798591,-3.795952,1.089700
1089.000000,0.002000,0.092959,-1.229372,0.397614,0.082958,2.390494,0.134690,-0.618940,6.795054,-2.360159
1090.000000,0.002000,-0.731306,-0.580380,0.582162,3.625919,0.946712,1.582152,5.818432,4.961612,-4.964387
1091.000000,0.002000,-0.034346,0.408898,0.312833,1.738522,-3.755663,-1.446744,0.494531,-13.607677,-9.777976
1092.000000,0.002000,-0.354456,-0.397325,-0.513884,1.257380,2.254519,0.720991,6.259499,6.081866,8.255131
1093.000000,0.002000,-0.520857,1.601424,1.909113,1.095580,0.562908,-0.804064,0.554957,-1.844052,-2.195572
1094.000000,0.002000,1.090650,1.511201,0.468317,-0.902432,0.998752,0.921809,-2.776500,-3.795437,-0.794163
1095.000000,0.002000,-0.417747,1.101502,-0.449347,0.382084,-2.462874,0.742019,2.579398,-6.816899,2.929967
1096.000000,0.002000,0.575659,-0.036152,-0.414716,-3.440988,2.497128,0.600579,-11.544460,1.440696,7.127972
1097.000000,0.002000,-0.753978,0.405482,-0.719147,2.763363,-0.057724,1.996478,5.859865,-3.196075,5.353030
1098.000000,0.002000,0.878128,0.413168,-0.468859,-2.889121,-0.625305,-1.331991,-7.635271,-3.329727,3.876740
1099.000000,0.002000,0.331900,-1.789532,0.068952,-0.221171,0.168009,-0.167887,-0.824624,4.679952,-0.116429
1100.000000,0.002000,1.510903,1.285724,-0.281662,-1.480615,1.600828,1.561463,-3.069992,-2.659848,0.614172
1101.000000,0.002000,-2.261310,-0.914573,-1.323478,-0.105820,-0.108702,1.137745,2.038578,0.811196,1.199010
1102.000000,0.002000,0.544024,0.818086,0.098199,-1.702781,-1.362729,2.038981,-5.492185,-8.114407,-0.124843
1103.000000,0.002000,-0.329900,-0.051084,0.327910,-0.996139,2.018820,-1.239751,10.413554,4.325828,-12.333334
1104.000000,0.002000,-0.046866,0.176302,0.067304,-1.022454,0.544932,-2.303620,1.993943,-11.452842,-4.388804
1105.000000,0.002000,-0.504370,0.334199,-0.049952,3.997276,-0.355154,0.239043,11.188498,-8.745664,2.071863
1106.000000,0.002000,-2.351555,-1.622584,-2.206437,-0.219419,0.545386,-0.291648,0.980578,0.681177,0.946176
1107.000000,0.002000,-0.028262,0.021136,-0.032506,-1.598623,-0.327467,-1.079270,-0.275389,-2.542418,1.176996
1108.000000,0.002000,-1.123771,0.758185,0.617020,1.347296,-1.394650,-1.217475,4.736330,-3.330949,-2.491375
1109.000000,0.002000,-0.018561,-0.088901,0.581741,2.133992,-2.912045,-0.376688,1.551887,3.364354,-14.163156
1110.000000,0.002000,-1.328350,-0.310200,1.125364,1.620860,2.641782,0.021243,3.547217,0.914462,-3.453896
1111.000000,0.002000,-0.064487,-0.072877,0.179527,0.394046,-2.454650,-0.889860,2.719973,8.020386,-17.629339
1112.000000,0.002000,-0.225737,1.434232,1.004008,-0.744363,-2.123692,-1.328755,0.840991,-4.479591,-3.406192
1113.000000,0.002000,0.410907,0.103705,0.599854,0.876693,-1.163303,-1.890814,-6.825121,-1.682492,-11.148107
1114.000000,0.002000,1.124655,-0.274792,-1.376830,-0.343573,-0.477894,-0.407514,-2.746455,0.771671,3.792933
1115.000000,0.002000,0.225577,-0.103419,0.628098,0.022975,1.133550,-3.753588,-4.583249,2.582354,-12.591116
1116.000000,0.002000,1.498981,-1.087641,0.471405,-0.620347,-0.855421,-0.288961,-3.353686,2.432796,-1.064691
1117.000000,0.002000,-0.586353,0.915010,0.227512,0.033473,-2.002571,-2.109109,4.482297,-7.719761,-1.961786
1118.000000,0.002000,0.929032,-0.196593,-0.062700,-1.340413,-2.101884,-1.441229,-9.977764,2.686527,0.950004
1119.000000,0.002000,-0.429127,0.327654,0.396189,-2.651311,-1.929833,-1.070911,8.897454,-7.291504,-8.334929
1120.000000,0.002000,-0.752834,-0.393357,0.083675,1.169957,3.434656,0.029961,10.549814,6.506210,-1.666783
1121.000000,0.002000,-0.176759,0.169344,0.336995,2.103809,-0.467357,-3.419872,7.565838,-6.580504,-13.092199
1122.000000,0.002000,-0.094368,-0.055384,0.003095,-0.099878,1.330366,2.815361,10.011843,7.445817,-2.103513
1123.000000,0.002000,-1.342932,1.276996,-1.589649,0.587735,-0.525730,0.875326,1.655565,-1.547636,2.051805
1124.000000,0.002000,-0.777164,-2.262819,-0.670220,0.537709,0.847054,-0.405339,0.906526,2.701235,0.784005
1125.000000,0.002000,0.073837,-0.170324,0.088740,0.564213,2.285853,-0.468819,-7.992065,9.645526,-7.068200
1126.000000,0.002000,-0.042388,-0.907705,1.941091,1.422080,0.453717,-0.728591,-0.002153,1.586245,-3.380496
1127.000000,0.002000,0.240660,1.165650,0.134004,0.911705,-1.372742,1.953412,-0.991347,-7.926879,-1.034545
1128.000000,0.002000,1.739510,0.812970,0.586238,-0.694117,-1.774116,0.303844,-3.633025,-1.801011,-1.153923
1129.000000,0.002000,-0.639115,0.077496,0.144757,2.985748,-0.309502,-0.027210,14.631885,-3.111271,-2.469728
1130.000000,0.002000,-0.837906,-0.935835,-1.041486,-1.366850,0.910077,1.881563,2.859128,3.408288,3.711977
1131.000000,0.002000,-0.318441,-0.039591,0.328210,0.103647,0.207458,-1.187954,5.044989,-2.442188,-12.404770
