# 
#                 columns are tag, mass, x, y, z, vx, vy, vz, ax, ay, az
#                 Time=0.900000
# 
1.000000,0.002000,0.726781,0.350842,0.547820,-3.367554,-0.810442,-1.966365,-11.112466,-4.924512,-7.873643
2.000000,0.002000,1.786880,1.929429,-0.806300,-1.167611,-0.590845,0.479407,-1.626508,-1.746871,0.673494
3.000000,0.002000,-0.086947,0.267595,0.239166,4.006259,1.008871,0.620523,8.277739,-23.046995,-17.675152
4.000000,0.002000,-0.300851,0.077600,-0.838413,-0.741346,2.226707,0.761264,5.020082,-1.698364,15.862290
5.000000,0.002000,-0.237564,-0.233984,0.115572,2.146699,-0.005279,1.283156,20.399438,19.085791,-10.841167
6.000000,0.002000,0.048406,-0.507612,-0.214312,1.028089,0.443195,-1.941977,-2.420566,27.541858,11.517216
7.000000,0.002000,-0.778285,0.095044,-1.221348,-0.632044,1.205141,3.383517,3.959270,-0.429083,6.495818
8.000000,0.002000,-0.231567,-0.389635,0.173515,-1.949332,-4.731755,-0.620243,10.846939,23.400880,-13.395485
9.000000,0.002000,2.978109,-0.640653,0.594173,-0.058509,1.202775,0.476481,-1.893511,0.425676,-0.371655
10.000000,0.002000,-1.791673,1.606564,1.943462,-1.327595,-0.550052,-0.172754,1.026305,-1.046094,-1.431207
11.000000,0.002000,0.145063,-0.169596,0.135765,2.166794,0.482768,-4.528222,-13.478979,13.368970,-12.615950
12.000000,0.002000,-0.747310,-1.080729,-1.493779,2.541600,0.072762,-0.868611,1.618876,2.324966,3.471518
13.000000,0.002000,-0.184918,-0.628062,0.020287,1.821546,-1.619064,-1.061940,6.427721,25.665987,-1.023742
14.000000,0.002000,-0.034523,1.062212,-0.743656,0.600256,1.227295,3.152200,0.139657,-7.493851,5.065780
15.000000,0.002000,-1.309891,1.338842,-1.105909,1.286595,-1.575225,-0.109480,2.358458,-2.373137,2.028674
16.000000,0.002000,-0.069580,0.633747,-0.086014,-1.762155,2.141595,1.598631,4.389002,-27.568959,3.602876
17.000000,0.002000,-0.464717,0.222563,-0.018493,5.468723,-0.587571,2.166359,26.914019,-17.724705,6.200668
18.000000,0.002000,-0.193758,0.070173,-1.586383,-0.651803,0.797510,1.728077,0.522313,-0.139357,6.494795
19.000000,0.002000,0.130406,-0.063651,-0.030708,-5.462387,-3.437638,0.776342,-16.640143,8.504402,2.131489
20.000000,0.002000,0.092524,-0.052895,-0.070689,0.431847,-2.315251,-0.037393,-10.909360,10.099176,14.630249
21.000000,0.002000,-0.529660,-0.229289,-0.248916,3.283732,1.812461,2.991554,22.581930,9.658745,12.319873
22.000000,0.002000,-0.390375,-0.221633,-1.307938,2.938974,-0.340278,0.987781,2.234538,1.304800,7.751203
23.000000,0.002000,-0.514602,-0.295724,-0.309578,4.383372,-0.195757,2.739179,19.385660,11.748406,14.233714
24.000000,0.002000,-0.281570,-0.048049,-0.356184,-1.686294,2.393366,-1.709229,19.269624,4.514320,26.302839
25.000000,0.002000,0.231272,-0.051557,-0.270835,-4.808276,3.977011,0.891918,-20.511167,4.542971,23.089408
26.000000,0.002000,-0.007233,0.202814,0.158253,-1.348021,-2.486485,-1.841115,-3.505422,-19.481239,-11.674174
27.000000,0.002000,0.419510,0.078968,0.620881,-3.456077,-0.907196,0.956591,-12.707610,-1.801291,-17.276628
28.000000,0.002000,0.095355,-0.335246,-0.234145,-3.148117,0.785787,5.383697,-10.312519,19.904637,20.591902
29.000000,0.002000,1.322784,2.017883,0.983985,-0.768443,-0.694980,-0.653390,-1.440897,-2.134654,-1.010666
30.000000,0.002000,-0.277803,0.233084,-0.465721,-2.638600,-1.320775,-0.857505,12.594130,-9.636277,22.435506
31.000000,0.002000,0.080259,-0.060222,-0.228828,-1.482561,3.255864,1.059046,-11.857077,6.178017,25.825271
32.000000,0.002000,-0.601697,-0.182145,-0.087154,-1.542453,-0.486478,1.071059,25.243732,8.558210,4.536880
33.000000,0.002000,-0.129393,-0.683153,0.015376,-3.256981,-0.216097,2.390786,4.397151,25.427788,-1.171754
34.000000,0.002000,0.315290,-0.307509,0.613138,-3.566703,-3.774734,0.515073,-9.429958,8.649464,-16.929308
35.000000,0.002000,0.388808,-0.327825,0.252526,2.606141,-2.580647,-2.827650,-19.918098,17.083288,-12.053162
36.000000,0.002000,1.060569,-0.075942,1.138539,-2.835705,0.684562,1.237318,-4.608953,0.380047,-4.721102
37.000000,0.002000,1.114618,1.995463,1.634178,-1.361372,-0.042054,-0.841590,-1.004753,-1.754865,-1.454395
38.000000,0.002000,1.589410,0.067899,1.383953,-0.224025,1.186086,-1.673726,-2.995902,-0.096030,-2.573882
39.000000,0.002000,-0.589283,1.528660,1.532867,0.105390,-0.319793,-0.553546,1.010848,-2.557658,-2.587126
40.000000,0.002000,0.220435,0.019996,-0.271752,-0.443200,1.372921,1.991015,-21.009630,-0.944687,18.075170
41.000000,0.002000,-0.305996,0.095733,-0.299071,-1.003286,-3.841211,-0.820798,18.441464,-8.766386,19.371282
42.000000,0.002000,-0.378685,0.110433,0.370290,1.364820,-1.107069,1.353588,19.936289,-5.154471,-20.563160
43.000000,0.002000,0.075209,-0.490765,-0.239158,-1.281455,-0.015331,-5.104212,-4.216243,27.569340,12.970165
44.000000,0.002000,-0.292810,0.024635,-0.363384,-0.266799,-2.014585,0.401564,12.007929,-4.416765,24.357248
45.000000,0.002000,-0.124125,-0.239257,0.028876,-3.114746,-0.519259,-2.708353,9.142689,25.290281,-6.263382
46.000000,0.002000,0.576450,-0.574445,-0.104381,-3.635868,0.151520,0.823267,-13.591937,12.388620,2.133019
47.000000,0.002000,-0.099171,0.494148,0.381303,1.587063,3.773357,-1.754846,2.425389,-23.161831,-24.067592
48.000000,0.002000,0.192199,0.036656,0.191783,0.935531,0.507526,2.787823,-14.734830,5.284923,-21.496138
49.000000,0.002000,0.604048,0.209553,1.267875,-3.778883,-1.408320,1.252762,-3.521363,-0.986582,-6.909457
50.000000,0.002000,1.363702,-0.043476,-0.510989,-1.724741,2.049454,0.668287,-6.806963,-0.011253,2.631641
51.000000,0.002000,-0.540502,-0.056061,0.564100,2.324607,-4.154570,-0.217097,14.375843,6.794430,-13.870479
52.000000,0.002000,0.263928,0.047514,0.149172,2.682108,3.929760,-3.152231,-29.271132,-4.536404,-13.131996
53.000000,0.002000,-0.109624,-0.788234,-0.651722,-1.898441,2.463949,2.420607,3.626253,11.114734,8.898938
54.000000,0.002000,0.053301,0.111462,-0.431581,-0.225975,-0.596982,-5.690618,-0.971107,-9.464458,30.548461
55.000000,0.002000,-0.416735,0.483667,0.589625,-1.323225,-3.691699,1.555791,3.670289,-8.937704,-15.697903
56.000000,0.002000,-0.122318,-0.541164,-0.351010,-1.235491,3.394664,3.837608,5.764164,20.840510,12.075698
57.000000,0.002000,-0.302289,-0.342903,-0.080521,2.222256,0.055445,2.400330,20.654165,26.140300,9.390661
58.000000,0.002000,-0.415349,-0.274397,0.235944,-0.984228,0.484284,-0.329880,22.929454,16.000339,-10.611418
59.000000,0.002000,0.031850,0.172543,0.076839,3.507236,-5.384920,2.692441,-7.179395,-18.920406,-4.038000
60.000000,0.002000,-0.216245,0.324995,-0.154502,-2.478121,-0.705351,-0.115682,13.697575,-22.274092,15.026512
61.000000,0.002000,0.021520,0.351279,0.134879,4.348868,0.124928,3.992005,-6.212877,-24.356173,-13.727431
62.000000,0.002000,-1.417113,1.115331,-1.035962,1.949426,-0.082786,1.342871,2.866506,-2.204875,2.118629
63.000000,0.002000,0.468565,0.108417,0.377238,1.465639,1.322587,1.448906,-21.760455,-3.135665,-15.260030
64.000000,0.002000,0.787743,-0.169825,-1.194641,-2.600264,1.997610,-0.336024,-3.999556,0.989337,6.444212
65.000000,0.002000,-0.079191,0.183244,-0.392664,1.447449,4.501814,3.184477,5.154013,-10.764184,25.703430
66.000000,0.002000,-0.480356,1.029921,0.992802,0.394896,-1.359521,-1.361264,2.472054,-5.459072,-4.966079
67.000000,0.002000,2.166868,-1.993698,-0.936702,-0.969590,-3.365191,-0.307081,-1.414312,1.295812,0.596676
68.000000,0.002000,0.249459,-0.354907,-0.362707,0.767166,3.207703,0.965290,-13.199829,12.680040,19.437801
69.000000,0.002000,-0.623528,0.874004,0.162888,1.426330,2.275041,-1.969067,7.406531,-10.391956,-1.681055
70.000000,0.002000,0.330018,0.086403,-0.280980,-0.498730,0.973136,-1.071311,-22.923744,-4.948088,17.976756
71.000000,0.002000,-0.439721,0.228166,-0.377431,-1.002084,2.548849,-0.479634,17.185513,-9.475333,19.628169
72.000000,0.002000,0.159249,0.253627,0.021655,-1.383508,-2.246151,-0.608043,-14.913893,-10.110765,-3.716612
73.000000,0.002000,0.001938,-0.361045,-0.865539,-0.084595,-3.268537,-0.587598,-0.023027,5.818922,13.813889
74.000000,0.002000,0.006014,0.266398,0.184645,0.647220,0.728551,5.755233,-3.420295,-22.911516,-16.679750
75.000000,0.002000,-1.801368,0.861303,-1.191793,-0.498634,-0.102956,1.399669,2.710218,-1.230870,1.745757
76.000000,0.002000,-0.190179,-0.366360,0.200035,-0.964510,-2.270490,2.085872,11.840528,21.435192,-13.394529
77.000000,0.002000,0.090856,-0.026631,0.315325,-1.768884,-0.526019,-3.107196,-12.478233,2.389664,-24.772094
78.000000,0.002000,0.113791,0.146290,0.087392,-2.924667,-3.187526,3.390392,-19.806364,-9.542786,-12.768571
79.000000,0.002000,-2.134230,1.395149,3.385035,-0.711836,0.426283,1.542055,0.557774,-0.378707,-0.898936
80.000000,0.002000,-1.039003,-0.571151,-0.467526,3.494520,-0.500579,-0.949551,7.433796,4.498298,4.103386
81.000000,0.002000,-0.278398,0.011761,-0.021562,-2.476025,-2.505536,-0.281783,24.867103,0.984600,2.800968
82.000000,0.002000,-0.139949,-0.836155,-0.055065,0.814455,2.381300,3.680475,1.385374,18.328689,2.144599
83.000000,0.002000,0.953690,-0.373814,-0.412202,-2.672364,-1.815713,1.819330,-9.591598,4.263122,4.598707
84.000000,0.002000,-2.765310,0.966604,-0.223683,-0.340891,0.089210,0.584571,2.123756,-0.740210,0.206631
85.000000,0.002000,-0.042251,-0.146727,-0.158678,0.173961,-1.451099,2.774181,0.051636,16.491530,21.231802
86.000000,0.002000,0.031271,-0.246357,-0.842580,-1.340047,1.606295,3.632789,-0.764749,4.856984,15.873788
87.000000,0.002000,0.844179,0.574346,-1.207274,2.473537,-0.955195,1.946398,-3.928382,-2.542515,4.784124
88.000000,0.002000,0.017313,-0.199786,0.172241,-2.250793,-1.303930,-1.201201,-8.251186,24.353054,-14.159038
89.000000,0.002000,0.766463,0.083608,0.059640,1.200337,-2.110576,-3.777709,-19.707780,-1.606769,-1.730924
90.000000,0.002000,0.160288,0.104148,0.303292,2.395851,0.179440,3.637664,-15.640891,-3.896975,-24.579063
91.000000,0.002000,-0.004116,-1.766519,1.159760,-0.506017,2.115757,-1.567942,-0.021309,3.377141,-2.209379
92.000000,0.002000,-0.314129,-0.092547,-0.115786,0.196729,-3.652249,-1.861135,28.452162,10.810411,10.650864
93.000000,0.002000,0.170229,-0.775669,0.428726,-1.727338,2.416947,3.447235,-3.568443,13.877096,-8.360716
94.000000,0.002000,0.370257,-0.164747,0.739030,-3.910205,0.313499,-2.585929,-8.022284,3.180817,-15.456758
95.000000,0.002000,0.259623,-0.492427,0.019538,2.231016,-3.584316,0.990588,-14.607702,27.180265,-3.452582
96.000000,0.002000,0.668466,0.289027,-0.592593,-3.360068,1.956326,-1.374357,-9.796560,-3.373065,9.404103
97.000000,0.002000,0.314140,0.515737,-2.158657,-0.775420,-1.569309,-0.302380,-0.543363,-0.797332,3.491797
98.000000,0.002000,-0.016318,0.601194,0.507999,0.768361,-5.070071,0.972800,-0.483362,-15.959669,-13.908217
99.000000,0.002000,-0.295301,-0.505882,0.021645,-2.956424,-0.704548,0.188163,14.801486,26.633051,-4.126496
100.000000,0.002000,0.214927,-0.171031,0.185180,1.777940,-1.439967,2.149338,-19.700400,13.007848,-10.221424
101.000000,0.002000,-0.395105,-0.309577,-0.465851,4.161784,-2.566074,2.064069,13.580191,10.497371,17.906001
102.000000,0.002000,0.067410,-0.118434,-0.174493,-2.630949,2.087593,-1.135458,-9.051366,5.534952,20.904240
103.000000,0.002000,0.024592,0.169753,-0.261166,5.636232,3.222841,1.974103,-2.917362,-16.642833,24.260659
104.000000,0.002000,0.099945,-0.212565,-0.003114,-0.625625,-0.275411,3.865059,-15.543796,22.080199,1.528314
105.000000,0.002000,0.452533,0.257004,0.071758,-0.893321,-0.729791,-0.288726,-25.460447,-13.397459,-5.426883
106.000000,0.002000,-0.185312,0.030752,1.122241,-0.134030,0.165745,-1.841170,1.637572,-0.130723,-11.268732
107.000000,0.002000,-0.283515,0.270795,0.373925,-2.439166,1.256704,0.618231,15.163708,-15.909893,-20.731664
108.000000,0.002000,0.002205,-0.310127,0.210618,-2.375060,-0.224013,-2.390996,0.739660,27.357396,-16.457165
109.000000,0.002000,0.293625,-0.087031,0.432582,-1.732916,-1.143261,1.359556,-18.436416,5.051827,-23.144834
110.000000,0.002000,1.041962,0.231696,2.392932,-2.086919,1.101545,0.669085,-1.146814,-0.200062,-2.522799
111.000000,0.002000,-0.255151,0.374627,-0.402427,-1.034591,1.619308,-3.784769,8.146289,-14.948753,20.751470
112.000000,0.002000,-0.812820,-0.497256,1.029047,1.497758,3.626404,-0.668766,4.594976,2.995366,-6.108482
113.000000,0.002000,-0.309603,-0.916694,-0.050292,3.936902,0.655346,1.532005,4.788037,14.192665,0.909980
114.000000,0.002000,1.552144,0.814209,1.328103,-1.387586,-0.999432,1.440689,-2.627040,-1.334514,-2.208610
115.000000,0.002000,-0.784586,-1.045643,-1.157975,0.787807,1.548222,0.361859,2.476963,3.037963,3.795553
116.000000,0.002000,-0.851413,-0.968996,0.643956,0.858160,1.193493,-0.621960,4.328382,5.176309,-3.600581
117.000000,0.002000,-0.472879,-0.109886,0.320739,-1.191042,0.156655,-0.079639,23.031751,5.238451,-14.568463
118.000000,0.002000,-0.176856,0.461719,-0.656276,2.728608,-2.967725,2.224801,4.579684,-10.561537,15.327463
119.000000,0.002000,0.239596,0.058894,-0.231375,-0.147198,0.704549,6.727427,-18.229389,-6.286567,21.437962
120.000000,0.002000,0.408829,0.088665,0.159659,0.055346,-0.921826,2.493520,-31.749013,-3.494993,-9.265593
121.000000,0.002000,-0.348709,0.152113,-0.321971,0.199118,0.530877,1.399980,22.048184,-7.659838,18.439259
122.000000,0.002000,0.168596,-0.293901,0.208171,2.203629,-1.039173,1.566244,-12.786158,21.159392,-17.737409
123.000000,0.002000,-0.276336,-0.007168,-0.250132,-1.899662,-1.842889,-1.213179,20.048766,2.804585,18.969479
124.000000,0.002000,0.043718,0.019134,0.298653,5.897268,-2.525608,-0.452608,-10.371426,-0.295275,-22.941330
125.000000,0.002000,-0.301891,0.202008,0.120681,-0.003332,3.860087,3.906127,33.576179,-18.425281,-5.467147
126.000000,0.002000,-0.112829,-0.172176,0.673136,0.015534,0.014108,2.912657,2.678221,5.961780,-22.874763
127.000000,0.002000,-0.335210,-1.073991,-0.205439,0.954848,-0.360273,3.754917,3.021845,10.403391,2.032063
128.000000,0.002000,0.665708,-0.934390,-2.954942,0.099929,1.981445,-1.346741,-0.435212,0.553383,1.790187
129.000000,0.002000,-0.035831,0.617814,0.204908,-0.086254,4.193981,0.298348,-3.803883,-26.011745,-6.995338
130.000000,0.002000,-1.185047,-0.089695,1.587516,1.590992,-2.415622,0.452417,3.663068,0.252166,-4.069987
131.000000,0.002000,-0.272422,-0.154541,-0.042755,-0.044935,-3.909998,-3.260524,26.013259,16.295326,-4.674065
132.000000,0.002000,-1.422517,-1.016871,-0.454917,1.776982,0.020572,0.909785,4.157268,3.023538,1.317868
133.000000,0.002000,-0.170485,0.962073,0.195687,-1.422744,-2.814636,-2.570674,2.377781,-14.178949,-2.673479
134.000000,0.002000,-0.405612,0.289403,0.610335,-0.046432,-3.333037,1.554078,9.425241,-8.197641,-17.097254
135.000000,0.002000,-0.098677,-0.226282,0.576107,2.491624,-3.225296,1.481912,3.420971,10.805565,-24.945910
136.000000,0.002000,0.159850,-0.199254,-0.289641,3.003372,1.577831,-1.157229,-11.355016,15.618349,23.636295
137.000000,0.002000,0.086895,0.182225,0.289220,-3.859026,2.490951,4.555797,-15.596503,-14.122902,-24.513791
138.000000,0.002000,-0.753945,0.052629,-0.701365,-0.437713,0.563924,2.797444,9.619265,-0.590749,9.244993
139.000000,0.002000,0.286774,-0.383541,0.089102,-5.747838,0.452327,-1.387594,-20.569812,19.787536,-7.533525
140.000000,0.002000,1.420545,-0.203976,-0.153306,-0.724248,-2.441414,-2.903416,-7.416245,1.182357,0.606235
141.000000,0.002000,1.304598,0.404257,-0.804608,-0.894455,-0.673971,2.660529,-5.325087,-1.676381,3.156231
142.000000,0.002000,0.206947,-0.367686,-0.071076,0.907412,-1.716450,-0.067102,-15.983909,23.745535,5.518055
143.000000,0.002000,0.407961,-1.808197,0.027517,-1.025571,2.436773,0.768405,-1.297568,4.831116,0.001817
144.000000,0.002000,-0.168517,0.013336,0.156012,2.854847,2.620309,5.696128,20.641928,-3.943159,-18.975722
145.000000,0.002000,-0.490328,-0.041708,-0.026693,0.104844,0.566715,-2.970981,29.703465,1.660931,2.131179
146.000000,0.002000,0.058512,-0.134162,-0.329765,1.131498,2.031850,-0.335341,-5.328700,9.870430,26.166431
147.000000,0.002000,-0.142251,0.030241,-0.048109,3.295208,0.301543,-0.978371,18.318363,-1.437938,9.360966
148.000000,0.002000,0.364579,-0.160899,-0.213511,-2.603807,-3.465281,-1.171694,-25.483875,10.942503,13.533641
149.000000,0.002000,-0.408975,0.055575,-0.194996,0.728441,4.869256,1.554175,24.154587,-4.886440,11.550883
150.000000,0.002000,0.385857,0.264439,-0.246680,-0.264911,-0.676815,-1.430076,-22.601152,-15.266385,13.100873
151.000000,0.002000,-0.515740,-0.704901,-1.100732,2.670397,-1.216897,0.000212,2.903224,3.830068,6.347268
152.000000,0.002000,0.259636,0.948117,2.299406,-0.193518,0.281588,-0.932285,-0.360600,-1.158701,-2.763220
153.000000,0.002000,0.176409,-1.079679,1.378465,0.742313,2.706393,0.248091,-0.513742,3.227786,-4.299157
154.000000,0.002000,-0.219959,-0.029364,0.177925,4.477585,3.627828,2.573833,21.774081,3.486484,-17.379922
155.000000,0.002000,-0.011881,0.345620,-0.025191,-1.967986,2.403686,-2.649785,3.096432,-29.314434,6.707624
156.000000,0.002000,0.602449,0.347499,-1.643646,-3.079686,1.431455,0.389794,-1.789399,-1.039235,4.886260
157.000000,0.002000,-2.114686,-0.497705,0.612834,1.514394,-0.643467,3.037593,3.460157,0.826662,-1.402112
158.000000,0.002000,0.010325,0.432155,-0.036049,-2.400707,1.642339,-2.757994,-1.001834,-32.398854,6.296719
159.000000,0.002000,3.076504,1.242450,1.714021,0.873375,0.000537,0.058768,-1.158286,-0.456938,-0.646635
160.000000,0.002000,-0.096585,-0.344546,0.151153,4.442801,-0.546781,-4.179060,6.684190,24.341722,-14.686540
161.000000,0.002000,1.053403,-0.322186,-0.371753,-2.202847,-1.502262,1.918096,-11.173171,2.086591,3.649574
162.000000,0.002000,0.418851,-0.783688,-0.820802,0.408474,-1.117999,4.264378,-3.474317,6.294968,6.692863
163.000000,0.002000,-0.362241,-0.419977,-0.023682,1.831594,-3.503908,-0.814898,20.599489,24.361470,2.249829
164.000000,0.002000,0.178644,0.446357,0.197448,3.309295,1.147096,1.374530,-15.977456,-27.961367,-10.526784
165.000000,0.002000,1.749592,2.576697,2.415926,0.458351,1.055147,-0.754422,-0.563358,-0.824684,-0.790561
166.000000,0.002000,-0.034079,-0.190821,-0.097762,-0.643454,-2.204247,-1.183737,0.159306,20.014835,13.385870
167.000000,0.002000,-1.722127,0.257221,-0.742748,1.185190,0.204104,-0.767735,4.460135,-0.718625,2.046990
168.000000,0.002000,-0.134876,-0.984681,-0.451517,0.700886,-0.589890,2.638632,1.438005,10.983840,4.879075
169.000000,0.002000,-1.087462,-1.528541,0.041901,0.233598,0.470812,2.485136,2.905800,4.184366,-0.151377
170.000000,0.002000,-1.133714,-1.766247,2.069848,0.990086,-0.044278,0.155204,0.881750,1.386981,-1.521115
171.000000,0.002000,0.366513,0.874659,-1.731246,-1.021497,-1.424620,0.872485,-0.920554,-2.059270,4.037186
172.000000,0.002000,0.771096,0.475949,0.106455,-0.307131,2.121609,1.694899,-13.275635,-8.010047,-1.817665
173.000000,0.002000,-0.013141,-0.442296,0.250652,1.647515,-0.546244,3.296833,-0.727923,21.744460,-13.522917
174.000000,0.002000,-0.315252,-0.059827,-0.169653,-2.642045,1.479580,5.765077,24.908941,4.048109,18.715485
175.000000,0.002000,0.232468,0.255261,-0.008229,6.198519,-1.304993,-1.391480,-23.417533,-21.015976,5.817725
176.000000,0.002000,0.659737,0.600243,0.532720,0.837449,-2.222812,-3.185327,-9.534904,-7.224041,-6.343461
177.000000,0.002000,-1.063601,-0.177930,-1.270087,2.489186,-1.217600,2.244216,3.739013,0.644311,4.660980
178.000000,0.002000,1.243525,-0.729034,0.047927,-1.678751,-2.038373,-0.169050,-6.323293,3.894993,-0.423124
179.000000,0.002000,0.280581,0.529783,-0.010729,-0.892836,2.134119,-0.635578,-13.927563,-22.565283,1.234349
180.000000,0.002000,0.215555,0.295203,-0.052539,-0.654034,-0.846127,0.180945,-21.860221,-23.562799,6.101203
181.000000,0.002000,0.457128,-0.884903,0.170332,-0.963004,3.307499,0.460798,-6.636250,12.413783,-2.059051
182.000000,0.002000,-0.777003,0.067215,0.156287,-0.832889,-3.032751,-1.373910,19.955722,-1.289172,-3.879634
183.000000,0.002000,0.429391,-1.049077,0.735157,-1.375491,3.217562,-1.422426,-2.760015,6.573486,-4.676398
184.000000,0.002000,-0.141572,0.344232,0.023193,-2.259041,0.785731,0.937918,11.045310,-27.214579,-0.720119
185.000000,0.002000,-0.297090,0.332085,0.210847,3.221221,1.529311,-2.110291,18.989927,-18.893776,-15.046628
186.000000,0.002000,1.369511,0.094313,-1.486582,-1.133309,3.310525,-0.770805,-2.874589,-0.138886,3.221159
187.000000,0.002000,-0.987711,-0.425328,0.231856,2.404317,1.411441,-3.166695,10.907210,5.403696,-2.074514
188.000000,0.002000,-0.705282,-0.101078,-0.587026,1.039571,-0.295702,3.963167,12.205225,2.108215,10.626212
189.000000,0.002000,0.367862,-0.254970,0.168746,0.569409,-1.782642,2.285577,-24.243182,14.843379,-10.690387
190.000000,0.002000,-0.121553,-0.216277,-0.250975,1.464594,-0.597975,1.653099,10.400407,16.212675,24.327028
191.000000,0.002000,-0.034423,0.629420,-0.026192,1.738078,3.720023,-0.314835,1.047681,-28.884343,0.857949
192.000000,0.002000,-0.485466,-0.173687,0.283167,-0.707856,0.174666,0.649220,20.534287,7.066366,-11.640941
193.000000,0.002000,0.256313,0.419179,0.115419,0.776937,0.452665,-4.831708,-16.790923,-23.759699,-7.157866
194.000000,0.002000,0.208015,-1.133488,-0.906390,-1.585899,2.572094,0.712788,-0.951869,5.822639,4.481672
195.000000,0.002000,0.640374,-0.310798,0.135266,-0.575571,1.589229,-1.734541,-19.527422,8.752351,-4.687558
196.000000,0.002000,0.502306,0.058569,-0.063855,1.592463,-0.389357,0.755151,-30.070114,-4.658636,2.358750
197.000000,0.002000,-0.358929,-3.234448,0.900930,0.115421,0.535320,0.216889,0.150811,1.687530,-0.472107
198.000000,0.002000,-0.267233,0.122942,0.722087,0.757803,-3.052249,-0.428487,7.025100,-3.399223,-20.037075
199.000000,0.002000,-0.260063,-0.428989,0.201185,0.142897,4.407746,0.508154,12.754198,24.768180,-11.598313
200.000000,0.002000,-0.317880,-1.010624,-0.831463,0.497438,2.142719,0.635626,1.980768,6.883387,5.646011
201.000000,0.002000,-1.902968,-0.110190,0.427796,1.398968,-0.676315,1.572638,4.638725,0.206093,-1.028373
202.000000,0.002000,-0.019585,0.534472,0.033792,1.746786,1.323619,-3.698625,2.313741,-30.720170,-3.234235
203.000000,0.002000,0.052854,0.469726,0.173123,0.498772,0.581969,4.472606,-6.100489,-31.179785,-11.414721
204.000000,0.002000,-0.488761,-1.195225,-1.028997,0.354631,1.977138,1.499149,1.548170,4.523616,3.859108
205.000000,0.002000,-0.310898,-0.300362,-0.127026,0.570250,3.383763,-2.626318,28.633114,21.690276,10.392098
206.000000,0.002000,-0.255827,-0.248324,0.279820,0.241359,-0.241210,1.786869,13.377652,18.392671,-17.445595
207.000000,0.002000,0.441018,0.064124,-0.452834,-4.430848,3.163543,0.038276,-17.886871,-2.658694,18.418707
208.000000,0.002000,0.129409,0.144920,0.047775,-4.300080,-0.421822,-4.007767,-24.621519,-13.946854,0.954480
209.000000,0.002000,-0.054793,0.468035,-0.101722,-3.697458,3.052509,-1.358032,2.221357,-28.972209,9.722044
210.000000,0.002000,0.433468,0.370004,0.002873,-5.402143,-1.038715,-0.113637,-25.921013,-19.585183,1.560402
211.000000,0.002000,-0.016180,0.288597,-0.263404,-1.764413,0.418743,1.173847,-1.635844,-24.080025,23.255132
212.000000,0.002000,0.407076,0.141168,-0.066424,0.533391,-0.866012,0.911754,-28.604853,-11.513200,6.233475
213.000000,0.002000,0.249026,0.073625,-0.006755,-3.014437,1.380025,3.290541,-27.820518,-4.710641,0.164342
214.000000,0.002000,-0.893744,-0.536711,-0.197675,-0.948299,2.194978,-3.237591,10.667376,7.040835,2.812275
215.000000,0.002000,-0.474203,0.502878,0.618993,-1.630568,-2.388868,1.970617,9.247251,-9.057430,-12.214930
216.000000,0.002000,0.155524,0.033839,0.083391,-1.669509,4.325228,-0.356038,-29.601473,3.046319,-12.168830
217.000000,0.002000,0.141013,-0.488975,0.164841,0.947142,-1.130771,-5.095018,-9.337397,26.872546,-11.372856
218.000000,0.002000,-2.362452,-0.567305,-0.389876,1.227384,-0.842509,-0.974325,2.975839,0.734746,0.484377
219.000000,0.002000,0.209130,-0.171109,0.007199,5.086868,0.403881,-0.772692,-24.741248,21.577804,-4.750901
220.000000,0.002000,-0.815255,0.126318,0.125794,3.943070,0.529510,1.705127,19.060867,-2.863144,-2.586910
221.000000,0.002000,0.102147,0.035927,0.143781,1.883767,5.139486,-4.703394,-18.206730,2.875036,-20.809034
222.000000,0.002000,-0.231188,0.006504,0.205321,4.488668,3.655320,0.232141,21.311846,0.490356,-19.335706
223.000000,0.002000,0.060118,0.184835,-0.275989,-0.484247,-3.344439,5.845522,-6.086399,-16.479671,23.820409
224.000000,0.002000,-0.016726,0.401392,0.007649,-1.086047,-2.334410,5.962729,0.665639,-29.674159,1.217951
225.000000,0.002000,0.742831,0.404305,0.295501,0.742363,1.063698,2.608269,-13.467105,-6.695841,-5.183909
226.000000,0.002000,0.595092,-1.643717,-0.952191,-0.516605,0.981654,-1.929053,-1.442203,3.758422,2.174288
227.000000,0.002000,-0.470046,0.143403,0.444390,0.431951,1.755867,1.366555,16.982212,-4.308552,-17.306892
228.000000,0.002000,0.062139,1.354469,-0.303603,-1.961259,-1.730904,-1.378818,-0.865538,-8.018526,1.743487
229.000000,0.002000,-1.126177,-2.087958,1.788854,-0.270323,1.440075,-0.860299,0.817614,1.572667,-1.314871
230.000000,0.002000,-0.812293,0.261560,-0.020640,3.655357,-0.286316,-3.830185,18.136600,-5.546325,0.978197
231.000000,0.002000,2.284428,1.212489,-0.405074,1.159508,-0.435139,1.764001,-2.352437,-1.239991,0.419044
232.000000,0.002000,-0.256701,-0.352783,0.316238,4.200821,2.357421,-3.311934,11.981475,17.006022,-17.636098
233.000000,0.002000,0.029450,-0.138035,-0.836315,0.862061,2.816613,2.098592,-0.874824,2.283624,18.340809
234.000000,0.002000,-0.032824,0.200692,-0.178640,-3.195597,2.544817,5.905189,-1.197962,-22.922351,17.325514
235.000000,0.002000,-1.795628,-0.004873,0.618915,0.714891,-1.750299,-0.169005,4.756365,0.005674,-1.534959
236.000000,0.002000,-0.705152,-0.078649,-0.101407,-3.228511,1.374247,-1.276546,23.573618,1.274225,1.862622
237.000000,0.002000,-0.588314,-0.075490,0.230359,-0.457713,-0.080107,-0.069023,26.382363,2.665014,-8.535758
238.000000,0.002000,-0.105684,0.212309,0.086282,-6.335957,0.841544,-1.152982,3.805968,-26.856951,-14.783107
239.000000,0.002000,-0.451709,-0.115633,0.368842,-2.114386,-2.944223,2.884610,22.158705,5.293992,-18.751892
240.000000,0.002000,0.835348,1.276664,-0.992020,0.966030,-1.338618,0.627415,-2.392341,-3.581120,2.805731
241.000000,0.002000,-0.088454,-0.193298,0.069373,-1.932316,-0.914573,0.878152,6.223385,23.238768,-11.421509
242.000000,0.002000,0.202311,0.428174,0.247011,3.884456,2.712588,1.684232,-16.459768,-23.448940,-13.973367
243.000000,0.002000,0.350147,-0.548342,-0.195840,0.317074,-1.045838,0.076141,-12.802179,19.059516,7.714521
244.000000,0.002000,-0.014199,0.479521,0.123970,2.311054,2.112125,-1.881036,1.335271,-35.327083,-6.939941
245.000000,0.002000,-0.872135,-1.387596,1.649052,-0.037964,0.288243,-1.919023,1.228629,2.076528,-2.492283
246.000000,0.002000,-2.447209,-0.814485,0.146416,0.964893,-1.378144,1.739762,2.702519,0.928051,-0.177614
247.000000,0.002000,-0.295667,-0.077875,1.208758,0.880893,3.095847,0.520373,1.765864,0.432510,-9.809841
248.000000,0.002000,-1.073595,-0.143326,0.024557,2.837253,-2.981680,0.208248,12.611493,1.662627,0.018896
249.000000,0.002000,0.192824,-0.678842,-0.265661,2.355805,2.129856,1.887263,-6.413693,19.296422,6.692493
250.000000,0.002000,-0.198801,0.439886,-0.114886,-1.666538,3.093434,-4.271621,10.146049,-26.608247,8.632093
251.000000,0.002000,-0.362894,0.693131,-0.240147,-0.697751,-0.415747,-3.492240,8.477554,-17.162935,6.384600
252.000000,0.002000,-0.675194,-0.112266,-0.207357,-3.005115,-1.619125,-0.470657,22.096665,4.958636,8.866585
253.000000,0.002000,-0.517312,0.186880,0.059542,-3.908918,-0.697960,0.901424,27.585194,-9.891513,-1.834528
254.000000,0.002000,-0.038627,0.128736,0.034694,6.976592,-0.186246,-1.634644,-4.034756,-16.760523,-3.552473
255.000000,0.002000,-0.027815,0.194669,0.021203,3.218660,0.430324,3.515370,0.142890,-26.026332,2.987282
256.000000,0.002000,-0.006267,-0.134503,-0.129438,-4.081075,-0.474746,0.432192,-4.217677,14.708213,16.118567
257.000000,0.002000,2.795012,-0.012371,-0.521968,-0.084747,0.275628,0.186519,-2.346876,-0.011204,0.386659
258.000000,0.002000,-0.258089,0.306474,-0.067146,-3.620059,-3.080326,0.859971,18.535807,-22.044197,6.400654
259.000000,0.002000,0.542360,0.760618,0.295633,-2.227579,2.980483,-1.535437,-8.479557,-10.963036,-4.450968
260.000000,0.002000,1.932740,-3.084209,-0.213105,2.150548,-0.731264,-0.102600,-0.788510,1.226686,0.078666
261.000000,0.002000,0.568627,-1.349664,-0.669454,-2.782567,-0.624925,-1.047749,-2.347034,5.276269,2.452320
262.000000,0.002000,0.298291,-0.307569,-0.317267,-2.021337,-1.694825,-2.085379,-16.445888,15.973651,19.147458
263.000000,0.002000,-0.303318,-0.048445,0.271015,0.716642,0.886498,-2.385646,21.433991,0.193863,-18.280170
264.000000,0.002000,-0.032412,-0.235566,0.089345,-0.883496,-2.550242,-1.296870,5.234057,21.091255,-8.189147
265.000000,0.002000,0.283259,0.866157,1.200879,1.413103,-2.572371,1.127658,-1.461465,-4.068847,-5.737129
266.000000,0.002000,-0.479395,0.626027,-0.434818,2.487926,-1.066894,2.749824,8.400547,-11.726424,7.347288
267.000000,0.002000,0.870609,0.252587,-0.612206,-1.882526,1.955150,-2.535323,-9.679436,-3.019508,6.772426
268.000000,0.002000,-0.238391,-0.030076,0.203274,-1.031080,-2.929765,4.820959,22.765443,3.582863,-20.162363
269.000000,0.002000,-0.230515,-0.079165,-0.094231,-4.962040,-4.136233,0.240990,20.581887,8.132660,11.452493
270.000000,0.002000,0.207617,0.560344,-0.119674,2.572782,1.561427,-1.791291,-10.682014,-25.783994,7.089307
271.000000,0.002000,-0.306386,-0.341913,0.207796,3.322085,0.262916,-4.369023,18.051196,17.664216,-12.143170
272.000000,0.002000,0.390135,-0.467669,0.370039,0.060340,0.480432,-4.905196,-12.989137,15.034815,-12.455920
273.000000,0.002000,0.400206,-1.130890,0.552393,0.210019,-0.701909,0.504651,-2.698870,7.494035,-3.611860
274.000000,0.002000,0.031664,-0.021360,-0.000591,-0.829842,0.772726,0.817092,-6.909468,4.590680,4.036995
275.000000,0.002000,0.175763,0.174248,0.222018,5.821468,-0.568855,-1.453126,-18.231833,-10.091683,-23.565039
276.000000,0.002000,-0.077950,-0.350183,1.104118,-0.604383,-0.373964,-3.714409,0.337734,3.369293,-10.434303
277.000000,0.002000,-0.080839,-0.383850,0.766686,-2.812908,1.959559,-2.346276,1.186388,8.444634,-15.783969
278.000000,0.002000,-0.134299,-0.228213,0.208265,4.384985,-1.538037,0.627104,7.454385,21.967221,-17.359823
279.000000,0.002000,-0.248977,0.563460,-0.170629,0.612386,-3.980942,2.715803,9.212160,-22.066286,9.012236
280.000000,0.002000,-0.168078,-0.270468,0.010012,-4.145925,-0.942697,2.328708,14.518320,21.648255,-0.385435
281.000000,0.002000,-1.072582,-0.034825,-0.154819,1.685522,1.269078,-2.183878,12.328729,0.656803,2.123841
282.000000,0.002000,0.868188,0.965617,0.069811,-3.306521,-0.694047,0.344976,-6.457751,-6.517277,-0.539470
283.000000,0.002000,-0.403813,-0.112192,0.219767,-1.253551,-3.983157,-0.985557,23.119400,5.570908,-14.694676
284.000000,0.002000,0.219752,-2.154921,-1.255475,0.165235,1.387839,0.434656,-0.327858,2.550927,1.508101
285.000000,0.002000,-2.613054,-1.040006,-1.079118,-1.649286,0.976656,0.490767,1.794050,0.781840,0.854533
286.000000,0.002000,0.341320,0.465436,0.127338,3.933629,-1.065367,-0.621364,-19.032292,-20.576580,-7.420809
287.000000,0.002000,0.177235,-0.025925,-0.393096,-0.774973,0.053019,1.743655,-12.096333,5.180318,25.802010
288.000000,0.002000,-0.082033,0.037501,-0.045915,-0.417131,-4.982005,-3.888835,7.617489,-0.619002,11.375319
289.000000,0.002000,-0.052966,0.805295,-0.112205,-1.539953,-1.337054,2.582851,-0.249235,-18.773077,3.222315
290.000000,0.002000,0.227403,0.493159,-0.242974,-4.820147,1.138556,-1.275826,-13.420377,-24.210378,13.625470
291.000000,0.002000,-0.214818,0.527943,0.176757,1.739746,2.096325,0.605365,11.441889,-25.022531,-8.030982
292.000000,0.002000,0.238983,-0.219375,0.311987,4.796482,2.626049,0.171080,-12.581512,16.942758,-17.457553
293.000000,0.002000,0.050781,0.533217,-0.005108,-0.346087,-0.156238,0.100178,-4.822835,-30.974939,1.087398
294.000000,0.002000,0.439838,-0.257754,0.191643,5.421575,-0.750171,1.070987,-24.426922,12.732794,-10.481160
295.000000,0.002000,-0.185514,-0.183224,0.280168,-2.587398,-4.001648,-1.714118,14.248046,20.341126,-22.597949
296.000000,0.002000,0.286975,-0.362454,0.223327,1.897857,-3.475849,1.889484,-16.333281,19.633549,-15.135002
297.000000,0.002000,-0.229408,0.208228,-0.025632,2.662752,1.114502,5.723307,21.069222,-20.028022,6.413460
298.000000,0.002000,-0.239788,-0.490231,0.059339,1.228174,1.056755,-3.964669,12.913303,27.151576,-2.792459
299.000000,0.002000,-1.997970,1.584548,-2.102261,-0.118909,-0.965230,-0.888435,1.081431,-0.865254,1.163675
300.000000,0.002000,-0.988846,2.610517,-0.171651,1.002983,-0.857592,0.336949,0.848688,-2.308640,0.140586
301.000000,0.002000,0.590309,0.097743,-0.318544,1.427104,-0.870877,-1.545827,-23.808930,-3.605191,12.097207
302.000000,0.002000,0.075889,0.486640,1.390723,-0.369635,1.382957,-2.583478,-0.649579,-2.829998,-7.218535
303.000000,0.002000,-1.209475,-1.743720,0.693425,0.003671,0.596841,-0.885288,2.019826,2.869267,-1.157651
304.000000,0.002000,0.322096,-0.977437,-1.368693,-1.778952,0.736484,1.532036,-0.980051,3.126414,4.747363
305.000000,0.002000,3.001051,-2.215721,-1.085937,1.701853,0.281376,0.393209,-0.998866,0.734439,0.348083
306.000000,0.002000,-0.345162,-0.366463,0.071707,0.321920,-3.376506,-0.391433,19.495358,26.316934,-15.724002
307.000000,0.002000,-0.115409,-1.574073,-0.830903,-0.567172,-0.100056,1.976998,0.288035,4.712715,2.517775
308.000000,0.002000,0.497643,1.047302,1.536768,-1.674908,-1.496064,0.304103,-1.284645,-2.587065,-3.924711
309.000000,0.002000,0.816758,1.601893,-0.463270,0.353970,-2.308144,0.159993,-2.196308,-4.307030,1.280203
310.000000,0.002000,0.166976,-0.005860,-0.380201,-0.101653,0.632408,2.679665,-9.476689,0.236544,24.928479
311.000000,0.002000,0.157891,0.109910,0.624856,-4.299394,0.378651,-2.781093,-8.699627,-3.361989,-22.919477
312.000000,0.002000,0.379005,0.266626,0.051304,-1.864911,0.141343,-1.347869,-24.480080,-14.014752,-4.634576
313.000000,0.002000,0.089879,0.128086,0.467193,1.876855,-5.705695,-1.145532,-6.359398,-7.415715,-31.234550
314.000000,0.002000,-0.152167,-0.162978,-0.479019,-3.019707,-0.105850,1.595091,6.456227,8.040745,26.019195
315.000000,0.002000,0.791906,0.556243,-1.233206,-0.504059,-3.800940,-0.198446,-2.948140,-2.211553,5.441941
316.000000,0.002000,-0.114129,-0.066774,-0.359993,-4.452703,-3.185239,-1.582529,5.223195,3.171336,30.078453
317.000000,0.002000,-0.126156,0.248786,0.362538,1.381523,4.284637,0.902526,8.290824,-16.583024,-23.863696
318.000000,0.002000,-0.129224,-0.410496,0.105420,-2.880897,-4.320614,-1.062897,5.176502,28.892950,-6.837190
319.000000,0.002000,0.091106,-0.173717,-0.038231,1.432919,1.070179,3.709507,-14.418951,17.024364,6.879665
320.000000,0.002000,-3.035693,1.647423,-0.912390,-1.906552,-1.283343,0.684540,1.320389,-0.703308,0.410131
321.000000,0.002000,0.246903,-0.345233,-0.272557,2.848241,-1.528259,-2.749017,-12.838855,21.331582,16.534688
322.000000,0.002000,0.151045,0.144954,0.149258,3.006064,-1.843506,-0.436823,-22.710461,-17.809037,-16.039394
323.000000,0.002000,-0.478913,1.669565,0.924677,-0.209395,-1.426595,-0.558357,1.232366,-4.154312,-1.958549
324.000000,0.002000,-0.304162,0.331228,-0.650101,-2.855066,1.048987,2.266812,7.729851,-8.192029,17.108917
325.000000,0.002000,0.690824,0.700911,0.869336,-0.317246,-1.958156,-2.895112,-4.855549,-4.800119,-5.692701
326.000000,0.002000,0.382108,0.220617,-0.019892,1.510396,-0.310740,-2.739909,-26.023913,-13.267649,3.148599
327.000000,0.002000,0.050501,0.206276,-0.146761,-4.926090,-2.309765,-2.155639,-5.178005,-16.817578,16.312354
328.000000,0.002000,-0.502054,0.096622,0.066428,3.638317,0.652124,-3.912319,29.505541,-2.289609,-4.005083
329.000000,0.002000,0.222831,-0.113190,0.139297,4.528892,-3.199622,-2.762018,-22.268345,16.218537,-11.332405
330.000000,0.002000,-0.511053,-0.555910,0.168317,0.023733,2.012632,-0.177159,14.014461,15.675875,-4.544841
331.000000,0.002000,-0.143692,0.173331,0.373254,0.514095,0.663436,-1.451939,7.544609,-10.505419,-28.714597
332.000000,0.002000,0.196458,-0.338492,0.083384,1.019129,-0.189041,1.449364,-14.136443,22.497427,-6.502676
333.000000,0.002000,0.215153,-0.293636,0.115279,-0.132625,-0.246748,-3.159381,-18.724431,19.818045,-6.559394
334.000000,0.002000,-1.197897,-0.526634,0.985375,0.609282,-0.940057,-1.588340,4.494154,2.217543,-3.902293
335.000000,0.002000,-0.302126,-0.167507,-0.201891,-3.275758,-1.110116,0.069547,22.807941,12.189928,18.113849
336.000000,0.002000,0.280600,0.233126,-0.776671,-0.657583,-1.193447,4.080246,-4.801938,-3.748078,15.244577
337.000000,0.002000,0.138348,-0.053165,-0.037000,-1.204473,0.696048,-3.217312,-22.341628,1.914351,8.956057
338.000000,0.002000,0.038372,-0.067904,0.450355,-3.714191,0.144433,-5.198400,-1.379981,5.698929,-30.448628
339.000000,0.002000,0.316445,0.329993,-0.205789,-0.128495,1.140821,4.652169,-19.034629,-19.067802,13.171525
340.000000,0.002000,0.540543,0.210191,0.138949,0.564325,3.327493,1.579492,-25.457907,-8.707699,-7.584597
341.000000,0.002000,-0.328745,-0.129123,0.109290,-5.570108,0.170622,0.351451,24.927243,12.338531,-9.092363
342.000000,0.002000,-1.603534,0.881380,0.320004,0.788601,-2.014438,1.251310,4.375937,-2.306334,-0.813033
343.000000,0.002000,-0.936400,-1.782692,0.769204,0.875918,0.390255,-1.077849,1.741170,3.196378,-1.471608
344.000000,0.002000,0.158894,0.233748,-0.044717,-3.873773,4.648791,-1.016542,-17.031602,-21.473148,3.395749
345.000000,0.002000,-0.301273,0.089942,-0.360212,-3.232313,-2.178734,-0.197055,15.812192,-4.615428,28.595398
346.000000,0.002000,-0.130201,-0.275737,-0.561111,2.211650,0.515566,-1.046806,5.687780,11.172769,21.899256
347.000000,0.002000,1.189510,-0.164245,0.351615,-0.894240,2.757610,-2.620995,-8.927416,1.305487,-2.556289
348.000000,0.002000,-0.384750,1.219537,1.038666,-0.650871,-0.806292,-1.662681,1.185567,-4.693104,-3.804088
349.000000,0.002000,-0.509159,0.169416,-0.051803,1.277812,1.384423,0.875438,27.773309,-9.697372,4.166351
350.000000,0.002000,0.064734,-0.063579,0.439331,-3.360927,-1.272340,-2.079527,-6.605140,3.251135,-33.738375
351.000000,0.002000,-0.207392,0.457763,0.966717,2.292082,1.377484,-1.719776,2.100274,-5.347547,-11.332894
352.000000,0.002000,0.583775,2.417748,-0.117076,-0.791705,-1.841284,-0.329437,-0.672498,-2.898886,0.191017
353.000000,0.002000,-0.847926,2.844666,-1.016636,1.007117,0.826044,-0.489284,0.537478,-1.803098,0.640571
354.000000,0.002000,-0.610111,-0.137105,0.393753,4.104756,0.094957,1.766657,19.122984,7.044542,-14.828301
355.000000,0.002000,-0.082171,-0.035467,0.010180,0.465802,-5.545142,2.946660,11.668615,9.402866,-1.939625
356.000000,0.002000,-0.271097,0.205783,0.132248,2.220857,-3.949119,-3.041867,22.946938,-19.256109,-10.919900
357.000000,0.002000,-0.141850,0.145408,0.061321,1.423752,1.457997,-3.476681,16.388094,-18.097728,-6.044464
358.000000,0.002000,0.419752,-0.034982,0.444191,3.285113,-0.793690,3.134487,-17.738962,2.388144,-16.621338
359.000000,0.002000,0.342414,-0.694784,1.962763,-0.115926,-1.742730,-0.340075,-0.609755,1.391142,-3.560438
360.000000,0.002000,0.154962,0.244347,-0.216278,-2.484694,-1.687676,1.127771,-14.087618,-20.104713,18.188545
361.000000,0.002000,0.065327,-0.261004,-0.377338,-0.712961,-2.848425,0.108415,-4.544578,16.680534,25.166455
362.000000,0.002000,0.078354,0.344608,0.028129,3.120722,-3.348988,4.006767,-10.720993,-30.005523,0.661285
363.000000,0.002000,0.455891,0.177021,-0.380846,2.010630,-0.469761,-2.025271,-20.490058,-10.296892,18.452914
364.000000,0.002000,-0.147218,0.467981,0.235132,0.036274,-0.056915,0.472916,7.909498,-26.339091,-12.968882
365.000000,0.002000,-1.019622,0.837089,2.527348,1.157330,1.631451,-0.503116,0.886766,-0.674142,-2.104371
366.000000,0.002000,-0.012898,-0.327387,0.017817,-2.689473,4.323688,-1.289540,-4.288079,24.521346,3.474201
367.000000,0.002000,-0.103479,-0.200081,0.525947,2.392261,3.213123,1.498364,4.396879,10.548690,-25.821243
368.000000,0.002000,-0.944886,0.302629,0.275396,1.333131,-3.567607,1.238835,12.700236,-4.857210,-3.966130
369.000000,0.002000,0.153631,-0.130321,-0.395366,-0.786439,-2.856054,-2.349211,-11.126713,8.158639,28.388209
370.000000,0.002000,-0.220077,-0.451813,0.070463,-1.169992,-2.085890,4.272325,13.087349,27.758381,-4.989997
371.000000,0.002000,-0.228898,-0.179408,0.198526,2.808619,-2.711002,-4.931569,19.857037,18.401950,-16.803304
372.000000,0.002000,-1.680382,1.395946,1.188407,0.392963,-1.914230,-1.196134,2.058770,-1.682528,-1.499190
373.000000,0.002000,0.040844,-0.054974,-0.443635,2.319426,4.387857,-1.442371,-3.571091,2.970705,29.842862
374.000000,0.002000,-0.013663,-0.225229,-0.083268,0.833736,1.743635,-6.274699,-2.378998,21.828678,12.469326
375.000000,0.002000,0.418841,0.350347,0.013106,-0.030435,0.640430,2.555260,-25.947808,-16.729211,-1.455561
376.000000,0.002000,0.081558,0.169366,0.108392,-3.329220,-5.938361,-0.439384,-7.917859,-14.452161,-11.598581
377.000000,0.002000,0.394942,-0.786799,-1.591883,0.594944,2.377803,0.890806,-1.130872,2.132925,4.637557
378.000000,0.002000,0.210005,-0.289251,-0.165829,5.104940,-0.109629,0.001277,-16.119098,21.910709,12.437799
379.000000,0.002000,-0.105812,-0.091333,-0.123136,-2.837011,-4.916691,-1.119255,9.788221,12.210112,14.439897
380.000000,0.002000,0.055413,-0.554974,-0.103186,4.035559,0.397853,-1.851389,-4.598679,28.167342,3.965462
381.000000,0.002000,-1.467454,-1.362396,1.222822,0.774610,0.607390,-1.032920,2.019734,1.980845,-1.717722
382.000000,0.002000,0.417550,-0.307204,0.017787,-2.626854,1.541255,-1.060389,-24.597863,18.539509,-1.436832
383.000000,0.002000,0.086474,-0.014889,-0.302863,0.003135,-0.241789,2.987515,-13.817549,6.557602,28.674030
384.000000,0.002000,0.253717,0.015314,0.525310,0.562748,-0.093445,-1.029903,-13.555854,1.276202,-25.188623
385.000000,0.002000,-0.296263,-0.023181,0.212503,-1.597133,2.521128,3.051851,23.756824,3.344882,-17.866767
386.000000,0.002000,-0.447437,-0.031218,-0.208064,-1.881679,-1.564852,-4.249825,24.991905,-6.031528,16.946900
387.000000,0.002000,0.464907,-0.714404,-0.239845,-3.117506,3.134749,0.913618,-9.358417,13.511214,4.625176
388.000000,0.002000,-0.580592,-0.217976,0.076464,-1.856559,0.331048,3.258911,25.115749,9.439730,-3.573643
389.000000,0.002000,-0.363808,0.098709,-0.443303,0.919407,-4.593492,-2.036755,15.678973,-4.118862,21.251393
390.000000,0.002000,0.329542,0.107208,-0.063945,2.117873,0.669870,1.277740,-28.183288,-13.019754,6.938421
391.000000,0.002000,-0.153133,0.617814,-0.252218,0.735986,-2.058291,-3.317641,3.968195,-21.418169,10.097011
392.000000,0.002000,0.251160,-0.608879,-0.090478,2.521911,-1.862361,-1.485849,-11.362292,21.796379,6.972049
393.000000,0.002000,-0.152931,-0.385934,0.246637,-0.308546,-3.698461,-0.040588,5.134813,23.583306,-17.008892
394.000000,0.002000,0.240857,0.745784,0.258959,-2.027756,-4.172006,-0.281195,-6.042324,-16.480694,-5.410134
395.000000,0.002000,0.295893,0.115118,1.025179,1.734664,-1.018898,0.401812,-4.027112,-1.391757,-12.363584
396.000000,0.002000,-0.077733,0.138451,-0.406461,-0.494736,1.147210,1.734967,5.610616,-8.176945,27.053993
397.000000,0.002000,-0.293228,0.034918,0.210486,0.475348,-4.408317,2.862802,29.148500,5.644386,-17.585405
398.000000,0.002000,-0.485825,-0.237779,0.230989,-1.292064,-3.420555,1.019732,24.552561,12.343113,-9.645132
399.000000,0.002000,-0.437302,-0.511212,-0.008025,0.451023,-0.852399,-0.085534,16.813507,19.854390,1.294367
400.000000,0.002000,0.162208,0.478839,-0.131320,5.348939,1.619784,0.807497,-8.819765,-27.071207,12.909661
401.000000,0.002000,-0.629960,-0.050294,-0.639091,2.872309,3.967792,-1.664424,11.474178,0.718780,12.129578
402.000000,0.002000,0.487007,-0.205974,-0.399274,-2.607470,2.589182,3.299815,-17.965291,6.888595,14.837867
403.000000,0.002000,-0.412162,0.604479,-0.618008,0.889239,1.985154,0.882093,6.132553,-9.217891,10.260269
404.000000,0.002000,-0.503735,-0.341626,-0.740971,-0.304989,-1.011511,2.514630,7.313705,5.692173,11.963691
405.000000,0.002000,0.221631,-0.019609,0.025328,1.379864,3.397886,-2.373965,-29.116233,-1.719515,-4.370832
406.000000,0.002000,0.176798,-0.167610,-0.217425,3.582215,3.041839,1.391002,-19.013521,14.237488,19.145947
407.000000,0.002000,0.357748,0.196666,-0.109482,-1.836602,3.816154,-3.186361,-24.617921,-11.861560,8.058947
408.000000,0.002000,0.380425,-0.380517,0.027098,-3.604890,-3.804545,1.930007,-23.043660,18.521586,-1.049194
409.000000,0.002000,0.351969,-0.238285,-0.109032,0.122480,1.172027,0.445814,-19.617954,15.901906,12.428765
410.000000,0.002000,-0.272070,-0.009312,-0.169443,-1.441726,-3.250905,1.023896,22.291895,1.068375,18.225371
411.000000,0.002000,-0.244129,0.144976,0.394153,2.318421,2.698277,-0.451090,16.896859,-7.385135,-26.294844
412.000000,0.002000,-0.395081,0.288278,0.343657,-4.546368,0.658191,3.743954,18.621486,-14.277401,-16.860074
413.000000,0.002000,0.005623,0.447896,0.108349,-3.552639,-4.266434,1.282413,-3.056972,-29.769886,-5.794137
414.000000,0.002000,-0.404426,-0.604211,-0.583345,3.274172,-3.431875,1.369877,6.518666,9.534724,9.715674
415.000000,0.002000,-0.138578,-0.120228,-0.387989,0.893658,0.147168,0.223940,5.095486,8.187128,31.345224
416.000000,0.002000,-0.635604,-0.774771,0.256144,1.493186,0.676311,1.585793,8.106502,10.157562,-3.202626
417.000000,0.002000,0.000931,0.163776,0.099738,1.237871,6.941003,2.343021,-0.966578,-17.101232,-6.027165
418.000000,0.002000,0.170363,-0.364372,-0.195560,4.562274,0.659955,0.549241,-20.163220,21.478835,12.075315
419.000000,0.002000,-1.500986,0.012257,-0.969542,-0.273413,1.684072,3.263285,4.532415,-0.049901,3.000026
420.000000,0.002000,-0.191170,0.176672,0.008398,-4.869711,-0.886632,4.641258,18.377186,-18.970522,2.036118
421.000000,0.002000,-0.144542,0.363415,0.210977,0.066976,-3.591241,-0.843024,9.288818,-25.896513,-14.551293
422.000000,0.002000,0.174073,0.821874,0.412070,-3.836138,-1.904320,-1.067535,-3.451203,-13.618316,-7.175536
423.000000,0.002000,-1.257622,1.183412,-0.182550,1.371309,-2.319631,1.730978,3.935031,-4.032460,-0.226996
424.000000,0.002000,0.891907,-1.842488,0.830393,-1.730914,1.215911,-1.130693,-1.425979,2.985601,-1.342859
425.000000,0.002000,1.269474,-1.351643,1.611768,-1.266516,0.192244,0.574444,-1.646486,1.683643,-1.958467
426.000000,0.002000,-0.467401,-0.517331,0.653694,-0.108135,3.723131,1.683001,7.120746,8.539929,-10.787801
427.000000,0.002000,0.483626,0.013452,-0.159159,2.067814,2.270353,-2.414732,-32.509590,3.825359,10.233559
428.000000,0.002000,0.019529,-0.509286,-0.264113,-0.981658,-0.784555,-0.246369,0.040460,26.384217,13.040608
429.000000,0.002000,0.215911,0.352903,-0.152049,4.873046,-1.762308,-1.801307,-16.013350,-21.182587,11.538472
430.000000,0.002000,0.416186,-0.077331,-0.384438,2.313976,-0.168418,0.740844,-20.023186,3.431137,18.453690
431.000000,0.002000,-0.076560,-0.116453,-0.137990,1.970913,-3.269401,1.499390,11.494740,10.994377,15.517617
432.000000,0.002000,0.272285,-0.388271,0.080337,-1.895354,-3.020856,4.450592,-13.166205,22.745230,-3.736253
433.000000,0.002000,0.070348,0.088857,-0.162646,-0.111811,0.548235,2.153763,-7.730173,-11.338651,17.581966
434.000000,0.002000,-1.988764,-1.315940,-0.584713,0.947838,0.828278,0.099835,2.548729,1.688017,0.738377
435.000000,0.002000,-0.032657,-0.239022,0.035545,1.275241,-0.697612,-3.990940,1.179557,26.166888,-3.673118
436.000000,0.002000,0.332460,0.205060,0.087741,1.832558,4.790430,-1.336101,-27.151159,-14.080935,-6.789257
437.000000,0.002000,0.028005,0.315943,-0.073611,3.440523,1.426214,3.122127,-3.383401,-28.480378,11.650285
438.000000,0.002000,-0.147516,-0.082820,0.043911,-1.597800,-0.127565,-2.011285,16.572433,11.151953,-7.312271
439.000000,0.002000,0.201280,-0.290833,0.307815,1.034143,-4.020513,2.420006,-9.418740,19.547480,-18.522959
440.000000,0.002000,-0.072527,-0.114180,0.285001,-1.574570,-0.413207,-3.672828,5.204277,15.464665,-28.142007
441.000000,0.002000,0.217947,0.202159,0.116191,2.993304,-3.195168,-2.770302,-21.672997,-16.233790,-5.001599
442.000000,0.002000,0.263836,0.140492,0.022565,-0.764349,-2.404032,-0.424326,-30.251349,-13.420618,3.970633
443.000000,0.002000,-1.263310,-0.751252,-0.167521,-1.508479,1.310064,-2.668391,6.349422,4.161032,0.608750
444.000000,0.002000,0.526246,0.939287,-0.694575,-0.744969,-1.713833,1.615829,-4.020684,-6.717508,5.043743
445.000000,0.002000,-0.317324,-0.056060,0.268181,0.009877,0.452398,-0.846665,27.591892,9.086509,-17.883962
446.000000,0.002000,-0.776082,0.420927,-0.369090,3.320556,2.319066,-2.150361,12.513351,-6.419581,6.018069
447.000000,0.002000,-0.162128,0.759437,-0.414423,1.859698,-3.451001,1.382122,2.884635,-14.856639,8.670748
448.000000,0.002000,-0.351576,-0.177310,0.516144,4.656634,-0.978285,-0.824126,13.172375,9.299825,-22.439300
449.000000,0.002000,-0.237893,0.404576,0.001219,0.707485,0.375700,1.327087,13.550635,-23.573884,-0.222615
450.000000,0.002000,0.425505,-0.168063,0.194464,0.240740,1.137896,2.887341,-26.892992,8.309737,-10.814544
451.000000,0.002000,-0.600786,2.180428,0.177152,0.707684,-1.691962,-0.548747,0.955200,-3.453742,-0.274248
452.000000,0.002000,0.154144,0.989017,0.062174,-3.613674,-3.015332,0.350111,-2.755798,-14.142729,-0.509876
453.000000,0.002000,-0.085156,0.156762,0.599338,-2.492691,1.288430,3.185661,2.368366,-7.678883,-26.613833
454.000000,0.002000,0.182256,-0.004749,-0.427537,2.416747,2.547214,-3.879140,-12.743223,-0.226994,26.404645
455.000000,0.002000,-0.068334,-0.068952,0.061000,4.792331,-2.803173,4.660793,6.357937,17.988528,-4.009398
456.000000,0.002000,0.293735,0.077490,0.030192,1.654473,-2.578365,4.346970,-28.164094,-4.284036,-3.441357
457.000000,0.002000,-0.037112,-0.183373,-0.035713,-3.124741,-1.367050,-6.069186,-0.847673,16.480879,5.800440
458.000000,0.002000,-0.601254,1.096713,0.666991,-0.384154,-0.817380,-2.741933,3.398366,-6.639870,-4.165852
459.000000,0.002000,0.086764,-0.115897,0.130874,-0.367682,-0.936431,7.144539,-16.519428,17.139064,-15.946276
460.000000,0.002000,-0.140944,0.213023,0.016438,-4.022833,-4.467099,1.002453,12.770223,-21.107170,0.508519
461.000000,0.002000,-0.179857,0.366926,1.003340,-1.913738,-0.628133,-2.700055,1.629653,-4.068053,-11.950479
462.000000,0.002000,0.425847,0.520410,0.062411,-3.974206,-2.042923,-2.427920,-15.645866,-17.715517,-1.149967
463.000000,0.002000,0.429847,0.168393,0.283566,1.623084,1.053830,0.060289,-23.731144,-8.388489,-14.557817
464.000000,0.002000,-0.370597,0.022336,0.299354,1.129687,1.023925,-0.315729,29.756688,3.921366,-18.557407
465.000000,0.002000,0.223655,-0.142942,0.102482,0.726663,3.911064,0.117923,-22.794154,16.181789,-7.310590
466.000000,0.002000,-0.333056,0.519803,-1.380705,1.274153,-0.062546,2.502408,1.456514,-2.311698,6.552321
467.000000,0.002000,0.071915,0.211868,0.097502,2.517572,-1.693238,-1.803703,-8.525053,-18.237128,-5.859503
468.000000,0.002000,-0.169252,0.238852,-0.779073,0.860813,-1.190699,-3.236692,3.442402,-6.584665,18.154826
469.000000,0.002000,0.447397,0.108269,-0.274432,1.985774,-0.631599,0.723407,-24.577462,-4.629562,14.653841
470.000000,0.002000,0.005090,0.794624,0.296977,-1.120972,-4.794444,0.095649,-1.036610,-17.751040,-6.444751
471.000000,0.002000,-0.286114,0.440784,0.320826,-2.471473,-0.450750,1.810568,11.721181,-19.015720,-15.745602
472.000000,0.002000,-0.718815,-0.418413,-2.281883,0.426441,0.282434,0.668948,0.920192,0.541287,2.967331
473.000000,0.002000,0.824320,-1.402812,-2.976895,-1.159511,0.307587,0.415838,-0.412077,0.703019,1.484923
474.000000,0.002000,0.461444,1.023401,0.108307,1.839131,-1.046344,2.973477,-4.974616,-10.340146,-1.171756
475.000000,0.002000,-0.401874,-0.090621,0.128883,-1.238531,-3.321803,3.860918,29.008316,5.675585,-12.480075
476.000000,0.002000,-0.249505,0.237180,-0.141053,1.684827,1.016447,2.585083,18.514355,-13.446843,10.897177
477.000000,0.002000,-0.130659,-0.710483,1.646018,1.674670,0.703609,-0.618002,0.285774,2.120102,-4.810901
478.000000,0.002000,0.085582,-1.590317,0.208729,3.525954,1.496050,-0.618041,-0.496147,6.329474,-0.839660
479.000000,0.002000,0.362142,-0.350231,-0.529090,-1.076081,-3.044541,2.282385,-11.180922,9.487141,15.810823
480.000000,0.002000,-0.052119,-1.057525,0.747522,2.042661,-0.146054,-2.487846,0.181546,7.404686,-5.278279
481.000000,0.002000,-0.155023,0.497529,-0.372462,-0.953946,-2.075082,1.990720,4.761522,-21.553525,14.987374
482.000000,0.002000,-0.017125,0.005186,0.116071,2.609106,1.796420,2.594061,0.084928,1.615252,-16.782116
483.000000,0.002000,-1.608552,0.961521,1.002015,2.474229,-0.372726,-1.478568,2.992838,-1.779283,-1.620996
484.000000,0.002000,0.213780,0.691557,-0.637884,-1.936904,-2.388488,-0.285360,-2.914613,-9.835864,9.823582
485.000000,0.002000,-0.028185,-0.312507,-0.393377,1.175537,-0.166739,-1.993626,3.489218,16.032378,22.914197
486.000000,0.002000,-0.834537,0.241644,-1.860754,0.698201,1.557890,0.586301,1.654989,-0.470301,3.781906
487.000000,0.002000,0.144044,0.142854,-0.239922,5.077572,3.324956,-3.126552,-15.513801,-12.995329,24.801219
488.000000,0.002000,-0.287520,0.374587,-0.145441,0.063825,2.065220,-3.915975,17.100457,-20.696861,10.797623
489.000000,0.002000,-0.001096,0.234230,-0.112372,1.916695,-4.800319,-1.664574,-7.343084,-16.645472,15.383201
490.000000,0.002000,-0.195969,0.205327,0.112753,2.350645,0.047742,0.969055,16.728110,-18.719738,-11.575497
491.000000,0.002000,-0.091931,0.187794,0.242590,2.938056,-0.321381,1.186982,7.711634,-13.300924,-21.760995
492.000000,0.002000,0.034092,-0.064114,-0.251595,-1.769011,-0.101185,-0.078463,-10.104472,1.386420,33.967697
493.000000,0.002000,0.230461,-0.161528,-0.456390,0.332148,-0.498055,-1.719648,-12.423172,8.786634,23.542369
494.000000,0.002000,-0.192486,0.201500,0.288059,0.021344,3.721706,-1.701844,13.420326,-13.266985,-19.413381
495.000000,0.002000,0.300543,-0.252203,-0.277736,1.093668,-3.565892,-2.706676,-19.649013,12.686217,15.326623
496.000000,0.002000,-0.177275,-0.488286,-0.394968,-1.643312,-2.105728,-1.913233,6.481260,18.640560,14.628100
497.000000,0.002000,0.324483,-0.423020,-0.906887,-4.164860,0.482649,1.928505,-4.003407,5.163671,11.104944
498.000000,0.002000,0.346095,0.007552,0.039709,-0.641081,-3.155108,3.184648,-29.551970,0.816410,-4.727359
499.000000,0.002000,-0.060314,-0.483221,-0.270060,5.605866,-0.384593,2.303470,3.415762,26.728967,13.013021
500.000000,0.002000,0.262431,0.887530,0.179436,-2.112775,-0.322510,-1.342717,-5.900330,-14.869714,-3.391243
501.000000,0.002000,0.184263,-0.068036,-0.431343,1.560631,-0.837102,-1.573946,-10.975739,5.952275,25.997803
502.000000,0.002000,0.261257,0.070322,-0.352817,-0.629737,-1.835629,0.614107,-18.833835,-5.365820,22.200774
503.000000,0.002000,-0.036618,-0.069540,-0.155362,-1.524717,3.046362,-5.636942,-0.048436,4.915046,19.648045
504.000000,0.002000,0.691187,0.310206,-0.593117,-1.748651,2.530259,-2.327798,-12.021571,-5.879270,8.893671
505.000000,0.002000,-1.384905,-1.370787,-0.182850,1.271913,1.046440,-1.212339,3.220487,3.215751,0.474533
506.000000,0.002000,0.561284,-0.101029,-0.022093,-4.440530,0.482127,0.395279,-29.201208,3.277945,-0.495387
507.000000,0.002000,0.173618,-0.054432,-0.289566,0.809853,-0.444097,3.818517,-12.895375,1.268392,25.784936
508.000000,0.002000,0.459961,1.546485,0.320768,0.601883,0.172392,-3.050159,-1.731153,-5.676455,-1.062490
509.000000,0.002000,0.751391,1.962286,0.508610,0.408444,-1.693075,0.443508,-1.690120,-3.622120,-0.845201
510.000000,0.002000,-0.743352,-2.323014,0.277993,-2.389554,0.636048,0.016324,0.835499,2.992230,-0.233990
511.000000,0.002000,-0.031261,0.975481,0.062195,2.736516,-2.638101,2.115877,0.087798,-15.116389,-0.426684
512.000000,0.002000,-0.208437,0.372880,0.159131,-0.075988,1.770770,-3.652139,14.647697,-23.099487,-10.718028
513.000000,0.002000,-0.537364,0.874451,3.156397,1.515908,1.426926,0.685328,0.279546,-0.474383,-1.726501
514.000000,0.002000,0.246253,0.111641,-0.085890,-0.225874,3.808786,-0.310515,-25.326186,-7.487449,13.316313
515.000000,0.002000,-0.577862,0.777385,-0.560599,-0.768400,2.690225,3.057787,6.438942,-7.902794,6.797439
516.000000,0.002000,-0.276935,0.286970,0.130746,0.955023,4.350614,2.522101,18.885597,-21.802710,-8.268146
517.000000,0.002000,0.016593,-0.244820,-0.385738,-0.951350,1.863035,-0.052820,0.241504,15.953656,24.764303
518.000000,0.002000,-0.166085,-0.095969,0.040442,1.308941,2.414433,1.679849,21.063280,12.345716,-5.632463
519.000000,0.002000,-0.025798,0.276739,-0.469552,-0.426340,-4.915986,2.225296,2.162415,-11.828769,23.703605
520.000000,0.002000,0.184658,0.834142,-0.045907,-2.590775,-1.752354,-0.235691,-5.125609,-17.513456,2.038785
521.000000,0.002000,1.320899,-0.717244,0.310345,-2.129208,0.851692,1.702428,-5.731160,3.131287,-1.316728
522.000000,0.002000,-0.567127,0.075220,-0.122366,3.201747,-1.635406,-0.988888,26.967243,-2.010125,7.749520
523.000000,0.002000,-0.385354,0.074684,-0.100115,-1.215461,0.275694,2.838133,27.035331,-4.909419,8.269841
524.000000,0.002000,0.153798,0.529646,-0.255461,-0.814482,1.342647,-1.568885,-7.746935,-25.139291,12.439643
525.000000,0.002000,-2.209124,-1.230422,0.831013,0.159836,0.689107,-1.636688,2.271360,1.251333,-0.869153
526.000000,0.002000,0.004319,-0.223238,-0.465311,2.440693,-1.678834,1.372723,0.350444,11.340335,28.358938
527.000000,0.002000,0.015259,-0.442062,-0.579671,2.998941,3.014471,0.776639,0.089976,12.103740,18.570550
528.000000,0.002000,0.801979,-0.422279,-0.041283,-2.515267,-0.398549,4.293168,-14.225594,7.025067,0.479588
529.000000,0.002000,0.324197,-0.179749,0.323771,1.369904,-0.758254,3.796183,-21.796027,9.511905,-22.509985
530.000000,0.002000,2.295452,0.643121,0.411181,-1.395309,-0.652289,-0.359136,-2.947496,-0.802014,-0.538622
531.000000,0.002000,0.285834,0.000944,0.282636,-3.156330,-0.134655,2.900229,-21.957423,0.176053,-26.255107
532.000000,0.002000,0.255469,0.605278,0.441377,-2.509469,-2.659227,-2.712737,-7.541415,-15.472850,-11.460980
533.000000,0.002000,-0.665694,0.944126,-0.984405,1.091315,-1.754180,1.713686,2.884407,-4.413722,4.502890
534.000000,0.002000,-0.065679,-0.279928,-0.220607,-3.139292,-0.905300,-3.035902,3.453502,22.330127,21.901200
535.000000,0.002000,-1.142505,-0.169677,-0.045274,2.272999,1.469836,2.615483,11.401958,1.688358,0.766298
536.000000,0.002000,-0.180861,-0.158932,-0.046368,1.995585,4.050284,0.176174,15.499984,20.312164,10.724133
537.000000,0.002000,-0.043896,0.095282,0.060547,2.492860,4.794093,-5.075227,6.794252,-6.722899,-8.695448
538.000000,0.002000,1.637718,-3.659044,-0.580383,-0.970784,-1.548551,0.667315,-0.499917,1.081272,0.166084
539.000000,0.002000,0.350284,0.327579,-0.302730,0.874355,1.091948,-1.882393,-17.364686,-16.868546,14.978915
540.000000,0.002000,1.175901,0.555406,0.132125,-2.523370,-1.553990,-0.794812,-7.991871,-3.670623,-0.801402
541.000000,0.002000,-0.008833,0.106369,0.430238,-1.463439,-1.911077,-1.174658,0.772259,-5.662410,-26.605231
542.000000,0.002000,-0.022879,0.282792,0.020949,-5.728721,-3.311326,1.693524,-0.508651,-26.683393,0.988287
543.000000,0.002000,0.214652,-0.160569,0.411121,4.393776,1.703456,1.423647,-15.877919,10.341586,-25.423305
544.000000,0.002000,1.987779,-0.230489,-0.614267,-0.975591,-0.350179,-0.039495,-3.704774,0.677145,0.994057
545.000000,0.002000,-0.174357,-0.253670,0.149456,-2.265573,5.228689,0.259108,13.549501,22.494131,-13.222389
546.000000,0.002000,0.154807,-0.029795,0.003716,-0.962298,-2.944890,2.581449,-18.692919,2.768155,2.335394
547.000000,0.002000,0.379972,0.193373,0.193335,2.024620,-1.803515,2.815422,-27.161040,-11.259229,-12.028845
548.000000,0.002000,-0.550807,0.100644,0.155899,-4.321673,1.634436,0.188720,29.523814,-5.535560,-8.408114
549.000000,0.002000,-0.767996,0.654754,-1.286002,-0.901656,-2.473660,1.661830,2.820263,-2.254253,4.976490
550.000000,0.002000,-0.079983,0.298818,-0.430849,0.505689,2.508910,0.530406,3.098221,-13.414201,24.900850
551.000000,0.002000,-0.382907,0.082313,0.159989,1.594820,-0.840006,5.967291,26.243676,-3.486958,-11.709606
552.000000,0.002000,-0.288647,0.248949,0.508592,0.149142,-0.129271,0.655500,8.974819,-9.700838,-23.327075
553.000000,0.002000,1.132985,-1.211997,-0.088715,-1.366608,0.996471,-2.090171,-4.103736,4.346673,0.273497
554.000000,0.002000,0.070187,-0.315658,-0.264237,1.297557,-0.368773,0.452988,-5.266945,20.111713,21.492290
555.000000,0.002000,0.764043,0.797904,-0.072510,0.864868,0.755668,0.138601,-8.419379,-8.255256,1.019295
556.000000,0.002000,-0.435575,0.059722,0.433326,-2.021695,0.596980,1.302608,18.450614,-1.949261,-18.985868
557.000000,0.002000,-0.179458,0.128418,-0.011029,0.608107,-0.564306,-3.068336,13.991646,-13.300958,5.525636
558.000000,0.002000,0.884185,-1.415411,-1.409824,-0.893866,1.576729,-1.659203,-1.508490,2.396100,2.428525
559.000000,0.002000,-0.427970,-0.162919,0.373693,-1.126843,2.395172,-1.592214,19.155353,9.817239,-17.961055
560.000000,0.002000,0.723753,1.922206,-0.567396,0.317354,-1.700238,-1.229133,-1.386455,-3.498973,1.091073
561.000000,0.002000,-0.133175,-0.203055,-0.054177,-4.160266,-3.904551,-1.949649,14.523233,18.828144,5.056089
562.000000,0.002000,-0.539602,-0.181628,-0.199856,-2.967289,-1.846706,4.608435,23.954355,9.083364,9.789899
563.000000,0.002000,0.101840,0.379560,-0.873523,-3.115847,-0.243317,-0.122709,-1.802986,-5.770852,13.727820
564.000000,0.002000,-0.428833,-1.398610,0.430132,1.752211,1.835784,-1.947601,1.906195,6.482585,-1.892864
565.000000,0.002000,2.038818,0.041324,0.174635,-1.634726,-0.582318,-0.077754,-4.111145,-0.072903,-0.369365
566.000000,0.002000,0.163192,-0.062900,0.130650,2.218307,-2.586752,1.101077,-19.289403,5.661268,-13.101156
567.000000,0.002000,0.135366,0.066393,0.637688,0.716506,2.197450,-0.830567,-6.740321,-0.607394,-23.748599
568.000000,0.002000,-0.316935,-0.681879,1.063314,2.097310,-1.115138,-0.353106,2.006693,4.795655,-7.497380
569.000000,0.002000,-0.272787,1.508460,0.261806,1.318554,-2.434118,0.049561,1.025925,-6.984896,-1.234408
570.000000,0.002000,0.307338,0.509243,-0.328461,2.181698,1.526965,-1.891235,-12.392079,-17.499316,12.329530
571.000000,0.002000,-0.418441,-0.779371,0.629129,-1.041372,2.746949,1.399330,4.538520,8.944046,-7.351443
572.000000,0.002000,0.043553,0.458332,0.357274,0.850660,2.986700,1.208566,-2.797827,-23.413202,-18.839840
573.000000,0.002000,-0.345713,0.199934,-0.036321,-1.315515,-3.083008,1.245333,26.324243,-14.084219,4.180917
574.000000,0.002000,0.740241,-0.657636,-0.326740,-1.604864,1.981317,2.451813,-9.046127,7.671394,3.918477
575.000000,0.002000,1.521004,-0.757658,-1.347586,-1.165639,0.814594,0.025794,-2.538775,1.296424,2.386173
576.000000,0.002000,-0.143248,-0.525104,0.119276,-0.103341,-1.004388,-0.025733,6.780406,33.319948,-8.498188
577.000000,0.002000,-0.308561,-0.029450,-0.008676,1.445951,-1.475109,-3.563749,28.502685,-0.329789,-3.665638
578.000000,0.002000,1.740487,3.186537,1.456910,0.076217,0.284906,-0.523883,-0.583558,-1.056230,-0.473375
579.000000,0.002000,-0.044999,-0.268768,-0.044250,0.069752,-6.841416,-0.811871,-0.048990,26.494361,4.908228
580.000000,0.002000,-0.335962,-0.336850,0.041690,5.095202,0.996668,0.319163,22.800046,20.729929,-1.792023
581.000000,0.002000,0.567833,0.081568,-0.325470,-1.483245,4.278094,-0.581163,-19.728836,-0.217901,13.343101
582.000000,0.002000,-0.935165,1.247656,-0.549608,2.186713,-0.361480,2.030172,3.192290,-4.883755,2.248044
583.000000,0.002000,-1.506639,-1.077047,1.908254,1.255876,1.287242,-0.716456,1.565264,1.084133,-1.967135
584.000000,0.002000,0.335700,0.873657,0.500843,-0.087516,-0.993158,-3.324599,-4.722038,-10.736429,-5.947836
585.000000,0.002000,-0.124825,-0.701803,-0.762501,-1.838425,3.483111,-0.748605,1.328875,8.231164,9.528600
586.000000,0.002000,-0.030767,0.322007,0.257708,0.753122,-0.208359,0.126626,2.390225,-23.457140,-20.476253
587.000000,0.002000,-0.563350,0.258267,0.106383,-0.937206,-0.954779,3.518507,24.558762,-12.463677,-4.022427
588.000000,0.002000,-0.013182,0.404984,0.188286,3.937477,2.539988,3.867669,0.178558,-25.187663,-13.999685
589.000000,0.002000,0.247175,-0.520957,-0.347917,2.285495,0.957551,0.991564,-10.405725,18.066170,12.219084
590.000000,0.002000,0.838180,-1.046597,0.715371,-0.759236,1.004536,-2.407808,-3.971767,4.697684,-3.048376
591.000000,0.002000,0.190938,0.118466,-0.045346,1.765564,-4.260597,-0.944535,-21.488396,-10.101604,4.714321
592.000000,0.002000,0.058605,-0.171398,-0.468482,-4.801325,2.089514,0.727404,-2.728087,9.675111,28.808436
593.000000,0.002000,-0.041463,-0.248210,0.532750,2.516300,-0.336567,0.871796,0.347468,12.897338,-24.819682
594.000000,0.002000,0.698073,-0.625149,-0.086760,-1.697171,1.091869,-3.720159,-11.398410,9.836470,1.669123
595.000000,0.002000,-1.129704,0.265962,-0.186846,3.132561,0.038629,1.120746,10.890385,-2.482442,1.984011
596.000000,0.002000,-1.588080,-0.474200,-0.058689,-0.744613,3.570877,-1.631046,6.130836,1.904729,0.319690
597.000000,0.002000,-0.194964,0.595504,-0.165300,-1.002767,-0.635942,-1.153595,4.315685,-23.128459,7.964708
598.000000,0.002000,0.110122,-0.506830,-0.500485,-1.602196,4.326146,1.148253,-3.325949,15.135232,16.248395
599.000000,0.002000,0.029785,0.478285,-0.048629,-3.438536,0.952151,-0.104275,-0.409915,-28.939313,7.512905
600.000000,0.002000,-0.298651,0.007889,-0.018762,-2.929654,-3.983329,2.042156,32.064130,-0.350520,1.401578
601.000000,0.002000,-0.528180,0.024292,-0.305418,-3.219445,-0.692300,1.665900,23.721905,1.008309,15.614516
602.000000,0.002000,-0.449197,0.148162,0.184642,-0.035621,-1.698714,5.058201,27.181801,-9.941253,-10.348960
603.000000,0.002000,0.678705,0.052360,0.310716,-1.719960,-0.112411,0.233684,-18.966936,-1.920240,-9.412011
604.000000,0.002000,-0.103158,0.492816,0.365500,1.241984,-1.220476,0.791766,6.419482,-24.224222,-15.894416
605.000000,0.002000,-0.462604,0.309664,-0.082828,0.503342,-0.379447,-2.239842,23.109397,-16.762573,1.917948
606.000000,0.002000,-0.085055,0.474692,0.129581,2.678168,-6.104160,1.102983,7.057292,-31.236527,-4.372015
607.000000,0.002000,0.271949,0.009071,-0.241640,1.691397,2.805139,5.411821,-21.492502,1.933757,21.473844
608.000000,0.002000,0.268863,-0.231528,-0.015109,2.945638,3.195033,-2.305044,-22.853502,17.404013,-1.265810
609.000000,0.002000,0.619452,0.709271,-0.121353,0.858749,-1.135277,-0.957470,-10.136967,-11.094485,2.194371
610.000000,0.002000,-0.208079,-0.422446,0.290787,-1.140533,2.266904,1.285209,12.993748,21.861877,-13.310193
611.000000,0.002000,0.009928,0.033498,-0.205771,-0.320385,-4.053990,-0.087973,-3.658353,-0.525201,25.185474
612.000000,0.002000,0.093375,0.134694,0.293016,-4.796814,1.986567,2.662944,-14.021572,-7.143590,-26.206764
613.000000,0.002000,-0.074538,-0.248257,-0.156728,1.892783,-0.622538,-0.222987,3.292025,23.503896,16.607918
614.000000,0.002000,-0.165593,-0.103977,-0.390385,5.780717,-0.443151,1.671081,9.930230,5.776192,31.509089
615.000000,0.002000,-1.331612,1.640114,-0.343227,0.379571,-0.414870,1.690043,2.454659,-3.056537,0.626336
616.000000,0.002000,-0.203174,0.147812,0.558003,-1.737007,-0.424038,-2.698454,8.065951,-6.897097,-23.370925
617.000000,0.002000,-0.211023,-0.541238,0.287396,-1.167603,0.402854,1.802685,5.931517,23.200887,-11.769546
618.000000,0.002000,0.093443,-0.021297,-0.413252,-1.120655,1.523674,-3.399826,-10.582890,-1.646617,28.218046
619.000000,0.002000,0.292198,0.102730,0.336436,-1.979258,0.734254,-5.440761,-21.792112,-5.458690,-21.361300
620.000000,0.002000,0.147551,0.256878,-0.003784,1.179017,-2.086714,0.339140,-12.727560,-17.607240,4.217366
621.000000,0.002000,0.089150,0.042747,0.130762,-3.662819,-2.814878,-2.614260,-14.610245,-2.015699,-12.628703
622.000000,0.002000,-0.581901,0.705036,-0.170850,2.764697,-2.477693,0.783050,9.758279,-12.445346,3.445617
623.000000,0.002000,0.047629,0.759142,-0.391389,-2.380298,-1.051786,2.093738,-1.600462,-15.369938,8.409041
624.000000,0.002000,0.088333,-0.394766,-0.075761,-1.422183,0.908447,-0.687054,-5.389701,26.855458,4.135232
625.000000,0.002000,-1.361880,-1.074599,-0.668045,0.453383,1.984891,-0.666392,3.656019,2.968313,1.797387
626.000000,0.002000,0.250685,0.195998,0.433277,-0.032462,1.350085,1.204845,-17.569673,-7.352548,-24.607077
627.000000,0.002000,-0.483384,-0.348624,-0.135836,0.022070,3.150424,-3.268747,18.124021,23.038048,5.911983
628.000000,0.002000,0.467243,-0.844536,-0.840948,-0.039726,1.388317,-3.138238,-3.672328,6.182461,5.970687
629.000000,0.002000,0.048120,-1.463355,-0.140056,1.385839,0.208552,2.971601,-0.511312,7.320563,0.726984
630.000000,0.002000,-0.108548,-0.212160,0.452415,-3.053357,2.292210,-4.137838,6.329164,13.608084,-25.472317
631.000000,0.002000,-2.134767,2.342205,-0.465536,0.142897,-0.060933,0.013923,1.261662,-1.411311,0.292796
632.000000,0.002000,-0.042111,0.165012,-0.259460,2.009986,0.375689,-0.014612,4.721894,-13.889529,29.268621
633.000000,0.002000,1.888308,-2.368287,0.565486,-0.394411,-0.081842,0.141390,-1.251128,1.536769,-0.357497
634.000000,0.002000,-0.279128,0.068607,-0.376408,1.167490,0.483641,-3.506508,12.717140,-6.017345,27.023713
635.000000,0.002000,0.110830,0.873936,-0.043977,-2.364495,-0.829180,-0.256168,-2.467688,-17.447170,1.849381
636.000000,0.002000,0.109723,0.260213,-0.062825,3.434241,1.992102,-1.267714,-12.116158,-21.028060,11.774852
637.000000,0.002000,0.051265,0.165650,-0.346174,4.269514,-3.534034,-1.320550,-0.141791,-13.355648,24.944036
638.000000,0.002000,0.040096,-0.499529,-0.328585,4.726076,2.074313,2.242633,-0.342521,20.745460,13.706265
639.000000,0.002000,0.204075,0.218456,0.824095,-2.764611,-0.319358,-3.471125,-5.041145,-3.970845,-16.263951
640.000000,0.002000,-2.540030,-0.810985,-0.919958,0.696244,-1.256972,-1.082266,2.173825,0.655367,0.793427
641.000000,0.002000,0.492507,-0.392878,1.196195,-2.331759,2.633940,0.097144,-3.241755,2.451482,-7.527760
642.000000,0.002000,0.101705,-0.001566,-0.503438,1.910412,-2.030139,-2.426337,-6.329021,-1.712985,32.724792
643.000000,0.002000,0.560147,2.034750,1.556598,0.888729,-0.979362,-0.113506,-0.577238,-2.146654,-1.655217
644.000000,0.002000,0.563627,-0.274892,-1.186523,-1.657721,-0.897536,1.974933,-3.658177,1.721121,7.475037
645.000000,0.002000,-0.120281,0.183879,-0.024246,-1.854445,2.175601,3.554723,16.151036,-23.293703,7.162029
646.000000,0.002000,1.178809,-0.429421,-0.454261,-2.174092,0.805957,1.384707,-7.634098,2.841403,2.798314
647.000000,0.002000,0.670779,-0.090939,-0.939149,-2.662277,1.796219,-0.778960,-6.081210,0.262420,8.911930
648.000000,0.002000,-0.229031,-0.139951,0.129694,-5.222656,2.614484,-2.556630,20.067756,16.875421,-10.028386
649.000000,0.002000,0.099984,-0.385247,0.016061,-0.199767,0.746576,-0.446998,-6.992597,27.226666,-3.520132
650.000000,0.002000,3.551300,-0.575962,-0.225871,0.732726,0.652407,1.024599,-1.467790,0.206438,0.101732
651.000000,0.002000,-0.274405,0.586804,-0.864963,1.589130,0.679312,3.780008,2.475387,-6.345901,9.637117
652.000000,0.002000,-0.292853,0.204284,0.120568,-2.334237,-2.051449,1.018733,19.600009,-21.041798,-5.955519
653.000000,0.002000,0.282851,0.568985,-0.033457,-3.907709,0.449901,-3.137363,-12.781576,-23.462290,4.580473
654.000000,0.002000,0.674392,-0.277521,1.133483,-2.520006,0.299011,-2.112170,-4.243482,1.772217,-6.940716
655.000000,0.002000,-0.672665,1.407507,0.306771,-0.497933,-2.441485,-1.476633,2.810760,-5.945253,-1.110099
656.000000,0.002000,-0.336458,0.304819,1.715324,2.135933,0.127273,-0.995536,0.842836,-0.858870,-5.396637
657.000000,0.002000,-0.154071,0.034615,-0.420280,-4.730915,-1.187524,0.324543,7.892661,-4.406849,29.266583
658.000000,0.002000,-0.077019,0.084135,0.012345,-2.681756,-0.424786,1.872461,4.674623,-10.260243,-10.668886
659.000000,0.002000,-0.010508,0.560498,0.385106,0.862635,-2.081815,-3.789204,-1.519498,-22.268106,-15.502251
660.000000,0.002000,0.217492,0.615692,-0.371948,-1.766959,-0.175345,3.949115,-6.793047,-17.858102,10.875232
661.000000,0.002000,0.257831,0.023352,0.151880,-3.519194,0.674698,4.114993,-26.201678,1.321892,-14.410911
662.000000,0.002000,0.185404,0.242494,0.435155,0.808828,3.591248,2.947748,-10.271831,-13.201419,-26.371639
663.000000,0.002000,-0.121111,-0.115463,0.388567,-1.581615,-3.863394,3.282801,8.154610,7.848902,-30.279201
664.000000,0.002000,0.213430,-0.096732,-0.683835,-0.710304,-2.770749,3.609790,-6.821803,3.105275,19.962509
665.000000,0.002000,-0.258717,0.432920,0.006383,2.658682,1.160987,0.804518,18.472929,-25.545440,-2.184046
666.000000,0.002000,-0.210872,-0.264307,-0.175616,0.275733,2.857292,0.176682,14.657903,18.674954,18.691248
667.000000,0.002000,-0.507932,-0.813460,-0.251042,2.174971,2.550003,2.634662,6.846760,11.772178,3.803105
668.000000,0.002000,0.700234,0.254498,0.459085,0.032295,3.015467,0.511863,-13.373222,-5.453505,-8.349784
669.000000,0.002000,-0.601776,-0.017170,0.501561,3.205607,2.330017,0.506181,15.335316,1.214264,-13.827031
670.000000,0.002000,-0.119054,-0.249402,-0.429768,-3.264452,-1.283957,-1.966222,5.603525,13.057179,25.617180
671.000000,0.002000,-0.180543,0.204018,-0.526648,-0.190652,-1.060583,-1.888788,8.174280,-8.915263,24.751198
672.000000,0.002000,-0.390884,-0.123745,0.358332,-3.163777,-0.962200,2.501629,17.478877,4.694332,-20.030960
673.000000,0.002000,-0.470444,0.629883,-0.469899,-0.730513,-1.182923,5.219456,7.453870,-11.314959,10.237829
674.000000,0.002000,-0.321197,-0.827594,1.008174,-1.097060,2.897473,-1.109833,1.896387,5.423951,-6.554419
675.000000,0.002000,0.311637,-0.408793,0.183847,1.570329,0.128547,0.289007,-16.386904,22.714548,-8.188008
676.000000,0.002000,0.354860,0.256407,-0.391748,1.467657,1.812719,-1.184660,-19.750164,-10.525657,15.540172
677.000000,0.002000,-0.325371,-0.189926,-0.044776,-1.200495,-1.766482,2.917355,25.897688,11.242002,4.758108
678.000000,0.002000,-0.080129,0.058570,-0.569425,3.864859,1.920785,-0.086240,3.408357,-2.082087,25.456970
679.000000,0.002000,0.832565,0.470167,0.229637,-3.477523,-1.472626,0.329456,-11.597287,-7.126521,-3.516221
680.000000,0.002000,-0.163378,0.053408,-0.088648,-3.809080,-6.133407,-0.533573,24.860803,-2.156702,12.200139
681.000000,0.002000,0.380172,0.281448,0.403231,-0.574442,2.034850,0.427183,-19.000172,-11.511840,-16.109211
682.000000,0.002000,-0.055731,-0.138114,-0.109390,-0.647313,1.242184,1.283483,2.486655,22.235185,9.181667
683.000000,0.002000,-0.008060,-0.319003,0.735981,-0.848089,0.430956,1.065628,-1.164280,8.407873,-18.309781
684.000000,0.002000,-0.354066,-0.472472,-0.360293,-0.645511,5.063869,0.278381,12.958864,15.896714,12.371668
685.000000,0.002000,0.393954,-0.102474,0.080680,-1.577585,1.748060,0.407001,-31.570705,6.530748,-6.184673
686.000000,0.002000,-0.149841,-0.432547,-0.025134,-0.169034,5.397561,1.967115,7.973403,30.035718,2.681171
687.000000,0.002000,-0.258123,0.290468,2.984192,-0.491106,-0.424436,-0.828340,0.180173,-0.190919,-2.131050
688.000000,0.002000,-0.024791,1.364078,-0.455568,-0.335819,-1.460789,2.426845,-0.030269,-7.463848,3.061872
689.000000,0.002000,-0.868864,0.053010,0.711830,3.387017,0.717366,1.486902,9.382373,-0.218265,-7.494286
690.000000,0.002000,1.549565,0.540099,1.241510,-1.119551,0.893167,-1.162176,-3.105542,-1.071212,-2.455288
691.000000,0.002000,-0.398871,-0.491652,0.142936,-2.573457,3.267602,-2.790428,15.837025,20.895501,-6.296222
692.000000,0.002000,-0.254546,-0.084337,-0.145360,-0.138939,1.411554,1.999696,18.701815,6.202728,20.796270
693.000000,0.002000,-0.232364,0.494677,0.380710,0.774550,-2.329097,-4.536698,9.175203,-19.160174,-15.703097
694.000000,0.002000,0.019481,-0.158435,0.364008,2.803264,0.686642,1.616706,-3.707672,12.811519,-32.048081
695.000000,0.002000,0.389225,0.323359,0.170275,-1.760714,-2.062184,1.776102,-19.831050,-15.277939,-7.668413
696.000000,0.002000,-0.732475,-1.247325,2.073540,1.228954,0.056169,-0.141103,0.782233,1.459301,-2.455862
697.000000,0.002000,1.498738,-2.141314,2.087525,-0.869051,-0.050288,0.045424,-0.805085,1.101842,-1.075704
698.000000,0.002000,-0.124772,0.124462,-0.409765,-1.327684,0.460609,-2.018229,8.037659,-6.804023,27.215039
699.000000,0.002000,1.812825,0.383761,-0.621121,-0.927309,2.582280,-0.920699,-4.134309,-0.861124,1.334957
700.000000,0.002000,-1.398910,0.382750,1.849243,0.311115,-0.513282,-0.827791,1.989897,-0.609961,-2.660174
701.000000,0.002000,-1.183475,0.097829,1.061584,0.282140,-0.789242,-1.185049,5.073398,-0.253675,-4.633463
702.000000,0.002000,-1.676740,0.667481,1.534479,-0.189921,-1.481561,-1.105169,2.390658,-0.939079,-2.184289
703.000000,0.002000,-0.572486,0.065177,0.362227,2.635812,-2.557787,0.163598,20.842763,-2.145105,-13.795978
704.000000,0.002000,-0.702067,0.874016,0.961639,0.740809,-2.263865,-1.798664,3.667856,-4.519191,-4.943084
705.000000,0.002000,-2.397009,-1.316628,-1.030859,-1.994793,0.811278,2.606352,1.845325,1.043471,0.813910
706.000000,0.002000,0.213165,-0.037506,-0.612045,-1.039362,-0.534143,0.294006,-12.822599,4.672449,26.623479
707.000000,0.002000,0.310563,0.144466,-0.453192,-0.279110,2.209609,1.750572,-14.556660,-5.772451,22.619686
708.000000,0.002000,-0.120863,-0.252222,0.328920,-0.396025,-0.693346,-2.393288,10.614406,21.560216,-21.980878
709.000000,0.002000,-2.721789,0.356834,-1.699925,-0.688131,-0.265748,-1.157473,1.576825,-0.227303,0.980691
710.000000,0.002000,-0.287385,0.012617,0.048950,-2.385198,-0.545263,4.720146,27.964846,1.308813,-6.476407
711.000000,0.002000,-0.828590,-0.826407,1.952102,0.437522,-0.105717,-1.192124,1.242781,1.304296,-3.110341
712.000000,0.002000,0.076404,0.326800,0.423905,-1.784197,2.083328,1.468925,-5.413155,-17.338971,-24.287964
713.000000,0.002000,-0.330086,-0.551990,0.160545,0.212186,2.515985,-1.844738,12.811644,23.534276,-7.416281
714.000000,0.002000,-0.132118,0.203753,-0.172935,-4.468169,0.448998,2.230397,11.894475,-21.183323,19.846165
715.000000,0.002000,0.641688,-0.908535,-2.065764,1.417836,-0.181505,1.571681,-0.923262,1.267486,2.984151
716.000000,0.002000,0.280290,0.002843,-0.199112,3.945889,-3.080837,-3.162435,-21.909248,-0.514466,16.767105
717.000000,0.002000,0.201009,0.211032,0.605328,2.080152,-0.786650,0.796547,-9.337535,-5.756211,-20.134576
718.000000,0.002000,0.098626,-0.029327,1.268562,-0.445268,2.714488,-2.070508,-0.834041,0.479054,-9.582024
719.000000,0.002000,0.185431,-0.590084,-0.892764,-0.242498,2.924103,2.067413,-1.901450,6.485898,9.813719
720.000000,0.002000,0.040200,0.284078,0.513992,-1.853604,2.155005,3.495870,-3.678603,-12.068051,-24.164253
721.000000,0.002000,-0.011019,0.517044,0.210105,-3.188608,1.864647,-0.352988,-0.011984,-28.237603,-10.478921
722.000000,0.002000,-0.328236,-0.269889,0.413429,1.649666,-2.757800,-1.154961,12.935834,13.067378,-19.715943
723.000000,0.002000,0.055010,0.326452,0.077390,-0.106710,5.463954,0.946186,-8.435173,-32.072624,-11.850573
724.000000,0.002000,-0.196720,-0.116566,-0.536140,-0.783034,-3.112332,-4.220222,8.422214,5.878607,25.932600
725.000000,0.002000,-0.249980,0.106811,-0.024338,1.467550,-2.982115,2.655117,30.595814,-18.169955,8.207571
726.000000,0.002000,0.191390,1.489822,-1.666301,-1.378898,-0.552162,0.433651,-0.402057,-2.419848,2.656289
727.000000,0.002000,-0.034383,0.020004,0.189336,1.422786,-5.836746,4.184573,2.516366,-0.417344,-19.689353
728.000000,0.002000,0.088988,0.415134,0.299332,5.306277,-0.133168,0.495730,-4.720325,-29.234568,-14.687169
729.000000,0.002000,0.442409,-0.434704,0.196542,2.570555,-1.588825,1.376660,-19.646332,16.049749,-7.942673
730.000000,0.002000,0.319991,0.245953,-0.136569,2.422617,-2.639377,-3.625411,-24.162667,-14.647689,9.467720
731.000000,0.002000,0.268466,-0.424129,0.017794,0.910518,2.267306,1.505696,-18.706417,25.545797,-2.576698
732.000000,0.002000,-0.324954,0.301668,-0.231589,5.676379,-0.220066,-1.112430,17.212247,-16.090158,15.387040
733.000000,0.002000,0.071003,-0.644652,0.407308,-0.588408,-2.475695,1.232626,-2.223153,17.571509,-11.012629
734.000000,0.002000,0.022272,0.164186,0.442958,2.673895,-1.462277,2.549508,-3.060105,-9.799185,-30.487392
735.000000,0.002000,-0.335202,0.110438,-0.238299,-3.012188,3.378686,-3.022942,24.226817,-10.164024,21.665583
736.000000,0.002000,-0.182234,-0.443616,0.466198,2.905580,-0.893586,-1.695517,3.289856,15.945803,-16.348473
737.000000,0.002000,0.058029,-0.439066,0.342987,1.062712,4.170374,1.391252,-2.285299,23.973430,-17.111056
738.000000,0.002000,0.657635,0.669189,-0.895185,-2.973735,1.088915,0.817326,-4.445986,-4.931633,6.184856
739.000000,0.002000,-0.257690,0.062486,-0.119877,4.853291,4.871387,-3.088588,23.054656,0.936236,17.471707
740.000000,0.002000,0.120190,-0.000217,0.388735,-0.085347,-2.529404,3.713944,-7.388095,3.674017,-27.626293
741.000000,0.002000,0.726238,-0.165948,-0.876762,-3.192368,1.861106,-0.568842,-7.439108,1.713308,7.964441
742.000000,0.002000,0.005492,0.373434,-0.155695,-1.012969,-0.699758,1.452825,-1.276289,-27.087942,14.615018
743.000000,0.002000,0.608383,0.890609,0.177498,-3.078183,-0.154215,1.470725,-7.233329,-9.716131,-1.947518
744.000000,0.002000,-0.186770,-0.267448,-1.251942,2.007846,-1.770186,1.612617,1.244005,1.716961,8.908902
745.000000,0.002000,-0.991916,0.393289,-1.694810,1.773632,-1.597832,0.748244,2.123914,-0.826553,3.752077
746.000000,0.002000,0.035729,-0.052933,0.078163,3.006376,1.138912,0.885048,-10.639776,1.140142,-0.909858
747.000000,0.002000,0.424722,-0.022241,-0.541191,-0.044847,-0.832201,4.887743,-15.582161,1.454347,17.265275
748.000000,0.002000,-0.061110,-0.360159,-0.488978,1.840082,1.103316,-2.922962,2.125366,14.476423,22.660743
749.000000,0.002000,0.309999,-0.419539,0.107632,3.067380,5.149218,-0.230927,-21.193187,22.203077,-8.317995
750.000000,0.002000,0.269856,0.084256,0.256891,1.523153,0.252137,-1.857347,-19.435414,-0.610750,-22.745996
751.000000,0.002000,-0.136832,-0.338706,0.061463,0.351759,-5.114256,-2.957800,12.772758,26.861350,-7.211558
752.000000,0.002000,1.507068,-2.460821,-1.309193,0.505278,0.842620,-0.087907,-0.930009,1.478863,0.775174
753.000000,0.002000,0.063301,-0.265188,0.025593,-1.935415,-1.564182,1.483491,-12.222811,27.994036,-2.519558
754.000000,0.002000,-0.176291,-0.260299,0.401649,3.450201,0.689456,-0.648979,7.772837,15.263474,-24.110789
755.000000,0.002000,-1.745159,0.985009,-0.385729,0.993312,-0.151671,2.236159,3.725440,-2.115585,0.856322
756.000000,0.002000,-0.311358,-0.759494,0.092051,-0.676195,2.926488,2.855327,6.377098,17.755271,-2.315850
757.000000,0.002000,0.194679,-0.367890,-0.106415,1.390361,-0.714654,-0.425775,-15.139339,24.141081,7.247334
758.000000,0.002000,0.018103,-0.070804,0.068485,-0.982545,1.672583,3.600661,-2.090312,7.687816,1.752458
759.000000,0.002000,-0.449066,-0.036263,-0.208127,-0.618953,2.465490,-1.438040,29.760474,7.775076,17.333880
760.000000,0.002000,-0.070773,0.071250,0.052112,-6.032005,-3.816960,1.853658,7.160511,-4.710746,-9.352730
761.000000,0.002000,0.297099,-0.263391,-0.298999,1.153355,0.932579,5.605866,-18.380412,14.244442,20.647330
762.000000,0.002000,0.161832,0.204505,-0.054595,-3.312684,1.080577,-1.847680,-19.669784,-18.471254,2.819145
763.000000,0.002000,-0.038452,0.125264,0.024400,6.255569,-2.899988,-0.486698,-3.537951,-13.477320,8.248087
764.000000,0.002000,-0.129744,0.344112,-0.015414,-0.774370,-0.261575,2.916613,7.775534,-28.902938,3.351592
765.000000,0.002000,-0.377235,-0.268804,1.079791,-0.431913,0.401916,-3.880409,3.420138,2.886484,-10.112918
766.000000,0.002000,-0.200781,-0.089701,0.369697,-0.403178,3.704120,-0.010549,12.104226,6.236413,-28.973730
767.000000,0.002000,0.453469,0.444971,-0.025854,1.345492,2.329627,-1.089913,-20.419301,-15.094716,0.742476
768.000000,0.002000,0.113693,-0.446233,0.125140,-3.314605,-1.886153,3.376693,-13.920780,31.360344,-7.165111
769.000000,0.002000,-0.098445,-0.191454,-0.279308,1.898449,-0.325532,-1.855533,6.749597,15.580821,26.721251
770.000000,0.002000,1.047734,1.742978,-0.881154,0.582242,-1.239949,0.497158,-1.751823,-2.843985,1.478776
771.000000,0.002000,0.601903,-0.023183,-0.463273,-3.045208,2.220391,2.030500,-16.425645,1.047442,12.360164
772.000000,0.002000,-0.142115,-0.140783,-0.582874,-1.231498,-0.914746,-2.767876,4.643848,6.270875,24.642513
773.000000,0.002000,-0.238751,0.375691,-0.011991,-2.282758,0.778482,3.812916,16.157010,-25.423629,2.712276
774.000000,0.002000,-0.136740,-0.209701,-0.228232,-1.272472,0.429221,0.032220,12.915209,15.864158,21.387982
775.000000,0.002000,0.523176,-0.137447,-0.135535,0.990437,-4.795251,1.293445,-27.671975,6.409111,6.848301
776.000000,0.002000,0.478932,-0.585579,-0.681498,-2.252743,-2.595929,2.960238,-6.844898,7.821913,8.891260
777.000000,0.002000,0.225611,-0.073445,-0.042870,2.794110,1.723870,-2.259683,-18.130814,6.636894,8.050602
778.000000,0.002000,-0.181555,-0.457749,0.153374,0.173514,-0.966678,-2.423176,16.490551,30.935177,-13.975526
779.000000,0.002000,-0.234942,0.098455,0.008447,1.377662,-2.957333,-1.565742,25.938599,-11.165938,-4.968326
780.000000,0.002000,0.598680,-0.030622,-0.065265,1.033866,-3.087601,-2.280135,-27.766876,1.962886,-0.622436
781.000000,0.002000,0.372831,0.328615,0.273248,-4.028950,-1.989087,3.086245,-20.936993,-15.962837,-13.728173
782.000000,0.002000,-0.236708,-0.110978,0.250528,-1.202220,2.070599,-5.446063,19.431900,7.324395,-25.195378
783.000000,0.002000,0.065985,0.397651,1.356455,-1.352430,-1.945857,-2.449042,-0.906239,-1.646944,-7.179601
784.000000,0.002000,0.009056,-0.286786,0.047259,-0.625124,0.926456,-3.723294,-4.678243,29.888017,-4.755179
785.000000,0.002000,-0.203854,0.810914,0.552194,-2.690038,-1.096688,3.727150,2.817058,-12.146675,-7.665977
786.000000,0.002000,-0.246291,0.198319,-0.340972,3.184883,-1.265045,-3.434274,14.323778,-11.969251,22.658278
787.000000,0.002000,0.812542,-1.609740,-2.358222,0.248325,0.488469,1.115486,-0.606317,1.173657,1.722775
788.000000,0.002000,0.438447,-0.032233,0.465213,1.589806,-3.342350,-1.448773,-19.508423,1.807203,-19.069804
789.000000,0.002000,0.077026,0.451331,-0.036146,-1.582731,-2.757497,0.479241,-14.014972,-29.124332,3.218587
790.000000,0.002000,0.097978,0.114748,-0.527179,1.118997,-1.277969,2.574754,-5.759693,-5.098361,28.237525
791.000000,0.002000,0.072816,-0.449296,-0.030440,-4.281179,1.432612,4.553857,-5.759056,29.738974,-0.034853
792.000000,0.002000,-0.784156,-0.574652,0.084243,3.384135,0.084669,1.141070,11.876918,9.229521,-1.261038
793.000000,0.002000,-0.079845,0.310105,-0.065121,1.957799,-5.918830,-0.861069,4.456045,-29.401478,10.545595
794.000000,0.002000,-0.595077,0.286789,-0.268487,0.601489,-1.650852,-4.444719,17.860357,-8.848562,8.069472
795.000000,0.002000,0.339076,-0.395915,-0.027164,4.407793,-0.962206,-0.141269,-22.872875,20.126283,2.704772
796.000000,0.002000,-2.187244,-1.735623,-0.015383,-0.622849,0.765111,0.395139,1.940980,1.542365,0.005523
797.000000,0.002000,0.330128,-0.103598,0.070548,2.273175,3.664078,-0.365808,-28.876450,7.979984,-4.623887
798.000000,0.002000,-1.422129,-0.193765,1.092425,0.833166,-1.955958,0.453022,4.218683,0.712530,-3.499722
799.000000,0.002000,-0.038930,0.138101,-0.121064,-2.987552,2.417710,-1.579196,-4.183784,-15.510819,19.953897
800.000000,0.002000,0.099493,0.197878,0.174563,1.883999,-2.199391,-0.928295,-12.325972,-18.233405,-14.715145
801.000000,0.002000,0.377932,-0.049585,-0.048895,2.415658,-1.777344,-0.113204,-34.662519,6.483432,2.468528
802.000000,0.002000,0.032556,-0.070442,0.071104,-5.849193,-0.440577,-4.275125,-15.202051,14.651792,-1.521516
803.000000,0.002000,-0.004957,-0.253896,0.055901,-2.587584,2.953511,2.445858,-1.266372,26.456748,-5.923331
804.000000,0.002000,-0.673012,0.527696,-0.046798,0.279365,-0.850565,2.949132,13.826286,-11.354154,1.748525
805.000000,0.002000,0.037501,0.069245,0.030022,2.252864,-2.713959,-0.120253,-11.561439,-8.288185,-4.694002
806.000000,0.002000,-0.093577,0.829744,-0.125378,-2.952838,-4.102481,-1.829604,2.095710,-18.440140,3.532280
807.000000,0.002000,0.350579,-0.183509,0.262347,-4.018088,3.265882,-2.328218,-24.946512,10.901043,-14.908179
808.000000,0.002000,-0.115517,0.333975,0.285949,-3.907501,-0.625236,2.675518,4.344702,-18.920313,-24.301226
809.000000,0.002000,-0.216972,-0.193373,0.323505,-1.019790,-3.260249,0.077141,14.612239,14.829778,-24.163969
810.000000,0.002000,0.092197,0.152535,0.003989,2.588772,-0.070796,1.820303,-16.662229,-17.982034,3.730597
811.000000,0.002000,-0.860759,-1.678032,-0.400478,-0.453554,0.492968,1.962628,2.053740,4.170563,0.994574
812.000000,0.002000,-0.108543,0.292257,0.691090,-0.256501,1.975839,2.567390,2.537039,-8.638122,-20.196970
813.000000,0.002000,0.167435,0.332287,-0.369218,1.436757,1.016195,-4.010698,-10.642414,-18.759957,20.676777
814.000000,0.002000,-0.989788,0.671458,0.038734,0.164497,-2.191188,1.652598,9.119109,-6.058533,-0.322008
815.000000,0.002000,-0.400543,-0.012440,0.312262,-2.953507,0.736109,3.290428,22.844107,3.996991,-17.383035
816.000000,0.002000,0.304066,-0.138676,0.262220,2.382702,3.781753,1.550416,-29.961023,6.698745,-17.596524
817.000000,0.002000,0.761542,0.073909,0.208841,-2.047847,-1.994887,-3.939633,-18.576342,-2.084563,-4.918837
818.000000,0.002000,-0.277306,0.064672,-0.026065,-1.755555,-4.093729,5.828148,37.039470,-6.335226,4.516138
819.000000,0.002000,0.235270,-0.379150,-0.347395,0.292155,4.847194,-2.683284,-10.347880,21.277703,15.075097
820.000000,0.002000,-0.185188,0.202159,-0.034533,-1.510964,0.676507,1.588356,15.972121,-20.392166,8.064799
821.000000,0.002000,0.451714,0.133796,0.017824,1.051770,2.761110,2.007418,-30.942693,-7.809937,-1.819527
822.000000,0.002000,-0.475717,1.505164,0.153802,1.645980,-1.350767,2.992950,2.045365,-6.413038,-0.458487
823.000000,0.002000,0.139177,-0.242860,0.341203,-1.991369,-5.349676,-0.200184,-8.375764,16.240635,-25.772748
824.000000,0.002000,-0.191798,0.435643,-0.148093,0.257415,-1.165424,-0.334903,8.576257,-24.785817,11.984643
825.000000,0.002000,-1.008714,0.608090,-1.448231,2.485522,1.425116,1.239131,2.695223,-1.522732,3.974381
826.000000,0.002000,0.445517,0.137504,-0.342912,-1.531721,0.399314,4.400614,-21.184579,-3.755021,15.608830
827.000000,0.002000,-0.068702,0.170553,-0.113796,2.216745,-2.265573,2.155890,4.492879,-22.458341,19.140351
828.000000,0.002000,2.367030,-0.441455,-1.106523,-0.277811,-0.524505,0.298992,-2.340698,0.546582,1.096998
829.000000,0.002000,0.550152,0.025403,-0.091235,0.910800,-3.031244,1.804863,-28.685413,-4.347106,6.092353
830.000000,0.002000,-0.031159,-0.588536,-0.187078,0.191510,-2.264923,0.362333,3.014925,26.180208,11.873963
831.000000,0.002000,0.115201,-0.052912,-0.549501,3.639733,1.173187,-3.314157,-6.083376,3.271310,27.180886
832.000000,0.002000,0.537703,-0.200663,0.724982,-2.950566,0.865120,-2.473645,-9.552416,3.738886,-11.910241
833.000000,0.002000,-0.289136,-0.495701,-0.367969,-0.189070,2.585635,-2.657928,9.198142,17.766939,13.009381
834.000000,0.002000,0.418904,0.579860,0.087709,1.360588,0.295877,3.076133,-14.117243,-18.426744,-3.069360
835.000000,0.002000,2.063846,-0.396601,1.059363,-1.103769,0.786827,0.977859,-2.833442,0.604618,-1.448587
836.000000,0.002000,-1.314737,1.626383,-2.744715,-0.013131,0.139672,0.149172,0.630425,-0.775371,1.325164
837.000000,0.002000,-0.108360,1.305605,1.484431,3.324314,-0.070927,0.595076,0.174799,-2.996222,-3.511535
838.000000,0.002000,0.056407,0.484149,-0.044882,-0.558970,2.300887,2.011603,-7.327062,-31.466817,5.132620
839.000000,0.002000,0.294684,0.431579,0.083900,2.535990,1.097431,-3.036471,-18.254140,-21.340169,-6.704091
840.000000,0.002000,1.749211,0.086276,-2.892772,0.428092,0.744782,-0.845036,-0.881223,-0.053450,1.444393
841.000000,0.002000,1.154744,1.165888,-0.172600,-0.231118,-0.932741,-2.287407,-4.295748,-4.135968,0.569626
842.000000,0.002000,-0.941218,0.268388,0.184181,1.980006,1.164219,-2.007758,13.813860,-4.532244,-2.179354
843.000000,0.002000,-0.465357,-0.096046,-0.154759,-2.337726,-1.550257,-1.718884,26.842812,11.231696,12.754816
844.000000,0.002000,-0.809873,0.756612,1.399242,-0.428153,0.082915,-0.771897,2.478537,-2.114382,-4.270243
845.000000,0.002000,0.282308,0.583520,-0.001916,-0.102847,1.604118,-1.903478,-12.439879,-24.193510,-0.387430
846.000000,0.002000,-0.198555,0.116267,-0.052077,2.365864,0.987747,4.075625,19.178834,-15.860924,10.891225
847.000000,0.002000,0.003751,0.273941,-0.248803,-0.767623,3.273758,-4.983549,-7.356059,-17.469333,21.661756
848.000000,0.002000,0.170978,-0.242824,-0.180592,-4.736234,-3.820389,0.122427,-14.529713,20.753517,14.641681
849.000000,0.002000,0.077359,1.818655,0.517496,-3.290576,0.818316,-1.211162,-0.207158,-4.726576,-1.292378
850.000000,0.002000,-0.288990,-0.038640,-0.661807,-1.633512,2.054929,3.442891,8.074594,3.189586,19.738609
851.000000,0.002000,-0.050598,0.290234,0.275507,5.086431,2.094941,-3.483054,4.633911,-22.174696,-22.649899
852.000000,0.002000,-0.266479,-0.280256,0.034687,1.603090,-1.643719,4.708601,21.213989,21.735541,-4.105589
853.000000,0.002000,0.065797,-0.060035,0.010903,3.567951,-2.499515,-1.451611,-15.024254,12.439760,1.322289
854.000000,0.002000,-0.440076,-0.340466,0.180499,-0.968829,-1.394978,0.488302,21.569415,15.975415,-9.676073
855.000000,0.002000,-0.356753,0.378301,0.166271,0.428045,1.487081,4.986763,23.803917,-27.237468,-8.206924
856.000000,0.002000,0.220823,-0.455960,-0.114581,1.118749,-2.636547,-1.377947,-12.800038,24.255874,7.235960
857.000000,0.002000,-0.649639,-0.562888,0.149072,3.435030,0.013943,-2.427221,12.813400,12.143185,-3.022707
858.000000,0.002000,0.930273,-0.180270,0.243250,-2.720488,-0.898380,3.221983,-13.291227,2.770400,-3.516596
859.000000,0.002000,-0.025079,0.035039,0.341740,-3.407062,2.257656,0.283052,-0.882054,-2.375033,-28.289622
860.000000,0.002000,0.108364,0.466099,0.221620,1.603940,-0.848257,1.006858,-9.126191,-28.630230,-13.860678
861.000000,0.002000,-0.865360,-2.447492,0.511476,1.031812,0.494241,0.036673,0.859917,2.626930,-0.561542
862.000000,0.002000,-0.296919,-0.000500,0.310663,-0.261324,1.232563,4.259079,20.076493,1.910969,-25.699644
863.000000,0.002000,-0.542122,0.608471,-0.424191,3.286950,-2.446732,0.582109,9.749139,-11.085886,7.826283
864.000000,0.002000,1.881105,-0.249775,-2.988467,-0.534132,-1.368422,-0.482501,-0.840369,0.109596,1.306501
865.000000,0.002000,1.427922,-0.389397,-1.764345,-0.192539,1.694611,-0.081302,-2.124315,0.602893,2.620721
866.000000,0.002000,0.649604,-0.203123,-0.627998,-1.809329,1.142888,1.066401,-10.568453,3.274641,9.348485
867.000000,0.002000,-0.395887,0.033945,-0.663912,3.620979,2.752420,0.654996,9.949950,-1.129728,17.752755
868.000000,0.002000,-0.712870,0.347217,-0.870122,0.188924,-0.407022,3.677575,6.381968,-2.969636,8.176298
869.000000,0.002000,-0.318635,0.208478,0.255987,-1.381944,-2.159370,-1.864730,21.027900,-14.333863,-17.293058
870.000000,0.002000,-0.070279,0.753617,0.528874,-3.989583,-0.449706,0.903289,0.064369,-13.138223,-9.219625
871.000000,0.002000,0.111315,-0.450159,-1.134041,0.515301,-0.641295,2.545530,-0.773192,3.311244,9.198109
872.000000,0.002000,2.060272,0.660172,-0.958413,-0.195019,-1.479234,0.473225,-2.889535,-0.955330,1.312560
873.000000,0.002000,-0.937228,-0.119620,0.105532,2.128133,1.832498,3.240043,15.461726,2.212189,-1.314925
874.000000,0.002000,-0.155895,-0.188971,-0.499406,-4.729450,-1.782881,-1.220837,6.583922,10.444553,26.658184
875.000000,0.002000,-0.351343,0.730803,0.014878,2.127060,-3.558948,-2.417526,8.315496,-18.392813,0.229278
876.000000,0.002000,-1.490434,-0.000654,0.043804,0.543370,-1.368210,-1.860462,7.582601,-0.167823,-0.133502
877.000000,0.002000,-0.231793,-0.136418,-0.030266,-6.458329,1.333035,2.279657,21.811919,17.939952,5.550745
878.000000,0.002000,0.393542,0.127704,-0.348472,1.748493,2.588176,-0.496743,-19.981983,-5.210440,17.997906
879.000000,0.002000,0.294033,0.274446,0.081586,3.498094,-0.638912,1.219930,-26.422118,-13.680054,-2.127044
880.000000,0.002000,-0.441758,0.116505,0.011397,3.255146,-1.382423,4.770566,27.880122,-5.730254,-4.619739
881.000000,0.002000,0.019537,-0.414839,-0.350359,1.695847,-1.336248,-1.030456,-0.784067,20.510343,18.765255
882.000000,0.002000,-0.250692,-1.846333,-0.748140,-0.125235,1.576489,-0.399645,0.607276,4.000122,1.639944
883.000000,0.002000,0.989346,0.532526,-0.907139,-1.453551,1.316922,2.761342,-5.939487,-3.230534,4.533321
884.000000,0.002000,-0.097624,0.824606,0.272640,3.341453,-2.263682,-1.260259,1.351831,-17.311567,-5.552248
885.000000,0.002000,-0.713082,-0.617022,-0.679424,-1.044763,0.570845,3.413234,6.712823,6.286713,6.485996
886.000000,0.002000,0.204989,-0.230278,-0.407452,-0.719786,0.289010,-3.089700,-12.555799,12.440244,24.266581
887.000000,0.002000,-0.018090,0.213204,0.179744,3.463461,3.144607,-0.427687,2.524355,-25.013441,-22.443414
888.000000,0.002000,-0.163962,-0.613948,-0.299657,-1.642728,-1.570052,-1.682585,5.556351,20.694875,10.190431
889.000000,0.002000,-0.196742,0.135176,0.183466,0.630887,1.574819,-0.130789,16.232006,-9.943004,-18.581465
890.000000,0.002000,-1.899819,0.614851,0.491865,1.501283,-0.421409,-2.001055,3.946498,-1.301333,-0.984712
891.000000,0.002000,0.324767,-0.401918,0.203633,2.808900,1.991350,2.917597,-19.773288,20.717247,-12.235581
892.000000,0.002000,-0.140228,-0.512537,0.101190,0.450307,0.316246,-3.899540,5.455081,28.108074,-0.537973
893.000000,0.002000,0.098058,0.164939,-0.519625,-3.354559,2.031961,4.161427,-4.973171,-7.679042,27.179886
894.000000,0.002000,-0.041163,-0.169903,-0.288468,-2.613807,1.422980,-2.387573,1.615710,15.872707,22.766174
895.000000,0.002000,-0.579299,-0.673961,-0.753395,2.757764,0.747121,1.670059,4.250914,6.606194,7.395324
896.000000,0.002000,0.129924,0.155393,-0.216844,3.975807,-1.191961,-0.005940,-8.560442,-13.356846,22.708972
897.000000,0.002000,-0.154832,-0.094530,0.132542,-0.713069,2.135813,-1.206508,17.190880,14.615780,-16.624137
898.000000,0.002000,0.356395,-0.068308,-1.155675,-0.738474,4.269497,0.529813,-2.895816,0.400077,9.529992
899.000000,0.002000,0.141347,-0.222606,-0.157905,2.658652,-2.302354,2.639315,-13.833231,20.644671,11.807199
900.000000,0.002000,0.007578,-0.555515,-0.171591,1.886405,-1.053075,-1.151514,-1.044742,27.054894,9.229335
901.000000,0.002000,-2.075554,-1.590192,-1.353270,0.393897,1.288083,0.675420,1.562206,1.210962,1.040556
902.000000,0.002000,-0.397507,-0.144548,0.071781,-1.375926,-1.832705,1.609862,30.530291,11.145508,-2.841767
903.000000,0.002000,0.176932,0.132197,-0.169660,-1.477465,-1.777530,1.567340,-19.617334,-12.079490,16.253310
904.000000,0.002000,-0.259797,0.458157,0.010156,0.864908,1.233511,0.029433,15.661628,-29.274327,-1.623167
905.000000,0.002000,0.030034,-0.165907,0.495287,2.735326,-0.281011,3.381457,-3.101830,12.203914,-27.326446
906.000000,0.002000,0.030530,0.547871,-0.080037,-1.664586,-1.584946,-1.507898,-0.981785,-30.834328,6.063288
907.000000,0.002000,-0.399409,-0.298961,0.333790,-0.399783,-0.505971,-0.600288,19.369003,22.314591,-17.120581
908.000000,0.002000,-0.440581,0.210963,-0.003807,-1.545950,1.658188,-2.040477,27.086273,-14.227846,-0.965319
909.000000,0.002000,0.162013,0.058948,-0.016735,5.277262,-0.703619,-4.318187,-25.781316,-8.453923,11.749453
910.000000,0.002000,-2.331270,0.526036,3.259187,0.197891,0.994724,0.627695,0.708070,-0.150182,-0.990710
911.000000,0.002000,-0.534758,-0.144069,0.077718,-2.290460,-0.856016,-1.730945,31.146019,5.257334,-10.303879
912.000000,0.002000,-0.423740,-0.545162,1.265347,0.969203,0.127729,-2.378335,2.132959,3.094107,-6.768854
913.000000,0.002000,-0.983160,-0.231456,0.404201,0.201003,2.172043,-2.973755,11.417660,3.092166,-5.136818
914.000000,0.002000,0.322200,-2.098509,-0.100143,0.429630,-2.550375,1.835850,-0.733417,3.933250,0.185068
915.000000,0.002000,0.189217,0.224283,-0.384469,-1.553232,1.203432,1.056830,-11.852888,-13.825443,22.356467
916.000000,0.002000,0.821283,-0.368996,-1.043620,-1.795400,-0.265134,1.742611,-4.890210,2.289410,6.233600
917.000000,0.002000,1.537928,-1.622052,-2.017078,1.938060,1.210842,-0.540651,-1.096792,1.110598,1.379207
918.000000,0.002000,0.189211,-0.147343,-0.179589,-1.042011,0.705851,-0.948932,-20.841635,11.442104,16.920705
919.000000,0.002000,0.138600,0.101505,-0.242186,4.746577,-1.756413,1.973245,-14.424577,-5.346419,22.043441
920.000000,0.002000,-0.073006,0.800435,0.092758,1.594448,-2.915787,-3.625363,0.870532,-19.858450,-1.233457
921.000000,0.002000,-0.235688,0.347985,-0.139582,0.569290,-0.357923,-1.444736,16.164882,-24.112404,13.131545
922.000000,0.002000,-0.516230,0.362602,0.493767,-1.149221,-2.562330,2.525494,12.932026,-10.080078,-12.589575
923.000000,0.002000,1.214240,-0.611873,-1.102456,1.984823,1.928484,1.472699,-3.848710,2.070873,3.649735
924.000000,0.002000,-1.040044,0.397041,0.050357,-0.072740,-3.233928,1.532261,11.778825,-4.867352,-0.553347
925.000000,0.002000,-0.077744,-0.240346,-0.028785,-3.032395,1.707616,-4.899697,8.021659,24.224504,-2.431196
926.000000,0.002000,-0.504434,-1.060259,1.612331,1.020006,1.442678,-0.502444,0.982557,2.387324,-3.626326
927.000000,0.002000,-0.125174,-0.102440,0.236562,0.627823,-4.763321,4.162537,9.138411,10.582329,-25.992661
928.000000,0.002000,-0.125037,-0.272221,-0.270220,0.748251,0.880383,0.945113,9.275257,18.329680,22.752804
929.000000,0.002000,0.379848,1.943170,-0.771327,1.272777,-0.294067,1.614179,-0.739760,-3.585397,1.456373
930.000000,0.002000,-0.120719,1.806853,0.571237,-1.368447,-0.697313,-1.964641,0.387002,-4.756891,-1.426095
931.000000,0.002000,0.195038,-0.018892,-0.184317,-2.524624,5.676568,-0.864779,-18.691017,0.745799,19.628461
932.000000,0.002000,0.067549,0.030422,0.170550,5.711420,-2.542132,-1.730430,-13.621283,-0.901801,-24.625890
933.000000,0.002000,0.459870,-0.153829,0.368669,3.692770,-1.072338,0.211551,-20.751180,6.130909,-15.924296
934.000000,0.002000,0.328187,0.048419,-0.116619,-3.869310,1.940037,5.043545,-31.404887,-1.660639,11.866703
935.000000,0.002000,0.141889,-0.155442,-0.226509,-0.192958,0.843282,1.823116,-8.975673,10.916898,17.432496
936.000000,0.002000,0.597874,-1.047865,-0.580786,-1.058973,3.119787,1.278937,-3.846916,6.659053,3.513751
937.000000,0.002000,-0.124035,-0.522054,-0.255731,-1.796088,-3.520233,-1.417108,6.617185,24.321881,12.373226
938.000000,0.002000,1.456843,0.553272,0.200787,-2.484083,0.914834,-0.373084,-6.132151,-2.331273,-0.734767
939.000000,0.002000,0.085242,0.395203,0.339986,-2.446114,1.097865,-0.377744,-1.584157,-19.839008,-28.535034
940.000000,0.002000,0.208254,0.194528,-0.374228,-0.735378,-0.225171,-2.142030,-13.060877,-9.376038,19.974710
941.000000,0.002000,-0.342657,-1.578485,-0.385205,0.397152,0.114833,-0.108731,1.271639,5.745721,1.420062
942.000000,0.002000,0.027909,0.256568,0.062591,-4.702436,-2.019585,-2.101435,-4.521392,-23.068452,-5.756056
943.000000,0.002000,-0.086808,-0.373379,-0.333964,-2.357154,-3.091882,-0.136465,6.170366,25.307323,21.091420
944.000000,0.002000,-0.443240,0.405474,-0.004695,-1.346105,-1.519518,-4.380867,19.713741,-17.936145,1.386456
945.000000,0.002000,0.519857,0.664650,0.750677,2.059249,-1.329920,-2.780224,-5.502521,-6.752197,-7.529326
946.000000,0.002000,0.042765,0.658912,-1.308423,0.157661,-1.664087,1.674835,-0.407537,-3.229044,6.557231
947.000000,0.002000,-0.024708,0.389380,-1.019170,2.922169,-0.806715,0.089205,0.040599,-4.016198,11.285022
948.000000,0.002000,-0.120502,0.025767,0.348464,-3.196426,-2.139453,-2.292319,9.576956,-0.282683,-33.952232
949.000000,0.002000,-0.283825,-0.413853,0.086642,-0.891438,1.430466,2.118229,16.286980,25.118021,-5.677835
950.000000,0.002000,0.177434,0.050370,-0.545724,-2.833977,0.297614,3.981696,-9.095096,-1.305519,26.487313
951.000000,0.002000,0.106959,0.067492,0.148563,5.336628,0.343053,-0.861613,-15.869561,-4.207061,-20.485648
952.000000,0.002000,-0.490717,-0.177339,0.317369,-1.413998,-2.573620,0.615600,21.838078,7.435825,-13.291673
953.000000,0.002000,-0.214224,0.255574,0.320954,2.340548,1.209725,-2.034679,13.638632,-18.143223,-22.574398
954.000000,0.002000,-0.323054,1.134774,1.168833,1.365596,0.284529,-2.830987,0.934257,-4.173723,-4.487810
955.000000,0.002000,-1.162953,0.191032,-0.994676,1.712233,0.596933,-2.399309,5.184147,-0.930994,4.472741
956.000000,0.002000,0.483759,0.492270,0.424493,-3.478208,2.061972,2.710962,-12.104327,-11.279240,-9.736254
957.000000,0.002000,0.581323,-0.151815,1.739645,-1.626583,-1.049849,-0.638582,-1.657905,0.494533,-4.724252
958.000000,0.002000,-0.206962,0.129522,0.140799,-3.124339,-4.378930,-0.350916,19.020648,-11.141124,-12.819195
959.000000,0.002000,0.258577,0.329318,-0.093959,3.495540,-0.021054,2.037959,-21.405492,-22.905253,5.690412
960.000000,0.002000,0.142121,0.182938,-0.153164,-4.054238,-1.048983,-0.280910,-15.213178,-18.529420,15.723674
961.000000,0.002000,-1.164232,-2.134341,-0.037341,-0.005583,1.221628,-0.585911,1.508452,2.790624,0.078312
962.000000,0.002000,-0.017435,-0.094960,-0.017473,4.406058,-4.992857,2.842615,0.170325,21.569342,3.512607
963.000000,0.002000,0.218707,-0.253865,-0.130566,-1.163042,-1.334294,4.127055,-12.429411,25.059574,7.857924
964.000000,0.002000,0.122055,-0.311957,-0.408416,1.271563,3.138622,-3.914671,-7.297680,15.926480,23.148191
965.000000,0.002000,0.393101,0.310817,0.760564,-2.002193,-2.850669,-2.772697,-7.900726,-5.242638,-13.422130
966.000000,0.002000,-0.461070,-0.380025,-0.011119,1.632761,-5.093303,-1.026707,19.311778,22.080848,0.049732
967.000000,0.002000,0.421691,-1.405469,-2.428039,0.889919,1.622607,-0.412392,-0.347930,1.155181,2.026103
968.000000,0.002000,0.149621,-0.158236,-0.236393,-0.962702,-3.697449,-2.237247,-16.612333,13.054688,26.734445
969.000000,0.002000,-0.633844,-1.114010,0.539601,1.544585,2.453103,0.234582,3.818813,6.357650,-2.769557
970.000000,0.002000,0.223212,0.156837,0.092003,-0.850426,-2.086775,-1.903158,-22.790651,-15.900276,-7.297941
971.000000,0.002000,0.392073,0.053471,0.210232,4.514353,-1.211584,-0.589440,-29.046106,-2.268786,-14.663281
972.000000,0.002000,-0.670379,0.029410,-0.109302,0.274896,-1.084898,4.746021,27.593161,0.611398,4.184121
973.000000,0.002000,-0.299116,-1.450561,0.588634,0.311934,1.535328,-1.423085,1.237013,6.026350,-2.503600
974.000000,0.002000,0.256532,-1.129261,0.408723,-3.583687,-0.794415,1.866580,-2.336744,9.078507,-3.391188
975.000000,0.002000,-0.239330,0.180044,0.186789,-0.334052,-1.241006,2.553955,18.798573,-12.973736,-15.713824
976.000000,0.002000,0.641407,0.448907,0.222199,-0.029636,-1.994712,-1.440515,-15.352165,-9.907942,-4.856982
977.000000,0.002000,-0.001035,0.113136,0.256401,0.867540,4.719622,-0.661291,-3.357597,-9.045816,-27.384637
978.000000,0.002000,-0.287890,-0.372708,0.190081,1.718790,2.077916,3.858450,17.419412,16.884504,-14.128523
979.000000,0.002000,-0.001528,0.030012,-0.140059,5.376962,4.805021,-0.020250,-0.318321,-8.047269,21.643625
980.000000,0.002000,-0.558372,-1.098640,-0.979421,0.662674,2.583020,-1.080538,2.325839,4.548476,4.183587
981.000000,0.002000,-0.049308,0.260167,-0.223314,0.780249,4.954651,-3.872529,6.174708,-19.538280,15.374770
982.000000,0.002000,0.279675,0.439748,0.627632,-3.668387,-2.094237,1.150855,-8.340821,-10.764206,-15.480179
983.000000,0.002000,0.065087,0.315381,-1.654665,2.003308,0.535861,1.873694,-0.506124,-1.017611,5.670503
984.000000,0.002000,-0.097120,0.470381,0.353946,0.608927,-0.598718,2.646226,4.973921,-17.903689,-18.516596
985.000000,0.002000,0.289368,-0.176725,0.508101,0.787846,0.762625,0.542829,-13.142722,7.203983,-21.588330
986.000000,0.002000,-0.118463,0.702650,-0.092749,0.391794,0.192826,3.055714,0.874957,-22.341335,2.587076
987.000000,0.002000,0.080294,-0.487298,0.293624,0.277263,-1.699502,-1.490607,-4.728259,24.035223,-13.639361
988.000000,0.002000,0.065600,-0.194460,-0.291190,4.202231,-1.429072,-1.513024,-4.193547,14.345385,24.524595
989.000000,0.002000,0.101836,0.013420,-0.469110,4.300613,-0.906860,-0.975283,-6.021430,-0.764380,27.106134
990.000000,0.002000,0.024075,-0.047211,0.116963,-1.447018,-2.446777,-1.037564,-2.738449,2.733243,-22.060260
991.000000,0.002000,0.260720,0.132979,0.033090,-1.878442,5.603193,0.475606,-27.670537,-7.196629,-5.402651
992.000000,0.002000,0.056777,0.758053,2.292641,0.524704,0.292170,-0.946827,-0.102538,-0.963754,-3.051252
993.000000,0.002000,-0.044755,-0.046025,0.099760,2.055560,3.455361,-2.257616,6.971778,5.942339,-14.000994
994.000000,0.002000,-0.415953,-0.421679,0.975052,1.437996,1.142842,-2.247471,3.860667,4.557575,-9.896941
995.000000,0.002000,-0.037563,0.100031,-0.179892,6.794617,1.977402,2.193190,-1.154023,-12.796830,25.190386
996.000000,0.002000,-0.055232,0.111576,-0.278209,0.943279,-6.447177,1.672175,6.459192,-7.970744,29.493116
997.000000,0.002000,0.671861,-0.934945,-1.743167,1.306621,1.908554,-0.261265,-1.374958,1.795937,3.366995
998.000000,0.002000,0.813944,-0.305961,-0.056670,-1.446349,-0.918925,1.158440,-15.911468,5.742101,1.153275
999.000000,0.002000,0.129661,2.137110,-1.656804,-0.325442,-0.860242,-0.214665,-0.214599,-2.015430,1.545712
1000.000000,0.002000,0.014305,0.289114,-0.377286,-0.314347,-1.780890,-2.900077,-0.538810,-14.922795,24.422966
1001.000000,0.002000,-0.637257,-0.034015,0.046315,0.068286,-4.793443,0.679353,26.816109,3.801348,-1.241188
1002.000000,0.002000,-0.060107,0.190152,-0.045144,-1.983720,4.332844,5.050998,1.161099,-20.505370,7.584236
1003.000000,0.002000,-0.053222,-0.363659,0.453837,-0.183305,-1.866117,-2.170465,0.574170,18.659233,-21.692896
1004.000000,0.002000,0.334854,-0.259986,0.130099,2.614181,0.030224,-1.284375,-25.428949,15.487539,-8.411284
1005.000000,0.002000,-0.565686,-1.945574,-1.630641,-0.440146,0.400577,0.652072,0.590288,2.083000,1.760058
1006.000000,0.002000,-0.331836,0.299784,0.053067,-0.273502,-0.897450,0.404355,22.488933,-18.229651,7.417681
1007.000000,0.002000,2.066291,1.025573,-2.323459,0.900078,1.163712,1.234334,-1.158971,-0.576073,1.282958
1008.000000,0.002000,0.071061,-0.463210,-0.583436,0.193369,2.816635,2.612001,-2.287409,12.641809,17.484403
1009.000000,0.002000,-0.197627,0.036806,-0.095960,-0.906714,6.914811,1.031984,23.513661,0.746126,14.084877
1010.000000,0.002000,1.259155,0.049163,0.611524,-2.375600,1.021827,-0.737038,-6.926443,-0.213768,-3.475472
1011.000000,0.002000,-0.237938,-0.055387,0.369434,1.546508,0.390940,4.641708,16.328631,4.372881,-27.398555
1012.000000,0.002000,-0.582674,1.550523,-0.273370,1.143774,-1.118463,-1.045694,2.127644,-5.650295,0.919274
1013.000000,0.002000,0.139011,0.298183,0.446757,2.807804,3.763253,-2.409030,-8.234876,-16.595446,-23.198631
1014.000000,0.002000,0.355542,-0.233428,-0.093247,-5.137190,1.243225,-4.206430,-22.499313,12.426143,2.207522
1015.000000,0.002000,-0.184229,0.243101,0.101465,2.292201,1.932638,1.306658,12.794301,-22.583201,-11.137900
1016.000000,0.002000,0.757819,0.092605,1.985166,-0.808168,1.335615,-1.449806,-1.513371,-0.006590,-3.667235
1017.000000,0.002000,0.011079,0.222675,-0.191420,-1.327516,-4.311879,-3.192901,-4.810016,-20.664563,21.594621
1018.000000,0.002000,-0.298393,0.285950,-0.146236,-4.124113,-1.695258,-3.454887,18.711685,-22.387988,13.003555
1019.000000,0.002000,-0.023550,0.001027,0.227693,-2.173367,-1.005726,-2.269994,1.378762,2.085936,-29.576324
1020.000000,0.002000,-0.322796,0.442169,0.203047,-0.833700,1.494909,3.526523,16.171121,-22.415756,-10.253260
1021.000000,0.002000,0.070237,0.545886,0.258372,-0.329960,3.848982,-0.539703,-6.339064,-25.756008,-11.811410
1022.000000,0.002000,-1.886500,-1.074578,0.002772,0.455271,1.518087,-1.216742,3.384257,1.969852,-0.020336
1023.000000,0.002000,-0.221453,0.076365,-0.550427,-2.141751,0.885387,-1.062280,8.603624,-2.925373,24.876414
1024.000000,0.002000,-0.442612,-0.492610,0.358480,3.229794,2.943552,-1.267324,13.013564,14.870106,-10.706339
1025.000000,0.002000,-0.796333,-0.595917,-1.076358,2.566546,0.755244,1.224140,3.853956,2.819370,5.722358
1026.000000,0.002000,0.104168,0.374871,-0.692812,1.797374,1.684660,-0.248175,-2.600346,-9.119341,17.145376
1027.000000,0.002000,-0.087649,0.008764,0.203340,3.214422,-2.362300,-1.495315,10.910963,0.254653,-20.549524
1028.000000,0.002000,0.134624,3.807736,-1.118868,0.537935,0.011721,0.625315,-0.055910,-1.205674,0.356080
1029.000000,0.002000,0.188559,-2.086975,-0.351232,-0.155325,1.476153,-0.201853,-0.457109,3.919665,0.680913
1030.000000,0.002000,0.972380,-0.352098,1.151585,-2.452067,0.531322,-1.204267,-4.490604,1.731344,-4.944833
1031.000000,0.002000,0.101905,-0.159279,0.088666,-0.750273,-0.219957,-2.042343,-16.889082,25.412564,-7.937593
1032.000000,0.002000,-1.295015,-0.425743,-0.955260,0.583500,0.787221,1.819456,4.719421,1.535004,3.589421
1033.000000,0.002000,-0.418538,-0.468980,0.135087,-2.189033,4.050996,-1.763615,18.479676,18.221231,-5.027005
1034.000000,0.002000,0.681508,-0.517278,-0.014591,-1.332027,-1.649815,2.900009,-14.051647,9.574229,0.351809
1035.000000,0.002000,0.240831,-0.584433,-0.024599,-0.442824,5.229540,-0.613142,-9.932105,23.871044,0.432326
1036.000000,0.002000,0.849471,0.164712,0.026001,-4.197015,1.304925,0.628055,-17.036115,-3.614963,-1.414926
1037.000000,0.002000,0.163334,0.260718,0.022659,-3.181702,0.614302,0.290245,-23.239085,-22.408709,-7.031095
1038.000000,0.002000,-0.569849,0.362167,-0.724572,-0.621215,-1.760414,2.880206,7.530832,-5.023162,10.711361
1039.000000,0.002000,-0.190332,0.386900,0.136202,0.360240,0.710803,-2.308783,10.464295,-27.338235,-5.886853
1040.000000,0.002000,-0.402359,3.625309,3.623218,-0.283569,-0.474629,1.214438,0.056879,-0.533099,-0.534163
1041.000000,0.002000,-0.029061,-0.442672,-0.074870,-0.065590,-2.296225,5.338261,-0.140331,31.217196,4.133426
1042.000000,0.002000,1.671752,-0.947541,-1.301229,1.141848,2.037599,0.437883,-2.460045,1.453786,1.882432
1043.000000,0.002000,0.089307,0.066345,-0.184606,-2.719748,0.182911,1.279949,-13.883095,-7.427595,25.986073
1044.000000,0.002000,0.243058,0.215168,0.125735,3.116140,3.375695,2.653648,-26.929398,-18.628912,-9.136663
1045.000000,0.002000,-0.889368,0.025479,0.020525,3.885919,1.077586,0.655328,17.664147,-0.415831,-0.315831
1046.000000,0.002000,0.658413,0.034797,0.153132,-1.420225,1.623471,3.682287,-21.947716,-1.319606,-6.171928
1047.000000,0.002000,-0.223322,0.074626,0.028389,-6.209130,0.627511,2.731091,23.363852,-6.335500,-2.776919
1048.000000,0.002000,-0.350546,-0.303626,0.466895,-3.038823,-1.774665,-1.250714,11.513384,13.167395,-19.051404
1049.000000,0.002000,0.447596,0.081861,0.049551,2.177288,-2.265792,-0.346320,-32.661047,-5.104721,-5.226631
1050.000000,0.002000,0.066072,-0.064948,0.423717,-1.546244,-0.226780,4.636543,-5.160447,4.581029,-24.794508
1051.000000,0.002000,-0.547180,1.369748,-0.443979,1.702320,0.175168,-2.002789,2.402813,-6.164973,2.074882
1052.000000,0.002000,-0.106203,-0.078481,-0.296193,1.101497,0.905764,-0.625817,5.767414,2.781261,27.036158
1053.000000,0.002000,0.127837,0.187493,-0.392230,-0.388510,2.136198,0.944498,-11.816661,-11.922481,25.000309
1054.000000,0.002000,0.060427,1.369579,-0.628537,-0.093854,-2.115243,-2.014669,-0.520600,-6.469487,3.118385
1055.000000,0.002000,0.738055,-0.350716,-0.010849,-1.228588,-0.831955,-0.360884,-16.661644,7.976933,0.173403
1056.000000,0.002000,-0.051530,-0.509645,0.010378,1.001384,0.232277,-3.453233,2.517705,29.535039,-0.197301
1057.000000,0.002000,0.340319,-0.229347,0.194983,5.566242,-1.588622,0.514636,-23.872781,13.221576,-14.960189
1058.000000,0.002000,0.305284,-0.005717,0.242266,2.272523,2.061181,-4.223745,-27.062108,-1.611015,-15.430345
1059.000000,0.002000,0.390682,0.190028,0.476685,-1.713102,1.371937,0.861289,-17.516502,-6.433927,-18.716583
1060.000000,0.002000,0.126925,0.344760,0.219977,3.926456,0.988696,-0.794020,-12.462544,-22.980288,-11.940905
1061.000000,0.002000,-0.260320,-0.448637,-0.092652,-1.877861,0.538069,2.249061,15.935499,26.639343,9.997689
1062.000000,0.002000,0.007120,1.327759,-0.175885,1.489260,-3.568575,0.416962,-0.255764,-8.692019,1.076747
1063.000000,0.002000,0.508644,-0.217054,-0.040524,-0.313560,0.873398,-0.859677,-25.528610,8.418835,2.959852
1064.000000,0.002000,3.297567,0.974970,0.225132,0.443461,-0.124952,0.456256,-1.582782,-0.453706,-0.104085
1065.000000,0.002000,-0.821023,-0.022956,0.564012,-0.350964,-4.031724,1.507257,12.179974,0.420085,-8.733004
1066.000000,0.002000,-0.180828,-0.208535,0.057779,3.102198,-1.849350,-0.649439,16.218059,19.169940,-13.719103
1067.000000,0.002000,-0.145169,0.532793,0.208606,1.097548,-2.302432,4.492549,7.304302,-26.839583,-9.921891
1068.000000,0.002000,0.365124,-1.366163,-1.687505,-0.205287,0.730201,2.007680,-0.612831,2.279150,2.881944
1069.000000,0.002000,-0.799687,0.258942,-0.189036,3.328069,-1.261173,1.088665,16.834399,-5.294248,4.782761
1070.000000,0.002000,-0.374417,-0.237159,0.465240,0.381345,-1.147970,0.876421,13.622768,9.761859,-19.707846
1071.000000,0.002000,0.274074,0.335594,-0.524085,1.201866,-0.654698,-1.646335,-10.119706,-12.022602,18.799712
1072.000000,0.002000,-0.508739,-0.202607,0.587666,3.609614,2.442261,-0.920114,11.682173,6.020383,-15.389948
1073.000000,0.002000,0.394893,-0.069972,0.811868,-1.167198,4.048942,-0.136305,-7.413819,1.247720,-14.073522
1074.000000,0.002000,-0.298435,-0.364374,0.088474,-2.938217,0.512282,3.639992,18.536335,23.771046,-8.028288
1075.000000,0.002000,0.375389,1.370242,0.089762,-1.319762,1.308844,2.222945,-2.336730,-7.564720,-0.346959
1076.000000,0.002000,-0.251199,-0.147403,-0.262616,0.787566,1.856417,1.958122,17.764518,13.207437,22.774513
1077.000000,0.002000,1.477477,0.399308,2.961568,1.225526,-1.067286,-0.640912,-0.807709,-0.203640,-1.557508
1078.000000,0.002000,0.151102,0.181520,-0.472353,1.526108,0.283522,-4.819810,-8.895608,-9.306534,26.285164
1079.000000,0.002000,-0.263199,-0.363943,0.040722,-0.311464,-1.036006,1.472326,17.120754,25.960122,-3.199948
1080.000000,0.002000,0.226778,0.406900,0.437865,-0.598991,0.158634,0.441896,-12.291256,-17.876119,-16.870536
1081.000000,0.002000,-0.463382,0.302494,0.472748,-1.399642,2.530192,-4.113525,13.909206,-10.908976,-15.372679
1082.000000,0.002000,0.417362,0.219288,-0.206286,0.799298,0.246731,0.815632,-23.527400,-11.143579,10.459605
1083.000000,0.002000,-0.481356,-0.116304,0.514917,-3.889360,-0.921733,1.278973,15.095415,3.850911,-16.865925
1084.000000,0.002000,-0.520774,-0.278645,-0.064433,-3.674306,2.645249,-1.534996,25.139500,12.932043,4.279501
1085.000000,0.002000,-0.271056,1.043829,-0.367627,0.140129,-3.512633,-1.316655,2.527987,-10.542951,4.041175
1086.000000,0.002000,-0.381604,0.078386,-0.053390,-3.510605,-1.187402,-1.416086,27.547142,-5.158127,4.542413
1087.000000,0.002000,0.430937,-0.225093,-0.803217,-2.306711,-1.545835,3.339127,-6.987045,3.445468,12.522823
1088.000000,0.002000,0.947648,1.572081,0.193410,-0.375477,-0.765435,2.360542,-2.896313,-3.525101,-0.472100
1089.000000,0.002000,0.039441,-0.011660,0.168942,-0.833204,6.463099,-2.896863,-11.659098,5.299061,-25.323709
1090.000000,0.002000,0.491380,-0.024256,0.591863,3.503573,2.635504,-2.219603,-13.692785,1.221154,-15.799422
1091.000000,0.002000,0.017966,-0.522266,-0.380698,-1.159312,0.035859,-1.062089,-0.222395,21.858137,17.481202
1092.000000,0.002000,0.214347,0.313245,0.357346,0.760140,0.513760,3.166250,-15.463945,-19.033737,-19.048063
1093.000000,0.002000,-0.172268,1.678303,1.564592,1.209338,-0.085250,-1.504742,0.203053,-2.577266,-2.430725
1094.000000,0.002000,0.714492,1.646158,0.688313,-1.570947,-0.114066,0.506068,-1.957733,-3.964707,-1.744042
1095.000000,0.002000,-0.028762,-0.154138,0.042813,2.762867,-6.043207,2.862605,3.374330,21.494609,-5.183098
1096.000000,0.002000,-0.585511,0.197714,0.318188,-1.744682,-1.878206,2.804595,19.613681,-3.497589,-9.863697
1097.000000,0.002000,0.348912,-0.044301,0.293242,2.803470,-3.231372,3.827384,-26.999650,1.937127,-19.396102
1098.000000,0.002000,-0.310274,-0.009240,-0.373626,-4.060485,-2.159627,3.494660,14.629056,7.489000,30.331212
1099.000000,0.002000,0.226710,-1.515544,0.016134,-0.494055,1.741957,-0.178507,-1.202862,6.713652,-0.079433
1100.000000,0.002000,0.933373,1.625539,0.199149,-2.362196,0.579514,1.571800,-2.400401,-4.625543,-0.626432
1101.000000,0.002000,-2.196123,-0.908772,-0.929942,0.561548,0.157859,1.480297,2.477545,1.022585,1.096150
1102.000000,0.002000,-0.212228,-0.111222,0.333763,-2.506593,-4.518317,-2.417332,14.868447,8.854107,-25.112091
1103.000000,0.002000,0.170606,0.092056,-0.238126,2.927779,-1.972089,-0.130734,-18.760180,-5.751053,21.982418
1104.000000,0.002000,0.057817,-0.186961,-0.022688,1.163292,-0.799593,2.327207,-11.516818,16.735397,7.242989
1105.000000,0.002000,0.569955,-0.314891,0.098585,0.288416,-2.150357,0.247956,-21.345997,11.078985,-3.937865
1106.000000,0.002000,-2.372645,-1.429440,-2.250991,0.081334,0.738918,-0.003529,1.032908,0.613631,0.985374
1107.000000,0.002000,0.075615,-0.014963,0.076572,1.534195,0.101128,1.290887,-10.934141,-1.609559,-6.101322
1108.000000,0.002000,-0.346433,0.117593,0.075903,5.011064,-3.381945,-2.678102,28.284354,-9.933478,-4.276720
1109.000000,0.002000,0.335948,-0.466670,-0.116459,-0.687850,1.447275,-3.244245,-17.821937,21.635127,6.343644
1110.000000,0.002000,-0.651302,0.483156,0.930972,2.989120,2.419345,-1.548288,5.460530,-3.950725,-7.970456
1111.000000,0.002000,0.011900,0.061778,-0.168760,-0.504000,2.717547,1.238451,-3.011492,-7.158990,21.016722
1112.000000,0.002000,-0.371253,0.534835,0.413333,0.120252,-4.354775,-2.950335,10.540970,-15.444199,-11.215699
1113.000000,0.002000,-0.056472,-0.108051,-0.308040,-4.597205,0.593053,-1.921936,2.695188,8.036133,27.853669
1114.000000,0.002000,0.889303,-0.380314,-1.310563,-1.263515,-0.171462,0.899806,-3.531952,1.936817,4.738695
1115.000000,0.002000,-0.275222,0.138770,-0.620747,-2.094537,-0.314722,-1.328133,8.336729,-4.569934,21.349391
1116.000000,0.002000,1.148282,-1.219346,0.337498,-1.733749,0.063628,-0.606671,-3.932311,3.988229,-1.105961
1117.000000,0.002000,-0.114026,-0.151709,-0.271263,4.048520,-4.772407,0.340378,7.374768,13.393911,24.234700
1118.000000,0.002000,0.044592,-0.508387,-0.341552,-4.443052,1.053919,0.340766,-3.689412,25.572607,20.121332
1119.000000,0.002000,-0.520745,-0.337971,-0.189693,2.734337,-1.364732,-1.941135,21.317464,16.584088,6.379459
1120.000000,0.002000,0.353564,0.413968,-0.007545,4.540498,-0.679973,-0.595462,-20.105481,-22.722176,0.691415
1121.000000,0.002000,0.228161,-0.206469,-0.476669,-0.526791,-0.762588,0.582476,-11.673849,10.118819,24.059613
1122.000000,0.002000,0.046986,0.044597,-0.039301,0.088150,-1.600945,-2.444770,-8.861291,-6.240257,15.104870
