# 
#                 columns are tag, mass, x, y, z, vx, vy, vz, ax, ay, az, EK, EU, E
#                 Time=0.000000
# 
1.000000,0.002000,1.764052,0.400157,0.978738,0.371232,0.304784,0.504125,-3.218116,-0.662569,-1.883920,30.087305,113.605596,143.692901
2.000000,0.002000,2.240893,1.867558,-0.977278,0.135300,0.653759,-0.100181,-1.491493,-1.246586,0.674600,0.000000,0.000000,0.000000
3.000000,0.002000,0.950088,-0.151357,-0.103219,-0.863291,-0.773870,-0.890328,-4.112174,-0.723545,2.889362,0.000000,0.000000,0.000000
4.000000,0.002000,0.410599,0.144044,1.454274,0.030399,-1.579630,-1.880763,-1.504181,-1.136946,-4.444193,0.000000,0.000000,0.000000
5.000000,0.002000,0.761038,0.121675,0.443863,0.471592,0.700764,-0.420083,-3.181791,-0.330794,-2.193861,0.000000,0.000000,0.000000
6.000000,0.002000,0.333674,1.494079,-0.205158,-0.622046,-0.053797,0.681501,-0.522387,-4.616743,0.463617,0.000000,0.000000,0.000000
7.000000,0.002000,0.313068,-0.854096,-2.552990,-1.299665,0.764191,0.113091,-0.372524,0.699677,2.457164,0.002000,1.764052,0.000000
8.000000,0.002000,0.653619,0.864436,-0.742165,0.347642,0.894152,0.075790,-1.963154,-2.162346,2.562496,0.002000,2.240893,0.000000
9.000000,0.002000,2.269755,-1.454366,0.045759,1.665637,0.465137,0.710757,-2.139794,1.413836,-0.079745,0.002000,0.950088,0.000000
10.000000,0.002000,-0.187184,1.532779,1.469359,-2.135204,0.927184,1.399528,0.310262,-2.576208,-2.512305,0.002000,0.410599,0.000000
11.000000,0.002000,0.154947,0.378163,-0.887786,-1.473374,0.333372,1.292028,-0.995312,-1.610669,3.257922,0.002000,0.761038,0.000000
12.000000,0.002000,-1.980796,-0.347912,0.156349,-0.093562,-1.477596,-2.218590,3.549412,0.632032,-0.375465,0.002000,0.333674,0.000000
13.000000,0.002000,1.230291,1.202380,-0.387327,-1.015577,-0.017031,0.443037,-2.787465,-2.736074,1.177562,0.002000,0.313068,0.000000
14.000000,0.002000,-0.302303,-1.048553,-1.420018,-0.066979,2.095537,-1.289124,0.791543,2.568340,3.420267,0.002000,0.653619,0.000000
15.000000,0.002000,-1.706270,1.950775,-0.509652,-0.331333,0.150810,-1.021467,1.746678,-1.904626,0.534647,0.002000,2.269755,0.000000
16.000000,0.002000,-0.438074,-1.252795,0.777490,0.605059,-0.322683,-0.639383,1.080402,3.483293,-1.903736,0.002000,-0.187184,0.000000
17.000000,0.002000,-1.613898,-0.212740,-0.895467,-0.735483,0.594866,0.051482,3.454380,0.364337,2.188705,0.002000,0.154947,0.000000
18.000000,0.002000,0.386902,-0.510805,-1.180632,-0.348747,0.299856,-2.391731,-1.411487,1.624117,3.727058,0.002000,-1.980796,0.000000
19.000000,0.002000,-0.028182,0.428332,0.066517,1.938980,1.366270,-0.275757,0.654957,-1.952183,-1.489470,0.002000,1.230291,0.000000
20.000000,0.002000,0.302472,-0.634322,-0.362741,-0.377647,0.028956,0.427113,-1.339219,2.710299,1.267980,0.002000,-0.302303,0.000000
21.000000,0.002000,-0.672460,-0.359553,-0.813146,-1.470314,-0.824195,-0.934075,2.350768,-0.057008,0.782739,0.002000,-1.706270,0.000000
22.000000,0.002000,-1.726283,0.177426,-0.401781,-0.096526,-0.312995,-2.109996,3.865458,-0.427860,0.901079,0.002000,-0.438074,0.000000
23.000000,0.002000,-1.630198,0.462782,-0.907298,-0.496159,-0.623293,-0.465035,3.204099,-1.116474,1.674253,0.002000,-1.613898,0.000000
24.000000,0.002000,0.051945,0.729091,0.128983,0.970004,-0.174473,1.518035,-0.406549,-2.098133,-0.445104,0.002000,0.386902,0.000000
25.000000,0.002000,1.139401,-1.234826,0.402342,0.635785,-0.295708,-0.733479,-2.505861,2.923355,-0.920832,0.002000,-0.028182,0.000000
26.000000,0.002000,-0.684810,-0.870797,-0.578850,0.354625,0.143840,0.011488,2.473211,2.962038,1.956583,0.002000,0.302472,0.000000
27.000000,0.002000,-0.311553,0.056165,-1.165150,2.313824,0.616604,0.509424,1.422771,-0.404899,4.115305,0.002000,-0.672460,0.000000
28.000000,0.002000,0.900826,0.465662,-1.536244,0.202675,-0.844094,-0.557598,-1.945596,-0.865932,3.315328,0.002000,-1.726283,0.000000
29.000000,0.002000,1.488252,1.895889,1.178780,0.386718,0.923609,0.240630,-1.321579,-1.801513,-1.095211,0.002000,-1.630198,0.000000
30.000000,0.002000,-0.179925,-1.070753,1.054452,0.991216,0.589610,0.324705,1.545961,1.593458,-3.971621,0.002000,0.051945,0.000000
31.000000,0.002000,-0.403177,1.222445,0.208275,-0.063135,-0.847229,0.470304,1.345095,-4.705342,-1.701692,0.002000,1.139401,0.000000
32.000000,0.002000,0.976639,0.356366,0.706573,0.569503,0.139707,-0.248726,-3.419270,-1.380563,-2.343630,0.002000,-0.684810,0.000000
33.000000,0.002000,0.010500,1.785870,0.126912,1.125897,-1.002726,-1.033844,0.157956,-4.126958,-0.265693,0.002000,-0.311553,0.000000
34.000000,0.002000,0.401989,1.883151,-1.347759,1.107222,-0.789264,1.695165,-0.630595,-2.457698,1.709757,0.002000,0.900826,0.000000
35.000000,0.002000,-1.270485,0.969397,-1.173123,0.143816,0.072378,1.462379,2.343174,-1.654913,2.391497,0.002000,1.488252,0.000000
36.000000,0.002000,1.943621,-0.413619,-0.747455,0.693774,0.069551,2.172890,-4.847895,-5.407325,2.697899,0.002000,-0.179925,0.000000
37.000000,0.002000,1.922942,1.480515,1.867559,-0.397166,1.081994,0.304380,-1.275761,-0.985720,-1.283675,0.002000,-0.403177,0.000000
38.000000,0.002000,0.906045,-0.861226,1.910065,1.498671,0.693502,0.514437,nan,1.351161,-2.792610,0.002000,0.976639,0.000000
39.000000,0.002000,-0.268003,0.802456,0.947252,-0.708904,2.025278,2.035237,0.950175,-2.830676,-3.587251,0.002000,0.010500,0.000000
40.000000,0.002000,-0.155010,0.614079,0.922207,-0.514057,-0.438577,0.105213,0.378004,-1.872326,-4.078655,0.002000,0.401989,0.000000
41.000000,0.002000,0.376426,-1.099401,0.298238,0.707076,1.129884,0.952628,-1.281120,4.026447,-1.394598,0.002000,-1.270485,0.000000
42.000000,0.002000,1.326386,-0.694568,-0.149635,-0.340337,0.367959,-0.559070,-3.615336,2.066477,-0.232159,0.002000,1.943621,0.000000
43.000000,0.002000,-0.435154,1.849264,0.672295,0.550662,-1.255408,0.921256,0.756860,-3.397601,-1.351393,0.002000,1.922942,0.000000
44.000000,0.002000,0.407462,-0.769916,0.539249,0.378935,0.416218,0.888414,-1.539626,2.515548,-2.760099,0.002000,0.906045,0.000000
45.000000,0.002000,-0.674333,0.031831,-0.635846,0.895434,1.376529,0.166954,2.939223,-0.664560,3.155418,0.002000,-0.268003,0.000000
46.000000,0.002000,0.676433,0.576591,-0.208299,2.194797,-1.076597,-0.441511,-2.891752,-2.576752,0.084111,0.002000,-0.155010,0.000000
47.000000,0.002000,0.396007,-1.093062,-1.491258,-0.805644,-0.539552,1.439106,-1.068176,2.436239,3.330927,0.002000,0.376426,0.000000
48.000000,0.002000,0.439392,0.166673,0.635031,-1.055051,-0.343383,-0.733918,-1.843388,-0.162302,-2.472319,0.002000,1.326386,0.000000
49.000000,0.002000,2.383145,0.944479,-0.912822,-0.539192,-0.292026,2.495695,-2.204197,-0.876053,0.881788,0.002000,-0.435154,0.000000
50.000000,0.002000,1.117016,-1.315907,-0.461585,1.754162,0.399911,-0.565739,-2.643805,3.091091,0.943046,0.002000,0.407462,0.000000
51.000000,0.002000,-0.068242,1.713343,-0.744755,-1.451394,0.067375,1.331170,0.660882,-3.990613,1.665611,0.002000,-0.674333,0.000000
52.000000,0.002000,-0.826439,-0.098453,-0.663478,-0.903251,-1.189993,0.907809,3.283825,0.307530,3.081485,0.002000,0.676433,0.000000
53.000000,0.002000,1.126636,-1.079932,-1.147469,-0.579997,-1.037743,-0.636806,-2.412074,2.280207,2.249701,0.002000,0.396007,0.000000
54.000000,0.002000,-0.437820,-0.498032,1.929532,0.352895,0.421934,-0.182667,0.724151,0.843072,-3.400549,0.002000,0.439392,0.000000
55.000000,0.002000,0.949421,0.087551,-1.225436,-0.594368,2.251719,0.712438,-2.728806,-0.252247,3.383413,0.002000,2.383145,0.000000
56.000000,0.002000,0.844363,-1.000215,-1.544771,-0.550487,-0.867016,-0.253259,-1.583421,1.964577,3.125482,0.002000,1.117016,0.000000
57.000000,0.002000,1.188030,0.316943,0.920859,-0.961106,0.510934,-0.978807,-4.264959,-0.649234,-3.211948,0.002000,-0.068242,0.000000
58.000000,0.002000,0.318728,0.856831,-0.651026,0.771044,0.052221,-0.164243,-1.060830,-2.834410,2.697441,0.002000,-0.826439,0.000000
59.000000,0.002000,-1.034243,0.681595,-0.803410,-0.239817,1.071878,-0.276975,2.574841,-2.014974,2.303694,0.002000,1.126636,0.000000
60.000000,0.002000,-0.689550,-0.455533,0.017479,0.834158,-0.912841,0.602292,3.752425,2.023407,0.375815,0.002000,-0.437820,0.000000
61.000000,0.002000,-0.353994,-1.374951,-0.643618,-1.187230,0.588281,-0.783798,1.332001,4.014284,1.548062,0.002000,0.949421,0.000000
62.000000,0.002000,-2.223403,0.625231,-1.602058,0.002977,0.914937,-0.002352,1.872075,-0.469795,1.373464,0.002000,0.844363,0.000000
63.000000,0.002000,-1.104383,0.052165,-0.739563,-0.342342,-0.234275,-0.258871,3.558463,-0.205838,2.673478,0.002000,1.188030,0.000000
64.000000,0.002000,1.543015,-1.292857,0.267051,0.586124,0.290159,-1.991951,-2.803771,2.282118,-0.433106,0.002000,0.318728,0.000000
65.000000,0.002000,-0.039283,-1.168093,0.523277,-0.507732,-1.055748,-1.390352,-0.024429,3.929415,-1.647803,0.002000,-1.034243,0.000000
66.000000,0.002000,-0.171546,0.771791,0.823504,-0.861714,1.819499,1.490983,0.617877,-3.649387,-2.109170,0.002000,-0.689550,0.000000
67.000000,0.002000,2.163236,1.336528,-0.369182,1.157359,-3.581046,-0.944321,-2.412615,-1.427549,0.478923,0.002000,-0.353994,0.000000
68.000000,0.002000,-0.239379,1.099660,0.655264,-0.656345,-1.995814,-0.427504,1.091191,-3.611856,-2.269505,0.002000,-2.223403,0.000000
69.000000,0.002000,0.640132,-1.616956,-0.024326,-1.997431,1.051509,1.403656,-2.199837,4.597578,0.624698,0.002000,-1.104383,0.000000
70.000000,0.002000,-0.738031,0.279925,-0.098150,-0.823941,-0.217992,0.884321,3.142224,-1.739440,0.713893,0.002000,1.543015,0.000000
71.000000,0.002000,0.910179,0.317218,0.786328,0.436718,-0.915212,0.509275,-3.317668,-1.587711,-2.594909,0.002000,-0.039283,0.000000
72.000000,0.002000,-0.466419,-0.944446,-0.410050,-0.432586,-0.289898,0.160892,2.297909,3.698317,2.273309,0.002000,-0.171546,0.000000
73.000000,0.002000,-0.017020,0.379152,2.259309,0.043397,0.722573,-2.370692,0.075064,-0.541953,-3.094425,0.002000,2.163236,0.000000
74.000000,0.002000,-0.042257,-0.955945,-0.345982,-0.115257,-0.244342,-1.706404,0.122385,3.858909,1.242448,0.002000,-0.239379,0.000000
75.000000,0.002000,-0.463596,0.481481,-1.540797,-2.250295,0.962362,-0.920293,1.242686,-1.263164,3.696185,0.002000,0.640132,0.000000
76.000000,0.002000,0.063262,0.156507,0.232181,0.555428,1.493669,-0.853838,-0.610845,-0.724199,-2.555729,0.002000,-0.738031,0.000000
77.000000,0.002000,-0.597316,-0.237922,-1.424061,0.411825,0.419962,1.083478,1.978793,0.382267,3.928799,0.002000,0.910179,0.000000
78.000000,0.002000,-0.493320,-0.542861,0.416050,0.769297,0.906145,-1.794468,2.380156,2.699541,-1.778796,0.002000,-0.466419,0.000000
79.000000,0.002000,-1.156182,0.781198,1.494485,-1.693452,1.080093,2.914835,2.242859,-1.228843,-2.939355,0.002000,-0.017020,0.000000
80.000000,0.002000,-2.069985,0.426259,0.676908,-0.627312,-1.070494,-1.096416,3.307891,-0.684101,-0.869830,0.002000,-0.042257,0.000000
81.000000,0.002000,-0.637437,-0.397272,-0.132881,1.269294,-0.067021,0.468387,3.191287,1.522932,0.506945,0.002000,-0.463596,0.000000
82.000000,0.002000,-0.297791,-0.309013,-1.676004,-0.227823,-1.696969,-0.129462,0.828662,0.386013,4.102672,0.002000,0.063262,0.000000
83.000000,0.002000,1.152332,1.079619,-0.813364,1.391054,-0.883251,-0.537065,nan,-2.261326,1.775407,0.002000,-0.597316,0.000000
84.000000,0.002000,-1.466424,0.521065,-0.575788,-2.781958,1.005220,0.029160,3.534503,-1.525907,1.406469,0.002000,-0.493320,0.000000
85.000000,0.002000,0.141953,-0.319328,0.691539,0.106904,0.154134,0.431309,-0.636274,1.932429,-3.253145,0.002000,-1.156182,0.000000
86.000000,0.002000,0.694749,-0.725597,-1.383364,-0.053210,-0.222181,-1.292729,-1.856172,1.726168,3.464912,0.002000,-2.069985,0.000000
87.000000,0.002000,-1.582938,0.610379,-1.188859,2.046706,0.671785,-1.464336,2.747788,-0.989874,1.956554,0.002000,-0.637437,0.000000
88.000000,0.002000,-0.506816,-0.596314,-0.052567,-0.516183,0.870610,-0.740035,2.682202,2.497545,0.590758,0.002000,-0.297791,0.000000
89.000000,0.002000,-1.936280,0.188779,0.523891,1.752155,0.739282,1.107525,3.538559,-0.208963,-0.957215,0.002000,1.152332,0.000000
90.000000,0.002000,0.088422,-0.310886,0.097400,-0.949599,-0.297150,-1.779510,-0.185871,1.299650,-1.037738,0.002000,-1.466424,0.000000
91.000000,0.002000,0.399046,-2.772593,1.955912,-0.366415,0.377425,-0.363765,-0.211198,1.354171,-0.965952,0.002000,0.141953,0.000000
92.000000,0.002000,0.390093,-0.652409,-0.390953,1.038229,0.927026,0.990993,-1.617598,2.848313,1.161099,0.002000,0.694749,0.000000
93.000000,0.002000,0.493742,-0.116104,-2.030684,0.461774,-1.785436,1.107272,-1.009143,0.161165,3.220133,0.002000,-1.582938,0.000000
94.000000,0.002000,2.064493,-0.110541,1.020173,-0.455312,-0.189647,0.734572,-2.951494,-0.062229,-1.832241,0.002000,-0.506816,0.000000
95.000000,0.002000,-0.692050,1.536377,0.286344,-0.158472,0.125674,-0.439645,1.960585,-3.677597,-0.613742,0.002000,-1.936280,0.000000
96.000000,0.002000,0.608844,-1.045253,1.211145,1.789928,0.429098,-1.142988,-1.371438,2.558752,-3.141647,0.002000,0.088422,0.000000
97.000000,0.002000,0.689818,1.301846,-0.628088,0.135660,0.270488,-2.902849,-1.954472,-4.119082,1.853653,0.002000,0.399046,0.000000
98.000000,0.002000,-0.481027,2.303917,-1.060016,0.263585,-0.230294,1.441173,0.561489,-2.454791,1.250405,0.002000,0.390093,0.000000
99.000000,0.002000,-0.135950,1.136891,0.097725,0.789971,0.709768,-0.167091,0.466537,-4.308765,-0.299181,0.002000,0.493742,0.000000
100.000000,0.002000,0.582954,-0.399449,0.370056,-1.163367,0.831440,-0.522318,-2.138360,1.867106,-1.277696,0.002000,2.064493,0.000000
101.000000,0.002000,-1.306527,1.658131,-0.118164,-0.602507,-1.042637,-1.097104,nan,-2.792557,0.397758,0.002000,-0.692050,0.000000
102.000000,0.002000,-0.680178,0.666383,-0.460720,0.075115,-0.006096,0.535803,2.719324,-2.189552,2.323633,0.002000,0.608844,0.000000
103.000000,0.002000,-1.334258,-1.346718,0.693773,-0.349626,0.194689,-1.060131,1.999992,2.667294,-1.550700,0.002000,0.689818,0.000000
104.000000,0.002000,-0.159573,-0.133702,1.077744,-0.305557,0.791579,-0.649722,0.572225,0.783402,-4.395305,0.002000,-0.481027,0.000000
105.000000,0.002000,-1.126826,-0.730678,-0.384880,0.156143,0.068014,0.188539,3.748263,2.495798,1.343731,0.002000,-0.135950,0.000000
106.000000,0.002000,0.094352,-0.042171,-0.286887,-0.034119,-0.091393,3.281322,-0.964037,-0.427227,1.756072,0.002000,0.582954,0.000000
107.000000,0.002000,-0.061626,-0.107305,-0.719604,0.746910,-0.770951,-0.665257,0.186523,0.452302,2.952534,0.002000,-1.306527,0.000000
108.000000,0.002000,-0.812993,0.274516,-0.890915,0.661665,0.839893,0.167732,2.660157,-1.213536,3.276165,0.002000,-0.680178,0.000000
109.000000,0.002000,-1.157355,-0.312292,-0.157667,0.226148,0.564298,-0.949028,3.034514,1.398685,0.682566,0.002000,-1.334258,0.000000
110.000000,0.002000,2.256723,-0.704700,0.943261,-0.411991,0.808908,2.348928,-2.448787,0.944948,-1.090985,0.002000,-0.159573,0.000000
111.000000,0.002000,0.747188,-1.188945,0.773253,0.005972,0.127776,0.483195,-1.976529,2.758480,-1.514110,0.002000,-1.126826,0.000000
112.000000,0.002000,-1.183881,-2.659172,0.606320,-0.198607,1.375889,0.955991,0.907940,1.954788,-0.440812,0.002000,0.094352,0.000000
113.000000,0.002000,-1.755891,0.450934,-0.684011,-0.327686,-1.923705,-0.027396,4.401061,-1.198211,0.561057,0.002000,-0.061626,0.000000
114.000000,0.002000,1.659551,1.068509,-0.453386,1.206699,0.503855,2.054761,-2.931425,-1.923951,0.921236,0.002000,-0.812993,0.000000
115.000000,0.002000,-0.687838,-1.214077,-0.440923,-1.001365,-1.240446,-1.617521,1.768248,3.475082,0.980713,0.002000,-1.157355,0.000000
116.000000,0.002000,-0.280355,-0.364694,0.156704,-1.810691,-2.258740,1.491102,1.406655,1.529373,-1.109592,0.002000,2.256723,0.000000
117.000000,0.002000,0.578521,0.349654,-0.764144,0.507707,0.157863,-0.287137,-2.181188,-1.374746,2.903221,0.002000,0.747188,0.000000
118.000000,0.002000,-1.437791,1.364532,-0.689449,0.298217,0.238715,-0.850668,2.399822,-2.340749,1.188600,0.002000,-1.183881,0.000000
119.000000,0.002000,-0.652294,-0.521189,-1.843070,0.712101,0.263068,-0.426673,1.115548,0.961432,3.479013,0.002000,-1.755891,0.000000
120.000000,0.002000,-0.477974,-0.479656,0.620358,-1.259908,0.110078,-0.796126,1.935074,2.036752,-3.293835,0.002000,1.659551,0.000000
121.000000,0.002000,0.698457,0.003771,0.931848,0.088458,-0.403672,0.255454,-2.000797,1.115541,-3.245630,0.002000,-0.687838,0.000000
122.000000,0.002000,0.339965,-0.015682,0.160928,-0.765382,1.274088,-0.901783,-2.930480,-0.562463,-2.117188,0.002000,-0.280355,0.000000
123.000000,0.002000,-0.190653,-0.394850,-0.267734,1.066044,0.238153,1.342838,0.836316,1.548114,1.716135,0.002000,0.578521,0.000000
124.000000,0.002000,-1.128011,0.280442,-0.993124,-0.933772,0.581809,0.620394,3.097108,-0.767634,2.712430,0.002000,-1.437791,0.000000
125.000000,0.002000,0.841631,-0.249459,0.049495,0.527749,-1.335802,-1.016176,-4.004159,2.306976,0.299262,0.002000,-0.652294,0.000000
126.000000,0.002000,0.493837,0.643314,-1.570623,-0.392004,-0.321763,0.097716,-1.060898,-1.385968,3.474065,0.002000,-0.477974,0.000000
127.000000,0.002000,-0.206904,0.880179,-1.698106,-0.709981,-2.182884,-0.249263,0.427686,-1.656520,3.258122,0.002000,0.698457,0.000000
128.000000,0.002000,0.387280,-2.255564,-1.022507,0.523206,0.640408,-2.867245,nan,2.665229,1.128629,0.002000,0.339965,0.000000
129.000000,0.002000,0.038631,-1.656715,-0.985511,0.009951,0.062721,0.540871,0.223178,3.772516,2.371625,0.002000,-0.190653,0.000000
130.000000,0.002000,-1.471835,1.648135,0.164228,-0.853345,-1.061691,2.186589,2.366781,-2.533631,-0.351035,0.002000,-1.128011,0.000000
131.000000,0.002000,0.567290,-0.222675,-0.353432,0.788595,1.699586,0.898704,-2.111585,0.742842,2.531088,0.002000,0.841631,0.000000
132.000000,0.002000,-1.616474,-0.291837,-0.761492,-1.293721,-1.320190,-0.326916,4.456109,0.672121,1.271680,0.002000,0.493837,0.000000
133.000000,0.002000,0.857924,1.141102,1.466579,-0.584759,1.170697,-0.311977,-1.336329,-1.906286,-2.621702,0.002000,-0.206904,0.000000
134.000000,0.002000,0.852552,-0.598654,-1.115897,-0.813393,2.231781,-0.065668,-3.068815,-0.406558,5.083395,0.002000,0.387280,0.000000
135.000000,0.002000,0.766663,0.356293,-1.768538,-1.279441,0.712187,0.682793,-1.396647,-0.703582,3.261863,0.002000,0.038631,0.000000
136.000000,0.002000,0.355482,0.814520,0.058926,-0.984951,0.240969,1.436163,-2.070020,-3.552494,-0.531740,0.002000,-1.471835,0.000000
137.000000,0.002000,-0.185054,-0.807648,-1.446535,0.879551,-0.101178,-0.351720,0.590566,2.079185,3.784694,0.002000,0.567290,0.000000
138.000000,0.002000,0.800298,-0.309114,-0.233467,-1.331127,0.039876,-2.539787,-3.477198,1.452811,1.065249,0.002000,-1.616474,0.000000
139.000000,0.002000,1.732721,0.684501,0.370825,0.524012,-1.131851,0.173647,-3.423401,-1.510313,-0.733895,0.002000,0.857924,0.000000
140.000000,0.002000,0.142062,1.519995,1.719589,2.350003,-1.021071,-0.901386,-0.198206,-1.876867,-2.607790,0.002000,0.852552,0.000000
141.000000,0.002000,0.929505,0.582225,-2.094603,1.284342,0.195169,0.292224,-1.143660,-0.905744,2.735961,0.002000,0.766663,0.000000
142.000000,0.002000,0.123722,-0.130107,0.093953,-0.919083,1.392066,0.392975,-0.655701,1.330000,-0.627601,0.002000,0.355482,0.000000
143.000000,0.002000,0.943046,-2.739677,-0.569312,-0.227066,-0.022144,0.506191,-0.759626,2.055429,0.409137,0.002000,-0.185054,0.000000
144.000000,0.002000,0.269904,-0.466846,-1.416906,-0.744237,-0.365704,-0.695267,-1.130804,1.203716,3.640525,0.002000,0.800298,0.000000
145.000000,0.002000,0.868963,0.276872,-0.971105,0.662109,-0.116028,1.042702,-8.221837,2.781624,4.716786,0.002000,1.732721,0.000000
146.000000,0.002000,0.314817,0.821586,0.005293,-0.401963,0.399450,1.127950,-1.490004,-3.693349,0.365827,0.002000,0.142062,0.000000
147.000000,0.002000,0.800565,0.078260,-0.395229,0.132276,0.082410,0.147312,-3.524746,-1.076433,1.711701,0.002000,0.929505,0.000000
148.000000,0.002000,-1.159421,-0.085931,0.194293,0.752549,1.391946,0.932584,4.088893,2.302165,1.115408,0.002000,0.123722,0.000000
149.000000,0.002000,0.875833,-0.115107,0.457416,-0.216436,-2.068610,-0.392494,-4.025456,0.355076,-1.013362,0.002000,0.943046,0.000000
150.000000,0.002000,-0.964612,-0.782629,-0.110389,-0.278071,0.010159,0.635835,3.160049,2.577563,-0.482349,0.002000,0.269904,0.000000
151.000000,0.002000,-1.054628,0.820248,0.463130,-1.431309,-1.191062,-2.251746,3.507143,-2.603096,-1.274121,0.002000,0.868963,0.000000
152.000000,0.002000,0.279096,0.338904,2.021044,0.174525,1.022299,1.667059,-0.384460,-0.345274,-3.403683,0.002000,0.314817,0.000000
153.000000,0.002000,-0.468864,-2.201441,0.199300,0.524943,-0.181516,1.821409,0.705387,3.327444,-0.311543,0.002000,0.800565,0.000000
154.000000,0.002000,-0.050604,-0.517519,-0.978830,-1.440658,-0.991919,-0.531076,0.553416,1.875854,3.251995,0.002000,-1.159421,0.000000
155.000000,0.002000,-0.439190,0.181338,-0.502817,0.291968,-1.631324,0.351132,nan,-1.315346,2.830776,0.002000,0.875833,0.000000
156.000000,0.002000,2.412454,-0.960504,-0.793117,-0.930989,1.197488,-1.679497,-2.275247,0.915526,0.695748,0.002000,-0.964612,0.000000
157.000000,0.002000,-2.288620,0.251484,-2.016407,-0.811885,-0.841683,2.462387,1.526962,-0.152602,1.396335,0.002000,-1.054628,0.000000
158.000000,0.002000,-0.539455,-0.275671,-0.709728,0.300966,-1.425736,0.631299,2.936400,0.716545,4.107324,0.002000,0.279096,0.000000
159.000000,0.002000,1.738873,0.994394,1.319137,2.259405,0.661467,0.974963,-2.497788,-1.072609,-2.002602,0.002000,-0.468864,0.000000
160.000000,0.002000,-0.882419,1.128594,0.496001,-0.843939,-0.626385,1.021494,2.267836,-3.299376,-1.356206,0.002000,-0.050604,0.000000
161.000000,0.002000,0.771406,1.029439,-0.908763,1.843577,-0.783563,-0.589337,-2.237374,-2.846679,2.511897,0.002000,-0.439190,0.000000
162.000000,0.002000,-0.424318,0.862596,-2.655619,0.999677,-1.735148,0.558668,0.401329,-0.781011,2.232723,0.002000,2.412454,0.000000
163.000000,0.002000,1.513328,0.553132,-0.045704,-0.959499,1.100512,0.269274,-3.875839,-1.717225,-0.354343,0.002000,-2.288620,0.000000
164.000000,0.002000,0.220508,-1.029935,-0.349943,-1.025714,-0.730619,-0.370786,nan,4.033465,1.226650,0.002000,-0.539455,0.000000
165.000000,0.002000,1.100284,1.298022,2.696224,1.000239,1.781837,0.250673,-0.657128,-0.783277,-1.612457,0.002000,1.738873,0.000000
166.000000,0.002000,-0.073925,-0.658553,-0.514234,-0.120828,0.799075,0.440661,0.958277,4.054781,2.483562,0.002000,-0.882419,0.000000
167.000000,0.002000,-1.018042,-0.077855,0.382732,-2.783822,0.329202,-1.168320,3.539545,0.037662,-2.015928,0.002000,0.771406,0.000000
168.000000,0.002000,-0.034242,1.096347,-0.234216,-0.742493,-1.671831,-2.229238,0.312205,-4.308114,1.217598,0.002000,-0.424318,0.000000
169.000000,0.002000,-0.347451,-0.581268,-1.632635,-1.589567,-2.176326,0.646593,0.979784,1.597710,3.626288,0.002000,1.513328,0.000000
170.000000,0.002000,-1.567768,-1.179158,1.301428,-0.238744,-1.281451,1.572431,2.087746,1.571147,-1.621391,0.002000,0.220508,0.000000
171.000000,0.002000,0.895260,1.374964,-1.332212,-0.086664,0.355621,-1.555611,-1.391717,-2.235735,2.377312,0.002000,1.100284,0.000000
172.000000,0.002000,-1.968625,-0.660056,0.175819,2.251613,-0.078819,-0.987357,2.048023,2.777749,0.288173,0.002000,-0.073925,0.000000
173.000000,0.002000,0.498690,1.047972,0.284280,-0.501058,0.561769,-1.307473,nan,-3.577601,-1.259168,0.002000,-1.018042,0.000000
174.000000,0.002000,1.742669,-0.222606,-0.913079,-0.697598,-0.238298,-0.882502,-3.536958,0.263693,1.835312,0.002000,-0.034242,0.000000
175.000000,0.002000,-1.681218,-0.888971,0.242118,-0.350000,0.803753,0.269810,3.271275,1.559713,-0.478165,0.002000,-0.347451,0.000000
176.000000,0.002000,-0.888720,0.936742,1.412328,1.465868,0.814159,0.605401,1.684995,-1.840088,-2.637413,0.002000,-1.567768,0.000000
177.000000,0.002000,-2.369587,0.864052,-2.239604,0.743987,-0.999365,0.339961,1.205749,-0.461105,1.171217,0.002000,0.895260,0.000000
178.000000,0.002000,0.401499,1.224871,0.064856,2.731731,-1.081084,0.132389,-1.801934,-3.208991,-0.231646,0.002000,-1.968625,0.000000
179.000000,0.002000,-1.279689,-0.585431,-0.261645,0.320734,-0.651163,0.345794,3.799909,1.564479,1.022352,0.002000,0.498690,0.000000
180.000000,0.002000,-0.182245,-0.202897,-0.109883,-0.783131,-0.987970,0.377692,1.149869,0.658504,-0.030360,0.002000,1.742669,0.000000
181.000000,0.002000,0.213480,-1.208574,-0.242020,0.877298,-1.788002,0.296570,0.400426,4.235836,0.372843,0.002000,-1.681218,0.000000
182.000000,0.002000,1.518261,-0.384645,-0.443836,-0.903460,1.786493,0.978287,nan,0.497093,0.783031,0.002000,-0.888720,0.000000
183.000000,0.002000,1.078197,-2.559185,1.181379,-0.295697,0.647782,0.050690,-0.819084,1.929460,-0.828437,0.002000,-2.369587,0.000000
184.000000,0.002000,-0.631904,0.163929,0.096321,0.508042,-1.349345,0.201817,3.151389,-0.300299,-1.267922,0.002000,0.401499,0.000000
185.000000,0.002000,0.942468,-0.267595,-0.678026,-1.442627,-1.180842,1.038315,-3.338995,1.020283,2.442971,0.002000,-1.279689,0.000000
186.000000,0.002000,1.297846,-2.364174,0.020334,0.986056,1.807619,-2.057524,-1.264888,2.214384,-0.020400,0.002000,-0.182245,0.000000
187.000000,0.002000,-1.347925,-0.761573,2.011257,-0.633357,-0.204188,-0.904884,1.473866,0.912782,-2.384247,0.002000,0.213480,0.000000
188.000000,0.002000,-0.044595,0.195070,-1.781563,-1.347383,-0.219123,-0.598914,0.176668,-0.369065,4.152073,0.002000,1.518261,0.000000
189.000000,0.002000,-0.729045,0.196557,0.354758,-0.919387,0.782574,-0.662991,2.682663,-0.762948,-1.832640,0.002000,1.078197,0.000000
190.000000,0.002000,0.616887,0.008628,0.527004,-0.004453,0.401730,0.530222,-2.084776,0.161245,-2.302445,0.002000,-0.631904,0.000000
191.000000,0.002000,0.453782,-1.829740,0.037006,-0.630287,0.190097,0.116998,-0.995103,3.810439,-0.069644,0.002000,0.942468,0.000000
192.000000,0.002000,0.767902,0.589880,-0.363859,0.626726,0.208697,-0.343409,-3.315782,-2.526155,1.699724,0.002000,1.297846,0.000000
193.000000,0.002000,-0.805627,-1.118312,-0.131054,-0.081803,0.287118,1.850835,2.642541,3.564083,0.520939,0.002000,-1.347925,0.000000
194.000000,0.002000,1.133080,-1.951804,-0.659892,-0.412174,-0.369514,-0.842246,-1.599248,2.627780,0.823975,0.002000,-0.044595,0.000000
195.000000,0.002000,-1.139802,0.784958,-0.554310,1.036271,-1.568795,1.319141,3.150245,-2.130224,1.731224,0.002000,-0.729045,0.000000
196.000000,0.002000,-0.470638,-0.216950,0.445393,-1.423807,-0.142527,0.195045,2.434334,0.374871,-1.722535,0.002000,0.616887,0.000000
197.000000,0.002000,-0.392389,-3.046143,0.543312,-0.050181,-0.997138,0.566615,0.198721,1.968799,-0.343758,0.002000,0.453782,0.000000
198.000000,0.002000,0.439043,-0.219541,-1.084037,-0.773408,2.121347,1.019280,-2.016463,0.323157,3.761005,0.002000,0.767902,0.000000
199.000000,0.002000,0.351780,0.379236,-0.470033,-0.250214,-2.530077,-0.185978,-1.195288,-1.834636,2.540591,0.002000,-0.805627,0.000000
200.000000,0.002000,-0.216731,-0.930157,-0.178589,-0.556241,-2.101463,-1.554503,0.484015,3.780166,0.707702,0.002000,1.133080,0.000000
201.000000,0.002000,-1.550429,0.417319,-0.944368,-1.980594,-0.361461,1.086488,2.801053,-0.977173,1.842184,0.002000,-1.139802,0.000000
202.000000,0.002000,0.238103,-1.405963,-0.590058,-0.638217,-0.171317,1.458824,-0.536364,3.664576,1.695659,0.002000,-0.470638,0.000000
203.000000,0.002000,-0.110489,-1.660700,0.115148,-0.196874,0.345719,-1.253540,0.030054,4.084739,-0.216608,0.002000,-0.392389,0.000000
204.000000,0.002000,-0.379148,-1.742356,-1.303243,-0.479807,-0.549914,-0.652192,0.711999,2.614741,2.077768,0.002000,0.439043,0.000000
205.000000,0.002000,0.605120,0.895556,-0.131909,0.074572,-1.399098,1.581138,-2.658975,-3.291927,0.519373,0.002000,0.351780,0.000000
206.000000,0.002000,0.404762,0.223844,0.329623,0.994390,0.822489,-0.913079,-1.443254,-0.810494,-1.924488,0.002000,-0.216731,0.000000
207.000000,0.002000,1.285984,-1.506998,0.676461,0.665629,0.440809,-1.086383,-2.609115,2.626483,-1.421995,0.002000,-1.550429,0.000000
208.000000,0.002000,-0.382009,-0.224259,-0.302250,1.635405,-0.183004,2.022918,1.727472,1.115728,0.921477,0.002000,0.238103,0.000000
209.000000,0.002000,-0.375147,-1.226196,0.183339,0.913083,-0.771849,0.563683,1.258631,4.267495,-0.494100,0.002000,-0.110489,0.000000
210.000000,0.002000,1.670943,-0.056133,-0.001385,0.920744,0.627226,-0.011369,-3.503204,0.175925,-0.298418,0.002000,-0.379148,0.000000
211.000000,0.002000,-0.687299,-0.117475,0.466166,0.132993,-0.710185,0.768944,2.926995,1.356819,-1.817686,0.002000,0.605120,0.000000
212.000000,0.002000,-0.370242,-0.453804,0.403265,-1.180108,-0.283578,0.411334,1.181735,1.455834,-1.596900,0.002000,0.404762,0.000000
213.000000,0.002000,-0.918005,0.252497,0.820322,0.532773,-0.721431,-1.542161,3.145652,-0.384154,-2.519487,0.002000,1.285984,0.000000
214.000000,0.002000,1.359949,-0.090382,1.367597,-1.942496,-1.677943,-0.017274,-4.137246,-1.091846,-3.777108,0.002000,-0.382009,0.000000
215.000000,0.002000,1.034410,-0.996213,-1.217939,-0.521243,2.306940,0.409867,-2.195910,2.121534,2.616572,0.002000,-0.375147,0.000000
216.000000,0.002000,-0.304964,1.028935,-0.072287,-0.388466,-1.427036,-0.447404,1.543650,-4.086890,0.696990,0.002000,1.670943,0.000000
217.000000,0.002000,-0.600658,1.552243,0.286904,0.062609,-0.690898,1.626177,1.203244,-3.938126,-0.656044,0.002000,-0.687299,0.000000
218.000000,0.002000,-2.320594,0.317161,0.520041,-1.324795,-0.970478,-0.868166,3.016462,-0.377217,-0.745064,0.002000,-0.370242,0.000000
219.000000,0.002000,0.225609,0.449712,-0.067276,-1.909401,0.730079,0.077110,-1.663487,-1.803869,0.639228,0.002000,-0.918005,0.000000
220.000000,0.002000,-1.318396,-0.370704,-0.945616,-1.246116,0.301533,0.315622,3.003774,0.932941,2.668942,0.002000,1.359949,0.000000
221.000000,0.002000,-0.932741,-1.263068,0.452489,-0.017293,-0.492398,0.876702,2.386730,3.238327,-1.042305,0.002000,1.034410,0.000000
222.000000,0.002000,0.097896,-0.448165,-0.649338,-1.797552,-1.343260,-0.176820,-0.332380,0.975187,2.740073,0.002000,-0.304964,0.000000
223.000000,0.002000,-0.023423,1.079195,-2.004216,0.201015,-0.010911,0.207426,0.007779,-1.544656,2.850019,0.002000,-0.600658,0.000000
224.000000,0.002000,0.376877,-0.545712,-1.884586,-0.001414,1.321933,-0.144253,-0.962761,0.771034,3.551931,0.002000,-2.320594,0.000000
225.000000,0.002000,-1.945703,-0.912783,0.219510,1.559934,0.586532,-1.067114,2.619915,1.522764,-0.473073,0.002000,0.225609,0.000000
226.000000,0.002000,0.393063,-0.938982,1.017021,0.943208,-2.402248,-1.696539,-1.252883,2.742204,-3.314077,0.002000,-1.318396,0.000000
227.000000,0.002000,1.422983,0.396087,-0.591403,-0.352049,-0.672968,-0.449814,-3.783802,-0.928736,1.680892,0.002000,-0.932741,0.000000
228.000000,0.002000,1.124419,0.755396,0.867407,-0.136603,2.242353,-0.649570,-2.738260,-2.167513,-2.403635,0.002000,0.097896,0.000000
229.000000,0.002000,-0.656464,-2.834555,2.116791,-0.695597,0.269010,0.075488,0.268638,1.209599,-0.913073,0.002000,-0.023423,0.000000
230.000000,0.002000,-1.610878,-0.035768,2.380745,-0.248076,0.454864,-1.600669,1.294829,0.048120,-1.941169,0.002000,0.376877,0.000000
231.000000,0.002000,0.330577,0.949246,-1.502397,2.995706,1.125495,0.149985,-1.052651,-1.630345,3.314084,0.002000,-1.945703,0.000000
232.000000,0.002000,-1.777667,-0.532703,1.090750,0.192088,-0.576803,0.221175,2.947725,0.642571,-1.706702,0.002000,0.393063,0.000000
233.000000,0.002000,-0.346249,-0.794636,0.197967,-0.252613,-1.273394,-2.198109,1.342301,3.699145,-0.820051,0.002000,1.422983,0.000000
234.000000,0.002000,1.081935,-1.444940,-1.210543,-0.131619,0.611074,-0.432122,-1.769260,2.364665,1.897275,0.002000,1.124419,0.000000
235.000000,0.002000,-0.788669,1.094638,0.234822,-2.681703,-0.191061,0.947639,2.382646,-3.659331,-0.878496,0.002000,-0.656464,0.000000
236.000000,0.002000,2.132153,0.936446,-0.035095,-0.983208,-1.169060,0.311859,nan,-1.139084,-0.149138,0.002000,-1.610878,0.000000
237.000000,0.002000,1.265078,0.211497,-0.704921,0.149494,-0.071757,0.102766,-3.865927,-0.888049,1.959924,0.002000,0.330577,0.000000
238.000000,0.002000,0.679975,-0.696327,-0.290397,1.657821,-0.480496,0.483545,-2.798688,3.879809,1.294321,0.002000,-1.777667,0.000000
239.000000,0.002000,1.327783,-0.101281,-0.803141,0.130305,0.842653,-0.487519,-3.688738,0.002267,2.414083,0.002000,-0.346249,0.000000
240.000000,0.002000,-0.464338,1.021791,-0.552541,1.414131,1.951625,-1.520935,1.095325,-3.297566,2.744915,0.002000,1.081935,0.000000
241.000000,0.002000,-0.386871,-0.510293,0.183925,0.180736,1.008640,0.169377,1.397543,2.310284,-1.308510,0.002000,-0.788669,0.000000
242.000000,0.002000,-0.385490,-1.601836,-0.887181,-0.638527,0.315040,0.213466,0.489122,3.332631,1.843424,0.002000,2.132153,0.000000
243.000000,0.002000,-0.932789,1.243319,0.812674,0.127565,-0.269281,-0.417629,2.258641,-3.145234,-2.010759,0.002000,1.265078,0.000000
244.000000,0.002000,0.587259,-0.505358,-0.815792,-0.531003,-1.286726,0.402495,-2.445948,1.861259,3.511179,0.002000,0.679975,0.000000
245.000000,0.002000,-0.507518,-1.051880,2.497200,-0.662907,-0.890016,0.017324,nan,0.998738,-2.244134,0.002000,1.327783,0.000000
246.000000,0.002000,-2.245322,0.564009,-1.284552,-1.335788,-1.473919,1.209958,2.248393,-0.557622,1.236375,0.002000,-0.464338,0.000000
247.000000,0.002000,-0.104343,-0.988002,-1.177629,-0.870664,-1.130719,2.538219,0.301427,2.891610,3.251105,0.002000,-0.386871,0.000000
248.000000,0.002000,-1.140196,1.754986,-0.132988,-1.376064,-0.899777,0.081007,1.800401,-3.109422,0.283412,0.002000,-0.385490,0.000000
249.000000,0.002000,-0.765702,0.555787,0.010349,-0.979667,-1.980033,-1.333046,4.250180,-2.853765,-0.341305,0.002000,-0.932789,0.000000
250.000000,0.002000,0.720034,-1.824257,0.303604,-0.026627,0.613162,0.730926,-1.473445,3.336175,-0.348921,0.002000,0.587259,0.000000
251.000000,0.002000,0.772695,-1.661598,0.448195,-0.471053,1.818696,1.012819,-1.705702,3.281205,-0.902978,0.002000,-0.507518,0.000000
252.000000,0.002000,1.696182,-0.014858,0.821406,-0.267508,0.309798,-0.339085,-3.569542,-0.011266,-1.688147,0.002000,-2.245322,0.000000
253.000000,0.002000,0.670570,-0.707506,0.039767,1.390742,-0.112909,-0.112822,-3.095713,3.162471,-0.592287,0.002000,-0.104343,0.000000
254.000000,0.002000,-1.566995,-0.451303,0.265688,-0.746398,0.348089,0.130848,4.054201,0.970694,-0.638848,0.002000,-1.140196,0.000000
255.000000,0.002000,0.723100,0.024612,0.719984,-0.887191,-1.155371,-0.809948,-2.697356,0.183236,-2.911647,0.002000,-0.765702,0.000000
256.000000,0.002000,-1.102906,-0.101697,0.019279,0.939834,0.674192,0.555175,6.455839,0.305430,-0.865839,0.002000,0.720034,0.000000
257.000000,0.002000,1.849591,-0.214167,-0.499017,2.388384,0.063757,-0.300628,-3.763767,0.326559,0.978795,0.002000,0.772695,0.000000
258.000000,0.002000,0.021351,-0.919113,0.192754,1.793159,0.634928,0.097408,0.017617,6.045306,-1.071459,0.002000,1.696182,0.000000
259.000000,0.002000,-0.365055,-1.791328,-0.058587,1.979690,0.963722,1.206706,0.321203,3.989416,-0.275694,0.002000,0.670570,0.000000
260.000000,0.002000,-0.317543,-1.632423,-0.067134,2.662575,-2.975211,-0.214590,0.972081,3.933176,0.173703,0.002000,-1.566995,0.000000
261.000000,0.002000,1.489356,0.521304,0.611927,0.889527,-2.512430,-1.193476,-3.501378,-1.110121,-1.515327,0.002000,0.723100,0.000000
262.000000,0.002000,-1.341497,0.476898,0.148450,0.611107,0.543953,0.919575,4.724469,-1.606773,0.397648,0.002000,-1.102906,0.000000
263.000000,0.002000,0.529045,0.422629,-1.359781,-0.014559,-0.172323,0.803237,-1.348246,-1.254541,3.816853,0.002000,1.849591,0.000000
264.000000,0.002000,-0.041401,-0.757871,-0.050084,-0.123567,0.889091,-0.518216,0.110377,3.518562,0.036274,0.002000,0.021351,0.000000
265.000000,0.002000,-0.897401,1.312470,-0.858972,0.686842,1.325149,2.262177,1.794924,-2.837507,2.022728,0.002000,-0.365055,0.000000
266.000000,0.002000,-0.898942,0.074586,-1.077099,-0.990776,1.226366,-0.781885,2.548582,-0.200661,3.224599,0.002000,-0.317543,0.000000
267.000000,0.002000,-0.424663,-0.829965,1.411172,2.553404,0.025021,-0.692224,0.874494,2.284124,-3.024617,0.002000,1.489356,0.000000
268.000000,0.002000,0.785804,-0.057470,-0.391217,0.450095,0.824762,-1.544051,-3.303687,-0.147792,1.800952,0.002000,-1.341497,0.000000
269.000000,0.002000,0.940918,0.405204,0.498052,1.058295,0.968492,0.021967,-3.568903,-1.159097,-3.079869,0.002000,0.529045,0.000000
270.000000,0.002000,-0.026192,-1.688230,-0.112466,-0.609538,0.269464,0.664979,-0.295096,3.976132,0.027776,0.002000,-0.041401,0.000000
271.000000,0.002000,-0.532490,0.645055,1.011842,-1.096703,-0.721316,1.159343,1.898749,-1.784869,-3.432010,0.002000,-0.897401,0.000000
272.000000,0.002000,-0.657951,0.468385,1.735879,1.033389,-1.150873,0.620061,1.918560,-0.983784,-3.802642,0.002000,-0.898942,0.000000
273.000000,0.002000,-0.667713,1.681922,-0.852586,1.073723,-2.694531,1.090796,1.355401,-2.873965,1.697836,0.002000,-0.424663,0.000000
274.000000,0.002000,0.022960,-0.011146,0.011499,-0.423643,0.546733,0.363352,0.334530,-0.059150,-0.311260,0.002000,0.785804,0.000000
275.000000,0.002000,-0.837678,-0.591183,-0.667720,-1.468708,0.266052,0.418712,2.867666,1.785290,2.609235,0.002000,0.940918,0.000000
276.000000,0.002000,0.326963,0.330035,2.225944,-0.268954,-0.742119,0.419030,-0.464359,-0.364766,-3.233661,0.002000,-0.026192,0.000000
277.000000,0.002000,1.370989,-0.509843,0.324870,-0.075486,-0.902149,1.738704,-3.866552,1.843251,-0.771011,0.002000,-0.532490,0.000000
278.000000,0.002000,0.997118,0.030602,-0.069642,-1.069632,1.291022,-0.921032,-4.906511,-0.619942,-0.230802,0.002000,-0.657951,0.000000
279.000000,0.002000,0.051575,0.867277,-0.848321,-0.558891,1.511758,-0.701677,-0.190370,-2.812255,3.122240,0.002000,-0.667713,0.000000
280.000000,0.002000,-0.325669,0.470433,0.311447,1.522379,1.012270,-0.486915,0.826340,-1.892260,-2.429265,0.002000,0.022960,0.000000
281.000000,0.002000,0.239583,-0.369801,0.972536,-2.673071,-0.477722,0.387242,-1.206756,1.526147,-3.087537,0.002000,-0.837678,0.000000
282.000000,0.002000,2.133868,0.406415,-0.193177,0.149177,1.238661,0.198782,-3.444097,-0.511756,0.258628,0.002000,0.326963,0.000000
283.000000,0.002000,0.755740,-0.539133,-0.749690,0.745705,1.278592,0.147699,-2.785314,1.836174,2.858997,0.002000,1.370989,0.000000
284.000000,0.002000,0.032809,-2.582797,-1.153950,0.207452,-0.407281,-0.578680,-0.055360,2.162648,0.984422,0.002000,0.997118,0.000000
285.000000,0.002000,-0.347962,-1.353389,-1.032643,-3.309638,-0.684037,-0.849671,1.150827,2.977343,2.655722,0.002000,0.051575,0.000000
286.000000,0.002000,-0.436748,-1.642965,-0.406072,-1.067746,1.051659,0.363997,0.783983,3.688924,1.177493,0.002000,-0.325669,0.000000
287.000000,0.002000,-0.535270,0.025405,1.154184,0.024368,-0.031892,-0.029287,1.801272,0.156687,-3.968748,0.002000,0.239583,0.000000
288.000000,0.002000,0.172504,0.021062,0.099454,0.461691,1.943453,1.662467,-1.550741,-1.488090,1.960730,0.002000,2.133868,0.000000
289.000000,0.002000,0.227393,-1.016739,-0.114775,0.874812,2.024778,-1.577022,-0.880401,3.911250,-0.209092,0.002000,0.755740,0.000000
290.000000,0.002000,0.308751,-1.370760,0.865653,1.697478,0.793924,-0.147580,-0.911698,3.901518,-2.184889,0.002000,0.032809,0.000000
291.000000,0.002000,1.081376,-0.631376,-0.241338,-0.425730,-0.929111,-0.176597,-3.355427,1.611552,0.595091,0.002000,-0.347962,0.000000
292.000000,0.002000,-0.878190,0.699380,-1.061222,-0.948941,-1.027002,0.345731,2.138017,-1.921871,2.918023,0.002000,-0.436748,0.000000
293.000000,0.002000,-0.222477,-0.858920,0.050954,-0.126770,-0.858819,0.022055,0.979060,3.450769,-0.587872,0.002000,-0.535270,0.000000
294.000000,0.002000,-1.794229,1.326462,-0.964606,0.458096,-0.889893,0.669814,2.148973,-1.672840,1.138625,0.002000,0.172504,0.000000
295.000000,0.002000,0.059895,-0.212523,-0.762115,1.161210,1.557736,-0.088207,-0.207602,0.411916,2.916119,0.002000,0.227393,0.000000
296.000000,0.002000,-0.887780,0.936399,-0.525641,-0.119829,0.589073,-0.308956,2.647751,-2.302984,1.596268,0.002000,0.308751,0.000000
297.000000,0.002000,0.271170,-0.801497,-0.647181,-0.908184,-0.149202,-1.710601,-0.237191,3.007167,2.398250,0.002000,1.081376,0.000000
298.000000,0.002000,0.472247,0.930408,-0.175316,-0.775918,-0.499161,2.063633,-2.189609,-3.465229,1.746260,0.002000,-0.878190,0.000000
299.000000,0.002000,-1.421920,1.997956,-0.856549,-1.221196,0.208291,-1.817025,1.425350,-2.111225,0.838526,0.002000,-0.222477,0.000000
300.000000,0.002000,-1.541587,2.594425,-0.404032,0.187421,0.830695,0.159105,1.107034,-1.816273,0.276768,0.002000,-1.794229,0.000000
301.000000,0.002000,-1.461733,-0.683440,0.367545,0.134668,0.507810,0.318631,3.609673,1.698488,-0.871291,0.002000,0.059895,0.000000
302.000000,0.002000,0.190312,-0.851729,1.822724,0.074794,1.123291,1.116542,-0.322666,1.545067,-3.174355,0.002000,-0.887780,0.000000
303.000000,0.002000,-0.521580,-1.184687,0.960693,-1.508062,-1.854358,0.494623,1.550815,2.630662,-2.948543,0.002000,0.271170,0.000000
304.000000,0.002000,1.329063,-0.817493,-1.401347,-0.312837,-0.826022,-1.176862,-2.558630,0.985978,2.640037,0.002000,0.472247,0.000000
305.000000,0.002000,1.030438,-2.047324,-1.226622,2.707524,-0.859936,-0.194335,-1.006960,2.146045,1.197915,0.002000,-1.421920,0.000000
306.000000,0.002000,0.967446,-0.055353,-0.263937,0.372836,1.564389,0.122470,-3.720701,0.157037,0.999675,0.002000,-1.541587,0.000000
307.000000,0.002000,0.352817,-0.152774,-1.298687,-0.255454,-2.426784,-1.276367,-1.425912,0.194840,4.515553,0.002000,-1.461733,0.000000
308.000000,0.002000,1.276075,1.325014,0.205333,0.186566,0.933987,2.191351,-2.531478,-2.927005,-0.923116,0.002000,0.190312,0.000000
309.000000,0.002000,0.045134,2.339625,-0.276433,1.047972,0.531089,-0.444409,0.168820,-3.093028,0.310884,0.002000,-0.521580,0.000000
310.000000,0.002000,-0.259577,0.364481,1.471322,0.010270,-0.493108,-0.859102,1.506137,-0.295353,-4.151171,0.002000,1.329063,0.000000
311.000000,0.002000,1.592771,-0.258573,0.308331,0.363574,0.181927,1.457059,-4.032436,0.452415,-1.164165,0.002000,1.030438,0.000000
312.000000,0.002000,-1.378083,-0.311976,-0.840290,0.625467,-0.076621,0.736603,3.124310,0.614430,2.089568,0.002000,0.967446,0.000000
313.000000,0.002000,-1.006832,1.681577,-0.792287,0.407334,0.315758,1.267471,1.462610,-2.736109,1.407900,0.002000,0.352817,0.000000
314.000000,0.002000,-0.531606,0.365849,1.297825,1.526012,-0.146052,-0.616925,1.120559,-1.049462,-3.706195,0.002000,1.276075,0.000000
315.000000,0.002000,0.481115,2.759355,-0.074668,0.780270,-1.189527,-1.695914,-0.375697,-2.398655,0.001651,0.002000,0.045134,0.000000
316.000000,0.002000,0.258716,0.275601,1.435049,1.061526,0.729065,-0.003927,-0.649002,-0.886029,-4.242985,0.002000,-0.259577,0.000000
317.000000,0.002000,0.507239,-0.116230,-0.947489,-0.219275,-1.206537,-0.592626,-1.821209,0.205278,3.504701,0.002000,1.592771,0.000000
318.000000,0.002000,0.244443,1.401345,-0.410382,0.499063,0.635032,0.250017,0.490522,-4.053424,1.460348,0.002000,-1.378083,0.000000
319.000000,0.002000,0.528944,0.246148,0.863520,-0.776746,0.120452,-0.085596,-1.822996,-0.705782,-3.560103,0.002000,-1.006832,0.000000
320.000000,0.002000,-0.804754,2.346647,-1.279161,-2.959887,-0.059499,0.010723,0.685057,-2.008786,1.164334,0.002000,-0.531606,0.000000
321.000000,0.002000,-0.365551,0.938093,0.296733,-0.695721,0.626883,0.884836,1.453755,-3.605391,-1.003467,0.002000,0.481115,0.000000
322.000000,0.002000,0.829986,-0.496102,-0.074805,-1.096525,-0.353848,-0.279305,-3.238614,1.888205,-0.241927,0.002000,0.258716,0.000000
323.000000,0.002000,0.012232,1.569260,0.690429,-0.666328,1.657805,0.989353,-0.255884,-4.057438,-1.763686,0.002000,0.507239,0.000000
324.000000,0.002000,0.796672,-0.657926,0.968883,0.694203,-0.025582,-2.117212,-1.652249,1.703911,-3.577995,0.002000,0.244443,0.000000
325.000000,0.002000,0.225582,1.389145,2.014060,0.845377,0.080088,-0.044634,-0.288390,-1.613827,-2.467267,0.002000,0.528944,0.000000
326.000000,0.002000,-0.306766,-0.406303,-0.864045,-1.343662,-0.362966,0.715337,2.178289,1.370259,3.920611,0.002000,-0.804754,0.000000
327.000000,0.002000,-0.143580,-0.382025,0.359504,1.880605,0.514051,1.320933,0.411638,1.385016,-2.377283,0.002000,-0.365551,0.000000
328.000000,0.002000,-0.144567,-0.361599,1.064585,-1.586976,0.063070,1.040619,0.549011,1.282820,-3.695815,0.002000,0.829986,0.000000
329.000000,0.002000,-0.937880,0.433108,-0.405942,-1.175986,0.726506,0.585350,3.670842,-1.495071,2.576399,0.002000,0.012232,0.000000
330.000000,0.002000,0.724369,1.385262,-0.303098,-0.491218,-2.342068,0.236004,-1.995808,-3.067696,0.569415,0.002000,0.796672,0.000000
331.000000,0.002000,0.441033,0.178793,-0.799422,-0.018403,-0.251417,-0.514971,-1.276579,-1.206709,3.431417,0.002000,0.225582,0.000000
332.000000,0.002000,0.240788,0.289121,0.412871,-0.957687,1.147512,-0.316440,-0.933570,-1.272770,-2.307934,0.002000,-0.306766,0.000000
333.000000,0.002000,-0.198399,0.094192,-1.147611,-0.619505,0.937779,0.661492,0.739676,-0.771132,4.376749,0.002000,-0.143580,0.000000
334.000000,0.002000,-0.358114,0.555963,0.892474,-2.129391,-0.867173,1.809563,1.454424,-1.932478,-3.773783,0.002000,-0.144567,0.000000
335.000000,0.002000,-0.422315,0.104714,0.228053,1.277304,0.730283,0.908086,2.185297,-0.589962,-1.319962,0.002000,-0.937880,0.000000
336.000000,0.002000,0.201480,0.540774,-1.818078,0.440824,0.198378,-0.672016,-0.561041,-1.078513,3.597302,0.002000,0.724369,0.000000
337.000000,0.002000,-0.049324,0.239034,-1.000330,-0.548232,0.150580,0.532846,0.015802,-1.084865,4.090630,0.002000,0.441033,0.000000
338.000000,0.002000,1.673986,0.161559,1.563405,-0.554300,-0.234999,0.306546,-2.352458,-0.182982,-2.212375,0.002000,0.240788,0.000000
339.000000,0.002000,-0.790523,-0.907300,0.224252,0.231744,-0.214395,-1.950471,2.769009,3.181500,-0.965317,0.002000,-0.198399,0.000000
340.000000,0.002000,-1.678688,0.214966,0.097219,0.364789,-0.962081,-0.504901,4.175799,-0.431473,-0.094974,0.002000,-0.358114,0.000000
341.000000,0.002000,1.015665,0.701041,-0.417477,1.172525,-0.212291,-0.076963,-4.093611,-1.954235,2.028537,0.002000,-0.422315,0.000000
342.000000,0.002000,-1.097497,1.712305,-0.792115,-1.567460,0.193645,0.921023,1.850776,-2.737770,1.278799,0.002000,0.201480,0.000000
343.000000,0.002000,-1.045525,-1.084856,1.117305,-0.712898,-1.800793,0.384921,2.156895,2.144643,-2.169667,0.002000,-0.049324,0.000000
344.000000,0.002000,-0.518900,-0.753704,0.137690,0.916445,-1.594450,0.483232,2.707586,4.253156,-0.376441,0.002000,1.673986,0.000000
345.000000,0.002000,-0.206945,-0.678095,0.753991,1.273929,0.347070,0.719289,0.948331,2.453845,-2.843793,0.002000,-0.790523,0.000000
346.000000,0.002000,1.065315,0.985318,0.766920,-1.234251,-0.570779,0.398258,-2.632214,-2.610686,-1.903132,0.002000,-1.678688,0.000000
347.000000,0.002000,0.402626,-1.775888,1.669251,1.612549,0.828374,-0.435547,-0.498938,2.017013,-2.002787,0.002000,1.015665,0.000000
348.000000,0.002000,0.301989,0.608156,1.114962,-0.551690,1.883091,1.499300,-1.241147,-2.116001,-3.814768,0.002000,-1.097497,0.000000
349.000000,0.002000,1.433353,0.418398,0.435546,-0.466462,-0.644028,-0.198275,-3.746718,-0.893808,-1.036552,0.002000,-1.045525,0.000000
350.000000,0.002000,-0.599224,0.033090,-0.854161,1.733600,0.782882,0.452080,3.593905,-1.208019,4.236552,0.002000,-0.518900,0.000000
351.000000,0.002000,-0.719941,-0.893574,-0.156024,-1.052159,0.612238,2.503413,2.678681,3.548077,0.355018,0.002000,-0.206945,0.000000
352.000000,0.002000,1.049093,3.170975,0.189500,-0.254663,-0.002184,-0.312776,-0.563317,-1.676962,-0.125155,0.002000,1.065315,0.000000
353.000000,0.002000,-1.348413,1.264983,-0.300784,-0.243936,2.834295,-1.110022,2.777224,-2.620157,0.691528,0.002000,0.402626,0.000000
354.000000,0.002000,-0.660609,0.209849,-1.240625,-1.825530,-0.285157,0.602003,1.935878,-0.746448,3.417140,0.002000,0.301989,0.000000
355.000000,0.002000,0.222463,-0.088376,0.098378,-0.079709,2.132862,-1.206088,-1.182931,1.096490,-0.354017,0.002000,1.433353,0.000000
356.000000,0.002000,0.381416,0.067492,0.016338,-1.039183,1.902694,1.516089,-2.667425,-1.284454,0.160942,0.002000,-0.599224,0.000000
357.000000,0.002000,0.284315,0.415401,-1.031482,0.251608,-0.726558,0.625700,-1.034459,-1.307590,3.564531,0.002000,-0.719941,0.000000
358.000000,0.002000,-1.429991,-0.061638,-1.432735,0.256251,0.352087,0.282606,2.278509,-0.256211,2.205418,0.002000,1.049093,0.000000
359.000000,0.002000,0.087531,0.938747,0.607112,0.702896,-1.156555,3.249211,-0.472703,-3.611814,-1.698773,0.002000,-1.348413,0.000000
360.000000,0.002000,-1.048170,-0.860262,0.328301,0.699854,0.343506,0.047496,3.278748,2.418909,-1.388321,0.002000,-0.660609,0.000000
361.000000,0.002000,-0.401298,-0.316655,0.596906,0.023823,1.007523,1.055367,1.453424,0.992323,-3.494052,0.002000,0.222463,0.000000
362.000000,0.002000,-0.987287,-0.401235,-0.800082,-0.558107,1.410292,-0.847172,3.034701,1.228595,2.369879,0.002000,0.381416,0.000000
363.000000,0.002000,-1.043129,-0.857078,0.677462,-0.315457,0.368665,0.360291,3.140692,2.366715,-2.081919,0.002000,0.284315,0.000000
364.000000,0.002000,0.051820,-0.879161,-0.231102,0.406627,-0.691475,-0.243408,-0.364724,3.915937,0.851966,0.002000,-1.429991,0.000000
365.000000,0.002000,-1.638807,-0.733313,2.149575,0.128808,1.657929,1.314151,1.468711,0.631427,-1.883380,0.002000,0.087531,0.000000
366.000000,0.002000,-0.090244,0.731659,-0.065488,1.482134,-2.040337,0.605947,-0.375598,-3.020015,1.177556,0.002000,-1.048170,0.000000
367.000000,0.002000,0.348169,0.663258,-1.104617,-1.083290,-1.458589,-0.372816,-0.986245,-2.317050,3.401170,0.002000,-0.401298,0.000000
368.000000,0.002000,-0.030936,1.578865,-0.795501,-1.806883,0.384795,0.543493,0.407247,-3.618582,2.200711,0.002000,-0.987287,0.000000
369.000000,0.002000,-0.566440,-0.307691,0.269024,-0.380628,0.886814,1.433796,2.930122,0.592247,-0.899356,0.002000,-1.043129,0.000000
370.000000,0.002000,0.524918,1.267412,0.499498,0.301324,0.358733,-1.238670,-2.519474,-3.311437,-0.351495,0.002000,0.051820,0.000000
371.000000,0.002000,-0.062053,1.259167,0.704111,-0.891162,0.085927,1.194348,0.101042,-3.583370,-2.472941,0.002000,-1.638807,0.000000
372.000000,0.002000,-1.495680,2.526368,1.769921,-0.636768,-0.662380,-0.206140,0.722799,-1.253663,-0.873144,0.002000,-0.090244,0.000000
373.000000,0.002000,-0.168214,0.377910,1.324359,-0.529282,-1.527153,0.325425,0.589656,-0.552920,-4.191123,0.002000,0.348169,0.000000
374.000000,0.002000,-0.172201,0.730352,1.104578,-0.090819,-0.728664,1.304700,0.356094,-2.567394,-3.371641,0.002000,-0.030936,0.000000
375.000000,0.002000,-1.014826,-0.602332,0.921408,-0.082762,-0.190188,-1.019096,2.746919,1.758202,-2.664301,0.002000,-0.566440,0.000000
376.000000,0.002000,0.460814,0.923797,-0.132568,0.952461,1.553676,0.108096,-1.690546,-3.174526,-0.038395,0.002000,0.524918,0.000000
377.000000,0.002000,-0.289005,-1.998639,-1.146000,0.721264,0.199304,-1.457023,0.506186,2.853806,1.551205,0.002000,-0.062053,0.000000
378.000000,0.002000,0.047066,0.824557,0.531178,-1.677982,0.389341,0.330397,-0.381634,-3.141530,-2.162559,0.002000,-1.495680,0.000000
379.000000,0.002000,-0.128242,-0.271772,0.217180,1.063816,1.713232,0.857546,0.867062,1.641860,-1.400822,0.002000,-0.168214,0.000000
380.000000,0.002000,0.078211,1.404546,0.146441,-1.633364,-0.492773,0.708594,2.323332,-4.847504,1.023315,0.002000,-0.172201,0.000000
381.000000,0.002000,-1.481246,-1.272558,1.518759,-0.664998,-0.754070,0.370541,1.257722,1.502189,-1.498523,0.002000,-1.014826,0.000000
382.000000,0.002000,-1.171160,0.764497,-0.268373,1.595224,-0.940843,0.839690,4.312712,-1.964884,0.288444,0.002000,0.460814,0.000000
383.000000,0.002000,-0.169758,-0.134133,1.221385,-0.068266,0.110277,-0.191104,0.609527,0.558784,-4.336227,0.002000,-0.289005,0.000000
384.000000,0.002000,-0.192842,-0.033319,-1.530803,-0.383705,0.103361,0.480511,0.605285,-0.022797,4.436293,0.002000,0.047066,0.000000
385.000000,0.002000,0.206691,0.531043,0.239146,1.179008,-0.385060,-1.577252,-0.592960,-1.398918,-0.697826,0.002000,-0.128242,0.000000
386.000000,0.002000,1.397896,0.055171,0.298977,0.141890,0.210774,1.074530,-4.192975,-0.173192,-0.770515,0.002000,0.078211,0.000000
387.000000,0.002000,1.648504,-1.550014,-0.455825,-0.116346,-0.298951,-0.171745,-2.375465,2.178041,0.675584,0.002000,-1.481246,0.000000
388.000000,0.002000,1.426159,0.936129,0.678380,-0.174108,-0.572289,-1.193166,-2.693884,-1.956844,-1.246537,0.002000,-1.171160,0.000000
389.000000,0.002000,0.832651,0.327066,1.631597,-1.024082,1.390933,-0.592062,-2.085668,-1.321416,-3.323032,0.002000,-0.169758,0.000000
390.000000,0.002000,0.377759,0.239867,0.158959,-1.303789,-0.402160,0.438707,-2.203878,-1.243225,-0.358223,0.002000,-0.192842,0.000000
391.000000,0.002000,0.192864,-1.157017,0.770673,-0.433036,1.888697,1.142155,-0.620207,3.534048,-2.441461,0.002000,0.206691,0.000000
392.000000,0.002000,-0.130440,1.821915,-0.075650,-0.633985,-0.441826,0.372170,0.387935,-3.984272,0.177157,0.002000,1.397896,0.000000
393.000000,0.002000,0.420918,0.246602,-0.625557,0.270198,1.325805,-0.557731,-1.316031,-1.247076,2.959583,0.002000,1.648504,0.000000
394.000000,0.002000,0.992137,1.905064,-0.014777,-0.073925,0.376851,0.423407,-1.660731,-3.065033,0.066786,0.002000,1.426159,0.000000
395.000000,0.002000,-0.300479,-0.355029,-1.892362,-0.551102,1.114787,2.333990,0.577909,0.610112,3.784754,0.002000,0.832651,0.000000
396.000000,0.002000,-0.177813,0.250998,1.054758,0.412217,-0.553078,0.311502,0.342396,-1.035469,-4.335624,0.002000,0.377759,0.000000
397.000000,0.002000,0.960048,-0.416499,-0.276823,0.028981,1.577329,-1.226900,-3.805102,1.265488,1.322748,0.002000,0.192864,0.000000
398.000000,0.002000,1.123905,-0.173464,-0.510030,0.462402,1.043104,-0.283063,-4.224991,0.586443,1.826104,0.002000,-0.130440,0.000000
399.000000,0.002000,1.392518,1.037586,0.018792,-0.674838,-0.090951,-0.081817,-2.817512,-2.697723,0.290145,0.002000,0.420918,0.000000
400.000000,0.002000,-0.593777,-2.011880,0.589704,-0.796464,1.143267,-0.583839,0.917057,3.131260,-0.996678,0.002000,0.992137,0.000000
401.000000,0.002000,-0.896370,-1.962732,1.584821,-0.734384,0.812882,-1.974133,0.803817,1.935218,-1.639925,0.002000,-0.300479,0.000000
402.000000,0.002000,0.647968,-1.139008,-1.214401,1.065537,-0.138204,-0.483316,-1.733039,2.385079,2.670310,0.002000,-0.177813,0.000000
403.000000,0.002000,0.870962,-0.877971,1.296150,-1.503147,0.046364,-1.922710,-1.856612,1.799497,-2.888488,0.002000,0.960048,0.000000
404.000000,0.002000,0.616459,0.536597,0.404695,-0.694216,-0.044422,-2.948015,-3.121351,-2.566881,-1.264203,0.002000,1.123905,0.000000
405.000000,0.002000,0.191451,0.880511,-0.454080,-1.324848,-0.794635,0.120335,-1.488280,-3.534476,2.662052,0.002000,1.392518,0.000000
406.000000,0.002000,0.085952,0.751947,0.562990,-1.817820,-0.840946,0.017658,-0.661803,-2.981396,-2.298942,0.002000,-0.593777,0.000000
407.000000,0.002000,-1.194987,-0.500410,0.252804,0.765477,-1.124145,1.063738,3.968538,1.645427,-1.018491,0.002000,-0.896370,0.000000
408.000000,0.002000,-0.408015,1.774659,-0.393153,1.573229,-0.200267,-0.362968,0.739195,-3.957624,0.823747,0.002000,0.647968,0.000000
409.000000,0.002000,-0.162218,0.769430,0.330533,-1.107833,0.373250,0.065035,0.694456,-2.924594,-1.875204,0.002000,0.870962,0.000000
410.000000,0.002000,-0.145274,-0.756494,0.301514,1.015495,0.530861,0.841333,-1.322441,3.952621,-1.951964,0.002000,0.616459,0.000000
411.000000,0.002000,1.039096,0.479095,-0.778184,-0.817261,-1.224929,-0.146277,-3.278403,-1.726119,2.613145,0.002000,0.191451,0.000000
412.000000,0.002000,1.736775,-1.446578,-1.582686,-0.810611,1.275797,0.882083,-1.565409,1.303812,1.384479,0.002000,0.085952,0.000000
413.000000,0.002000,0.960557,0.225840,-0.549499,0.840289,1.723572,-0.222275,-3.248826,-0.630420,2.187611,0.002000,-1.194987,0.000000
414.000000,0.002000,-1.098571,2.320800,0.117091,-0.463143,-2.001127,-1.308135,1.064332,-2.598782,-0.198947,0.002000,-0.408015,0.000000
415.000000,0.002000,0.534201,0.317885,0.434808,0.372777,0.268125,0.985474,-2.908358,-0.528633,-1.734313,0.002000,-0.162218,0.000000
416.000000,0.002000,0.540094,0.732424,-0.375222,-2.228341,-1.840713,-0.817346,-1.890328,-2.741045,1.617841,0.002000,-0.145274,0.000000
417.000000,0.002000,-0.291642,-1.741023,-0.780304,-0.109757,-0.249027,0.085208,0.775835,3.444603,1.566051,0.002000,1.039096,0.000000
418.000000,0.002000,0.271113,1.045023,0.599040,-1.753307,-0.030659,0.049459,-1.116854,-4.309005,-2.641425,0.002000,1.736775,0.000000
419.000000,0.002000,-0.340692,-1.263173,-2.777359,-1.748613,1.022362,0.993990,0.249751,0.927114,1.940417,0.002000,0.960557,0.000000
420.000000,0.002000,1.151734,-0.589229,-0.448465,0.836847,0.444977,-0.910005,-3.408041,1.695447,1.263031,0.002000,-1.098571,0.000000
421.000000,0.002000,0.131574,-1.405560,-0.349782,0.152829,1.862600,0.281225,-0.046464,3.964024,0.814868,0.002000,0.534201,0.000000
422.000000,0.002000,2.023472,0.505387,0.359249,-0.429960,1.261889,0.491122,-3.502721,-0.699149,-0.714273,0.002000,0.540094,0.000000
423.000000,0.002000,-1.582494,2.243602,-1.422795,-0.296132,-0.350032,0.976642,1.047660,-1.475768,0.960512,0.002000,-0.291642,0.000000
424.000000,0.002000,1.922325,-2.115056,1.405365,-0.607268,-0.379395,-0.222808,-1.150580,1.249125,-0.844992,0.002000,0.271113,0.000000
425.000000,0.002000,1.618054,-0.824409,0.422580,0.739165,-1.389803,1.932907,-3.291414,1.880727,-0.918743,0.002000,-0.340692,0.000000
426.000000,0.002000,0.547481,-0.813794,-1.449118,-0.988859,-1.646834,1.328782,-1.271519,1.932633,3.424118,0.002000,1.151734,0.000000
427.000000,0.002000,-1.317717,0.541008,-0.085116,-0.403229,-0.614702,0.808867,3.302739,-1.868483,-0.345547,0.002000,0.131574,0.000000
428.000000,0.002000,-0.564301,0.966768,0.508068,0.295210,0.465426,0.456059,2.361858,-3.637366,-1.990532,0.002000,2.023472,0.000000
429.000000,0.002000,-0.755463,-1.201202,0.523262,-1.132436,0.894714,0.424299,2.014291,3.184801,-1.191087,0.002000,-1.582494,0.000000
430.000000,0.002000,-0.537583,0.099205,1.576299,-0.723401,0.139530,-0.597842,6.403091,0.604659,0.785634,0.002000,1.922325,0.000000
431.000000,0.002000,0.502328,-0.862267,0.160661,-0.035629,0.969870,0.599862,-1.956658,3.057672,-0.504785,0.002000,1.618054,0.000000
432.000000,0.002000,-0.952645,1.608522,-0.561579,1.140622,-0.381489,-0.906264,1.869501,-3.189578,1.202906,0.002000,0.547481,0.000000
433.000000,0.002000,0.207271,0.307733,0.159250,-0.477188,-0.294856,0.707699,-1.357032,-0.818219,-1.098414,0.002000,-1.317717,0.000000
434.000000,0.002000,-1.958549,-1.446421,-0.452350,-0.977124,-0.548089,-0.370316,2.269385,1.697004,0.507268,0.002000,-0.564301,0.000000
435.000000,0.002000,0.319432,-0.137779,-0.957147,-0.273432,1.281886,0.869081,-1.384726,-0.217706,3.367739,0.002000,-0.755463,0.000000
436.000000,0.002000,-1.348424,-0.401558,-0.468476,-0.216843,-1.001371,0.396530,3.546654,1.392631,1.603642,0.002000,-0.537583,0.000000
437.000000,0.002000,0.512836,-0.326318,0.602708,-1.348075,-1.327110,-0.358563,-1.760916,1.115137,-3.070305,0.002000,0.502328,0.000000
438.000000,0.002000,-0.594650,-0.255958,-0.348046,0.189241,0.383663,-0.386253,3.326707,1.194796,1.518872,0.002000,-0.952645,0.000000
439.000000,0.002000,-0.782367,0.625119,-0.813596,-0.151243,0.862495,-0.529560,2.525257,-2.010182,2.846442,0.002000,0.207271,0.000000
440.000000,0.002000,-0.521642,-0.073120,-1.297380,0.967826,0.599581,0.862050,1.627858,0.636581,4.910615,0.002000,-1.958549,0.000000
441.000000,0.002000,-0.324935,-0.711306,-0.388154,-1.727471,0.935403,0.813966,5.076837,3.171963,1.147999,0.002000,0.319432,0.000000
442.000000,0.002000,-0.059928,-0.799914,-0.220076,-0.836148,-0.153252,0.093634,0.229114,3.960725,0.738843,0.002000,-1.348424,0.000000
443.000000,0.002000,1.308669,-0.025799,1.145262,-2.477552,-1.978031,0.200553,-2.584793,0.127531,-3.594508,0.002000,0.512836,0.000000
444.000000,0.002000,0.346494,0.774161,-0.774459,0.804650,1.726537,-1.182466,-1.127809,-2.860412,2.878133,0.002000,-0.594650,0.000000
445.000000,0.002000,0.104907,0.133913,-0.612626,1.000671,0.254916,-0.539569,-1.292789,-1.055605,3.220146,0.002000,-0.782367,0.000000
446.000000,0.002000,-0.822828,-1.490265,1.496140,-1.390600,1.159972,-1.194151,1.186103,2.073943,-2.154817,0.002000,-0.521642,0.000000
447.000000,0.002000,-0.972403,1.346221,-0.467493,-0.024227,1.080698,-0.642312,2.203655,-3.011667,1.088428,0.002000,-0.324935,0.000000
448.000000,0.002000,-0.862493,0.622519,-0.631192,-1.750250,-0.053573,1.001406,2.949608,-1.926940,2.409141,0.002000,-0.059928,0.000000
449.000000,0.002000,0.568459,-0.332812,0.480424,0.384205,-0.979537,0.030377,-2.002275,1.197611,-2.298152,0.002000,1.308669,0.000000
450.000000,0.002000,-0.968186,0.831351,0.487973,-0.532451,-0.340197,-1.121253,3.114699,-2.933162,-1.543514,0.002000,0.346494,0.000000
451.000000,0.002000,-0.919651,2.642936,0.540123,0.028595,0.495631,-0.226730,0.748636,-2.170318,-0.456265,0.002000,0.104907,0.000000
452.000000,0.002000,2.290467,1.600268,-0.188835,-1.351520,0.418416,0.172199,-1.957240,-1.393269,0.239470,0.002000,-0.822828,0.000000
453.000000,0.002000,-0.412272,-0.403459,-1.830029,0.795829,0.126306,0.271128,1.001777,0.700192,3.771918,0.002000,-0.972403,0.000000
454.000000,0.002000,-0.695835,0.246766,1.525958,-0.213503,-0.703842,0.218773,1.489180,-0.253774,-3.734178,0.002000,-0.862493,0.000000
455.000000,0.002000,-0.772772,0.882057,-1.252593,-0.536271,0.108360,-0.260032,1.757621,-1.828039,2.778731,0.002000,0.568459,0.000000
456.000000,0.002000,-0.586320,-0.457641,0.371811,-1.227493,0.694109,-1.529979,2.389800,2.100168,-1.633319,0.002000,-0.968186,0.000000
457.000000,0.002000,0.457310,0.962342,0.770837,0.495193,0.078825,1.330024,-1.348604,-0.862950,-3.499483,0.002000,-0.919651,0.000000
458.000000,0.002000,0.243168,0.390365,1.588531,-0.972647,1.744764,0.713736,-0.769039,-1.065660,-3.849208,0.002000,2.290467,0.000000
459.000000,0.002000,-0.510926,0.774728,-1.808144,0.461017,-0.359947,-0.152278,0.706723,-1.413858,3.120149,0.002000,-0.412272,0.000000
460.000000,0.002000,0.411334,-0.483250,0.002571,1.705210,1.546454,-0.191999,-0.860232,2.144434,-0.891752,0.002000,-0.695835,0.000000
461.000000,0.002000,1.040086,0.164644,0.885188,-0.284280,0.630813,2.000684,-3.988699,-0.260074,-2.808056,0.002000,-0.772772,0.000000
462.000000,0.002000,1.473765,0.389094,1.171041,0.485906,0.882932,-0.165723,-3.077194,-0.677021,-2.724911,0.002000,-0.586320,0.000000
463.000000,0.002000,-0.326561,-0.008210,-0.522619,-1.230280,-0.557207,-0.842897,1.173124,0.145230,3.090111,0.002000,0.457310,0.000000
464.000000,0.002000,1.042978,0.414091,-0.507234,-0.046598,-0.211698,-0.133341,-3.549123,-1.567449,1.361833,0.002000,0.243168,0.000000
465.000000,0.002000,0.154669,1.041568,-0.039268,-1.321044,-0.600698,-0.412618,-0.648117,-3.749003,0.392857,0.002000,-0.510926,0.000000
466.000000,0.002000,-0.948933,0.131912,-1.980566,0.075444,0.709865,-0.760035,1.469329,-0.212380,2.864907,0.002000,0.411334,0.000000
467.000000,0.002000,0.768771,-0.421328,-0.469311,-0.625418,-0.419978,-0.082551,-3.351107,4.059429,1.500018,0.002000,1.040086,0.000000
468.000000,0.002000,0.875696,-1.365163,1.947099,-1.066661,1.646491,-1.120957,-1.008860,1.470347,-2.146882,0.002000,1.473765,0.000000
469.000000,0.002000,-0.480242,-0.523251,1.021225,-0.791791,0.112987,0.005993,1.396533,1.762571,-3.404517,0.002000,-0.326561,0.000000
470.000000,0.002000,0.708695,2.451230,-0.211206,-0.472309,-0.279692,0.575819,-0.775538,-2.596214,0.286201,0.002000,1.042978,0.000000
471.000000,0.002000,-0.120407,-1.479316,-0.332102,0.973655,0.278959,-0.573015,0.426215,4.352234,0.885007,0.002000,0.154669,0.000000
472.000000,0.002000,-0.721431,-0.448767,-1.744188,-0.483029,-0.248907,-1.952570,1.389131,0.757924,3.572883,0.002000,-0.948933,0.000000
473.000000,0.002000,1.660608,-1.416603,-2.802203,-0.647529,-0.262831,-0.773401,-0.747567,0.616880,1.259779,0.002000,0.768771,0.000000
474.000000,0.002000,-1.188424,-0.603840,-1.149554,0.839559,2.537620,-0.336587,2.530693,0.962563,2.481598,0.002000,0.875696,0.000000
475.000000,0.002000,1.098304,-0.137839,0.025386,0.584627,1.059824,-1.162665,-4.423918,0.321449,-0.445660,0.002000,-0.480242,0.000000
476.000000,0.002000,0.610392,0.286013,0.978567,0.040548,-0.939524,-0.248531,-1.934419,-1.251407,-3.811588,0.002000,0.708695,0.000000
477.000000,0.002000,-1.109478,-0.547518,0.665967,0.054549,-0.985759,2.472046,3.275790,1.588610,-2.181050,0.002000,-0.120407,0.000000
478.000000,0.002000,-2.534554,-1.375184,0.500992,2.048778,-1.206622,-0.087854,1.923573,0.987417,-0.546417,0.002000,-0.721431,0.000000
479.000000,0.002000,-0.480249,0.936108,0.809180,0.941376,0.932369,-2.041324,1.914464,-3.112854,-2.084687,0.002000,1.660608,0.000000
480.000000,0.002000,-1.198093,0.406657,1.201698,0.218471,-1.907101,1.170079,2.405280,-1.135081,-2.871662,0.002000,-1.188424,0.000000
481.000000,0.002000,0.147434,-0.977465,0.879390,0.502646,1.807466,-1.534182,-0.682326,2.761240,-2.962599,0.002000,1.098304,0.000000
482.000000,0.002000,0.635425,0.542611,0.715939,-0.249824,-0.487336,-0.655130,-2.526414,-1.981977,-3.196052,0.002000,0.610392,0.000000
483.000000,0.002000,-2.994613,0.880938,1.808132,0.834485,0.360131,-0.468459,1.270976,-0.377532,-0.757619,0.002000,-1.109478,0.000000
484.000000,0.002000,0.436638,0.192729,0.696439,1.284954,2.228510,-1.016175,-1.718978,-0.594245,-3.351343,0.002000,-2.534554,0.000000
485.000000,0.002000,0.338225,0.651781,0.001471,-0.050806,0.754527,1.486683,-1.560186,-2.214050,0.363555,0.002000,-0.480249,0.000000
486.000000,0.002000,-0.766705,-1.004323,-0.998192,-0.934514,0.769209,-2.328916,2.121118,2.523853,2.673011,0.002000,-1.198093,0.000000
487.000000,0.002000,-1.373043,-1.067742,1.761266,0.254860,0.251200,-0.948702,2.072206,1.409802,-2.119491,0.002000,0.147434,0.000000
488.000000,0.002000,0.754096,-0.625027,-0.390393,0.208954,-0.903575,1.426771,-2.939911,2.634861,1.612977,0.002000,0.635425,0.000000
489.000000,0.002000,0.112558,-0.655545,0.067517,-1.073174,1.707671,1.227264,-0.410880,3.273246,-0.929789,0.002000,-2.994613,0.000000
490.000000,0.002000,0.777604,-0.035743,0.336016,0.219749,-0.523736,-0.197389,-3.170484,0.030832,-1.825157,0.002000,0.436638,0.000000
491.000000,0.002000,0.886492,-0.272132,0.284791,-0.210874,-0.556566,-0.699575,-3.738269,1.689165,-1.405992,0.002000,0.338225,0.000000
492.000000,0.002000,-0.309378,-0.028529,-0.324730,-0.532214,0.321745,1.163236,1.578870,-0.307833,1.314242,0.002000,-0.766705,0.000000
493.000000,0.002000,-0.528870,0.173712,0.566545,-0.627131,0.329681,1.047383,3.021838,-0.978298,-2.162438,0.002000,-1.373043,0.000000
494.000000,0.002000,0.146304,0.498727,-0.737932,0.436418,-1.369678,-0.297604,-0.707091,-2.016761,3.241761,0.002000,0.754096,0.000000
495.000000,0.002000,-1.203735,0.417044,0.687881,0.039922,0.755067,0.535752,3.384399,-1.415380,-1.823456,0.002000,0.112558,0.000000
496.000000,0.002000,0.049857,1.348036,0.907699,0.422642,-0.069547,0.178091,-0.295993,-3.584382,-2.667697,0.002000,0.777604,0.000000
497.000000,0.002000,2.680571,-0.200809,-0.998849,-1.429018,-0.491916,-0.663533,-2.179526,0.163214,0.807972,0.002000,0.886492,0.000000
498.000000,0.002000,-0.740137,-0.565498,0.476031,-0.627864,1.099229,-1.289919,2.723416,3.605485,-2.756318,0.002000,-0.309378,0.000000
499.000000,0.002000,-2.158069,1.318551,-0.239297,0.534888,-1.564581,-0.609316,2.455968,-1.488014,0.306204,0.002000,-0.528870,0.000000
500.000000,0.002000,-0.246794,-1.079343,-0.114226,1.916504,1.686234,1.208610,3.197902,4.367201,0.420990,0.002000,0.146304,0.000000
501.000000,0.002000,0.013240,-0.121945,0.339059,-0.593880,0.251001,1.581865,-0.450151,0.620680,-2.287377,0.002000,-1.203735,0.000000
502.000000,0.002000,-0.589632,-0.895816,0.548328,-0.092065,0.479354,0.461163,2.021379,3.166020,-1.982595,0.002000,0.049857,0.000000
503.000000,0.002000,0.098667,0.197181,1.059027,0.417597,-0.790241,1.353053,-1.195643,-0.731823,-4.715128,0.002000,2.680571,0.000000
504.000000,0.002000,-1.022564,-0.855240,1.257220,2.434537,-0.252203,-0.485272,2.142114,1.867928,-2.628028,0.002000,-0.740137,0.000000
505.000000,0.002000,-1.482883,-1.309412,0.817862,-0.963286,-1.025252,-0.764701,2.442996,2.072179,-1.380692,0.002000,-2.158069,0.000000
506.000000,0.002000,0.238200,0.105232,-0.091659,2.691019,-0.302826,-0.193956,-1.115467,-1.038896,1.237577,0.002000,-0.246794,0.000000
507.000000,0.002000,0.031268,-0.092112,1.355443,-0.682721,0.486510,-1.174880,-0.020877,-0.291874,-5.508175,0.002000,0.013240,0.000000
508.000000,0.002000,-0.398148,-0.161374,1.794449,0.905016,2.623005,0.127802,0.618218,0.282588,-3.710163,0.002000,-0.589632,0.000000
509.000000,0.002000,0.027510,2.232016,-0.104980,0.956247,1.071966,0.771627,-0.085924,-3.346438,0.143945,0.002000,0.098667,0.000000
510.000000,0.002000,1.367415,-1.655344,0.153644,-1.812744,-2.073019,0.258288,-2.190826,2.632786,-0.315749,0.002000,-1.022564,0.000000
511.000000,0.002000,-1.584474,0.844454,-1.212868,0.644131,1.422226,0.533540,2.920654,-1.570103,2.121172,0.002000,-1.482883,0.000000
512.000000,0.002000,0.283770,-0.282196,-1.158203,0.491354,-1.171050,1.217714,-1.209182,1.714194,3.669395,0.002000,0.238200,0.000000
513.000000,0.002000,-1.619360,-0.511040,1.740629,0.623066,1.508362,2.537648,2.049910,0.669515,-2.084378,0.002000,0.031268,0.000000
514.000000,0.002000,-0.293485,0.917222,-0.057043,-1.085565,-1.138439,0.420422,1.811255,-4.103614,0.683502,0.002000,-0.398148,0.000000
515.000000,0.002000,0.876727,-1.826911,-0.403188,-1.216375,1.540932,-1.785040,-1.306699,3.366220,0.714123,0.002000,0.027510,0.000000
516.000000,0.002000,0.949406,-0.163255,-0.086455,0.288101,-1.782419,-0.665667,-3.859095,2.970876,-2.650665,0.002000,1.367415,0.000000
517.000000,0.002000,-0.430462,1.149379,0.297514,0.225539,-0.204558,0.688608,1.819917,-3.844547,-1.379336,0.002000,-1.584474,0.000000
518.000000,0.002000,0.044022,0.643055,0.588225,0.497142,0.425665,-0.285822,-0.716718,-3.219966,-2.462440,0.002000,0.283770,0.000000
519.000000,0.002000,0.212587,1.547031,-0.060288,-0.144284,0.813433,-1.182878,-0.299184,-4.003568,0.384791,0.002000,-1.619360,0.000000
520.000000,0.002000,0.278081,-0.642953,0.150115,1.752208,2.349882,0.164709,-1.787737,2.681614,-0.848677,0.002000,-0.293485,0.000000
521.000000,0.002000,1.587762,-0.643258,-1.133593,1.151599,-0.753185,1.151767,-2.763732,1.036423,2.075035,0.002000,0.876727,0.000000
522.000000,0.002000,0.996760,-0.148766,0.096004,-2.191301,0.983837,0.798877,-4.450937,0.391467,-0.786772,0.002000,0.949406,0.000000
523.000000,0.002000,-0.045113,0.079122,0.850531,1.242028,-0.320568,-0.010654,0.058900,-0.098262,-2.859863,0.002000,-0.430462,0.000000
524.000000,0.002000,-0.839124,-1.011774,0.084968,0.131276,-0.573748,0.614932,1.700262,2.947954,0.188564,0.002000,0.044022,0.000000
525.000000,0.002000,-1.606440,-1.373054,1.866683,-1.382211,-0.353116,-0.564197,1.387683,1.186660,-1.633183,0.002000,0.212587,0.000000
526.000000,0.002000,0.757468,-0.010056,1.238007,-1.156107,0.805051,-0.380344,-2.580227,0.220390,-3.635057,0.002000,0.278081,0.000000
527.000000,0.002000,-1.040599,-0.315603,0.623454,-0.710838,-1.638356,-1.306733,3.560495,0.916545,-2.441215,0.002000,1.587762,0.000000
528.000000,0.002000,0.890672,0.512917,-2.541239,0.805671,-0.977005,1.476655,-0.760513,-0.554255,2.272304,0.002000,0.996760,0.000000
529.000000,0.002000,-0.968082,0.477068,-0.355951,-0.516854,0.314556,-1.148405,3.920119,-2.152572,1.611241,0.002000,-0.045113,0.000000
530.000000,0.002000,2.540232,0.926558,0.558082,0.766440,0.007505,0.021022,-2.347437,-0.850709,-0.556714,0.002000,-0.839124,0.000000
531.000000,0.002000,-1.116950,-0.035297,0.241204,0.582152,-0.079681,-1.546720,2.622015,-0.098714,-0.821409,0.002000,-1.606440,0.000000
532.000000,0.002000,1.127784,0.881131,1.032989,0.133033,0.952948,0.626936,-2.591971,-2.171351,-2.541285,0.002000,0.757468,0.000000
533.000000,0.002000,-0.923912,1.412152,-1.380431,-0.296242,0.432002,-0.555069,1.230851,-2.068277,2.268491,0.002000,-1.040599,0.000000
534.000000,0.002000,-0.535915,0.430771,-0.149892,0.927440,1.197366,1.291072,2.299405,-2.567068,0.448066,0.002000,0.890672,0.000000
535.000000,0.002000,-1.006037,-0.821550,-1.548254,-1.491797,0.072265,0.538322,1.844235,1.534855,2.888827,0.002000,-0.968082,0.000000
536.000000,0.002000,0.531975,1.260569,-0.100394,-0.211145,-1.431204,0.190987,-1.832974,-4.230416,-0.060532,0.002000,2.540232,0.000000
537.000000,0.002000,-0.400349,-1.472323,0.913202,-0.297955,-0.105325,0.454527,0.806640,3.386378,-2.020773,0.002000,-1.116950,0.000000
538.000000,0.002000,2.211304,-1.797456,-1.063433,-0.157364,-2.619285,0.329950,-1.509758,1.257049,0.698409,0.002000,1.127784,0.000000
539.000000,0.002000,-0.679593,-0.564318,0.227346,-0.710032,-0.529027,0.696304,3.047986,2.424525,-0.873814,0.002000,-0.923912,0.000000
540.000000,0.002000,1.614250,1.008597,0.527597,1.001685,0.371384,-0.053793,-2.945763,-2.004580,-0.995220,0.002000,-0.535915,0.000000
541.000000,0.002000,-0.723929,-1.119628,-0.796775,0.527748,0.958044,-0.308075,0.876347,3.093754,2.774253,0.002000,-1.006037,0.000000
542.000000,0.002000,1.548067,-0.061743,-0.446836,0.562116,1.106511,-0.143555,-4.254741,0.418374,0.902580,0.002000,0.531975,0.000000
543.000000,0.002000,-0.183756,0.824618,-1.312850,-1.223827,-0.645379,-0.044643,0.737932,-2.108675,3.634984,0.002000,-0.400349,0.000000
544.000000,0.002000,1.414874,0.156476,-0.216344,2.382481,-0.364311,-0.846673,-4.389278,-0.520913,0.870490,0.002000,2.211304,0.000000
545.000000,0.002000,0.442846,0.218397,-0.344196,1.184954,-1.962526,-0.238241,-1.419041,-1.326077,1.108294,0.002000,-0.679593,0.000000
546.000000,0.002000,-0.252711,-0.868863,0.656391,-0.310847,0.718038,-0.289052,1.710957,3.389034,-2.207894,0.002000,1.614250,0.000000
547.000000,0.002000,-0.531994,-0.956258,0.165864,-1.090836,0.353298,-0.938215,2.397160,3.629624,-0.686893,0.002000,-0.723929,0.000000
548.000000,0.002000,1.329141,-0.048345,-0.608101,0.568941,-0.362613,0.129209,-4.099339,0.041733,1.696587,0.002000,1.548067,0.000000
549.000000,0.002000,0.403896,1.936712,-1.451906,-1.312665,-0.416307,-0.858974,-0.496679,-2.373789,1.931132,0.002000,-0.183756,0.000000
550.000000,0.002000,0.382203,0.205087,1.161534,-0.033869,-1.006426,0.143300,-1.761777,-0.654980,-3.821166,0.002000,1.414874,0.000000
551.000000,0.002000,0.990909,-0.186709,-1.684517,-1.271942,0.466888,-0.305309,-1.942445,0.301990,3.299492,0.002000,0.442846,0.000000
552.000000,0.002000,0.806564,-0.835193,-0.946740,-0.097725,0.223431,-0.047077,-1.813013,3.039428,2.396876,0.002000,-0.252711,0.000000
553.000000,0.002000,1.148351,-0.910850,1.402845,1.046935,-1.302255,-0.869373,-2.010946,1.666333,-2.424168,0.002000,-0.531994,0.000000
554.000000,0.002000,0.335845,0.319118,0.307265,-0.128111,0.855865,0.824288,-1.483343,-0.284526,-0.867032,0.002000,1.329141,0.000000
555.000000,0.002000,-1.638424,-1.776389,0.215553,1.892699,2.120591,-0.334408,2.033903,2.081875,-0.177866,0.002000,0.403896,0.000000
556.000000,0.002000,0.568007,0.082611,-0.821535,0.753766,-0.144128,-0.748237,-1.610335,-0.315209,3.148182,0.002000,0.382203,0.000000
557.000000,0.002000,0.018922,-0.082034,-0.957158,0.441894,0.049246,0.385770,0.420174,-1.248405,4.118826,0.002000,0.990909,0.000000
558.000000,0.002000,1.013972,-1.730276,0.588742,0.649594,-0.939634,-2.272612,-1.746802,2.972118,-1.066200,0.002000,0.806564,0.000000
559.000000,0.002000,0.384323,1.009712,-1.005312,0.525350,-1.372631,0.706652,-1.104020,-2.769062,2.788451,0.002000,1.148351,0.000000
560.000000,0.002000,0.101407,2.171165,0.662074,0.894134,1.097242,-1.217032,-0.095905,-3.185154,-0.947940,0.002000,0.335845,0.000000
561.000000,0.002000,0.100581,0.539161,0.086177,1.472654,1.269332,0.731210,-0.870610,-1.754035,-0.697178,0.002000,-1.638424,0.000000
562.000000,0.002000,2.190898,0.983636,-0.085615,-1.424990,-0.428373,-1.290101,-2.883091,-1.404830,0.231968,0.002000,0.568007,0.000000
563.000000,0.002000,0.252331,-0.390798,1.209850,1.966845,0.669110,-1.557419,-1.261172,1.275043,-3.912782,0.002000,0.018922,0.000000
564.000000,0.002000,-1.406105,-1.604739,1.458715,0.452683,-0.824418,-0.445344,1.489031,1.757049,-1.509074,0.002000,1.013972,0.000000
565.000000,0.002000,2.153120,0.468305,0.112738,1.322123,-0.289283,0.228966,-3.328028,-0.678406,-0.230645,0.002000,0.384323,0.000000
566.000000,0.002000,0.657268,-0.647054,0.171244,-1.047896,0.476117,-0.255133,-2.859280,3.202239,-1.644450,0.002000,0.101407,0.000000
567.000000,0.002000,0.038909,0.626564,-1.557999,-0.433305,-1.123772,0.892876,-0.233390,-1.634392,3.891373,0.002000,0.100581,0.000000
568.000000,0.002000,-0.507035,0.844996,-0.675594,-1.504079,-0.967658,2.435420,1.856344,-3.032492,2.630066,0.002000,2.190898,0.000000
569.000000,0.002000,-0.993361,2.042072,0.038118,0.267967,0.827761,0.329242,1.354890,-2.940224,-0.013328,0.002000,0.252331,0.000000
570.000000,0.002000,-0.578918,-1.692370,0.729346,-0.186832,0.639923,0.024610,1.337725,3.341738,-1.405839,0.002000,-1.406105,0.000000
571.000000,0.002000,0.699136,-0.298760,-1.102230,-0.536517,-2.295435,0.931048,-2.074802,0.911931,4.009038,0.002000,2.153120,0.000000
572.000000,0.002000,-0.024549,-0.835856,-0.942094,-0.123252,-0.756448,-0.408596,0.219593,3.000245,3.334607,0.002000,0.657268,0.000000
573.000000,0.002000,-0.103213,-1.051390,0.246649,1.079867,0.401050,-0.036787,0.366664,4.142875,-0.916276,0.002000,0.038909,0.000000
574.000000,0.002000,0.607993,-0.839632,-1.368245,1.116924,-0.982458,-0.051933,-1.589485,2.107759,3.152770,0.002000,-0.507035,0.000000
575.000000,0.002000,1.561280,-0.940270,-0.659943,1.160168,-0.520497,-1.400729,-3.092951,2.019179,1.314442,0.002000,-0.993361,0.000000
576.000000,0.002000,0.213017,0.599369,-0.256317,0.308466,1.160622,-0.210964,-1.433270,-2.503501,1.519779,0.002000,-0.578918,0.000000
577.000000,0.002000,0.460794,-0.400986,-0.971171,0.417471,0.762977,0.978469,-1.636635,1.223480,3.550100,0.002000,0.699136,0.000000
578.000000,0.002000,1.426317,2.488442,1.695970,0.643863,1.303415,0.056533,-0.739141,-1.323951,-0.912577,0.002000,-0.024549,0.000000
579.000000,0.002000,0.141807,1.833435,0.355704,-0.118143,0.295445,-0.007780,-0.067841,-4.115222,-0.754409,0.002000,-0.103213,0.000000
580.000000,0.002000,-0.477286,0.466380,-0.094393,-2.330464,-0.699291,-0.107790,2.044119,-2.616069,-0.028468,0.002000,0.607993,0.000000
581.000000,0.002000,-0.983118,-0.898322,0.802052,1.650128,-1.147366,-0.460868,2.708325,2.265855,-2.404903,0.002000,1.561280,0.000000
582.000000,0.002000,-1.846532,0.604137,-1.629584,0.015651,1.267215,0.423475,1.992737,-0.765351,1.827610,0.002000,0.213017,0.000000
583.000000,0.002000,-2.121176,-1.838847,1.966764,0.182205,0.433212,0.451696,1.045932,0.902828,-0.974393,0.002000,0.460794,0.000000
584.000000,0.002000,-0.196234,0.086583,1.419255,0.765318,1.607042,1.025318,0.526701,-0.797177,-4.493798,0.002000,1.426317,0.000000
585.000000,0.002000,0.934180,-1.391505,0.869006,-0.259039,-1.047917,-1.608893,-1.775595,2.728507,-1.994422,0.002000,0.141807,0.000000
586.000000,0.002000,0.184181,-0.341678,0.024291,0.182365,-0.967875,-0.786482,-1.206595,3.188567,-0.844510,0.002000,-0.477286,0.000000
587.000000,0.002000,1.279812,-0.885966,0.400886,-0.021297,0.599763,-1.316074,-3.518950,2.890469,-0.392354,0.002000,-0.983118,0.000000
588.000000,0.002000,-0.009657,-1.797165,-0.802253,-0.950602,0.500099,-0.193072,0.410723,3.937018,1.018608,0.002000,-1.846532,0.000000
589.000000,0.002000,0.193214,1.297342,1.001331,-1.200716,-0.972267,-0.901164,-0.642849,-3.114203,-2.643737,0.002000,-2.121176,0.000000
590.000000,0.002000,0.597213,-0.815276,1.801214,0.908753,-1.091832,-0.035408,-1.121582,1.328231,-2.873848,0.002000,-0.196234,0.000000
591.000000,0.002000,0.215240,-1.006366,-0.182905,-1.451468,0.959001,0.660218,-0.272005,3.102592,0.164912,0.002000,0.934180,0.000000
592.000000,0.002000,0.896248,0.007617,0.886865,1.375765,-1.022602,-0.816410,-3.126546,0.451884,-3.235060,0.002000,0.184181,0.000000
593.000000,0.002000,1.103694,0.400531,-0.857703,-1.048358,0.317321,-0.498982,-3.358467,-1.277456,2.743682,0.002000,1.279812,0.000000
594.000000,0.002000,0.135455,0.045166,1.859346,1.505077,-1.353861,-0.347746,-0.346860,-0.131156,-3.937513,0.002000,-0.009657,0.000000
595.000000,0.002000,-1.626322,-0.134822,-0.584094,-1.288401,0.541320,-0.095207,4.009402,0.116922,1.077981,0.002000,0.193214,0.000000
596.000000,0.002000,0.335106,-2.437564,1.114925,-2.545194,0.849685,-0.810274,-0.307892,2.307721,-1.060821,0.002000,0.597213,0.000000
597.000000,0.002000,0.013748,-1.844701,-0.361113,0.363915,1.003871,0.804494,-0.174746,3.962016,0.659214,0.002000,0.215240,0.000000
598.000000,0.002000,0.608962,-1.591448,0.003222,0.276976,-0.804350,-1.058270,-0.975327,3.849336,-0.441141,0.002000,0.896248,0.000000
599.000000,0.002000,-1.057474,-0.555985,0.026738,0.964025,-0.952502,0.250548,3.670620,1.715728,-0.571048,0.002000,1.103694,0.000000
600.000000,0.002000,0.183450,-0.470742,0.272796,1.741807,1.123950,-0.231293,-1.204692,1.530627,-1.310196,0.002000,0.135455,0.000000
601.000000,0.002000,0.817978,-0.278914,1.431568,0.590060,0.298824,-0.925889,-1.760036,0.799943,-3.339147,0.002000,-1.626322,0.000000
602.000000,0.002000,1.462214,-0.428702,-0.637841,-0.746877,0.675437,-1.131447,-3.728745,1.213883,2.191040,0.002000,0.335106,0.000000
603.000000,0.002000,-1.664173,-0.126569,-0.363438,2.255704,0.307633,0.114188,3.652154,0.297505,0.954402,0.002000,0.013748,0.000000
604.000000,0.002000,0.779051,-1.509662,-0.277391,-0.791018,0.918134,-0.292449,-1.790414,3.663921,0.304696,0.002000,0.608962,0.000000
605.000000,0.002000,0.968744,-0.730357,-0.762362,0.195440,-0.089128,0.976672,-3.161463,2.447813,2.321508,0.002000,-1.057474,0.000000
606.000000,0.002000,-1.446940,2.620574,-0.747473,0.874719,-1.025924,0.699070,0.975824,-1.752895,0.526277,0.002000,0.183450,0.000000
607.000000,0.002000,-1.300347,-0.803850,-0.774295,0.503960,-0.248507,-1.155961,3.048104,2.130548,1.807278,0.002000,0.817978,0.000000
608.000000,0.002000,-0.269390,0.825372,-0.298323,-1.540131,-0.522392,0.755347,1.216133,-3.907229,1.032843,0.002000,1.462214,0.000000
609.000000,0.002000,-0.922823,-1.451338,0.021857,0.520944,2.282003,0.624165,2.182356,3.367804,-0.259500,0.002000,-1.664173,0.000000
610.000000,0.002000,0.042539,1.530932,0.092448,0.182023,-0.824946,-1.035492,0.191548,-4.462526,-0.033661,0.002000,0.779051,0.000000
611.000000,0.002000,-0.099008,-1.050654,-0.305953,0.051856,0.655137,1.024231,0.122423,4.036489,1.166159,0.002000,0.968744,0.000000
612.000000,0.002000,-0.438474,-0.370164,-0.959255,1.264734,-0.335495,-0.835070,2.013933,1.124341,3.740655,0.002000,-1.446940,0.000000
613.000000,0.002000,0.538330,-0.142445,-0.200353,0.148953,0.858951,0.627037,-2.121645,0.066586,0.372602,0.002000,-1.300347,0.000000
614.000000,0.002000,-1.714046,0.493644,0.487015,-0.541764,-0.254924,-1.051772,3.551508,-1.180585,-1.061205,0.002000,-0.269390,0.000000
615.000000,0.002000,-0.839129,0.990121,-1.364758,-1.347081,1.723740,0.279340,1.609833,-2.031598,2.725418,0.002000,-0.922823,0.000000
616.000000,0.002000,-0.021870,-0.271207,-1.317175,1.038798,0.365845,1.790961,0.432343,1.308170,4.472229,0.002000,0.042539,0.000000
617.000000,0.002000,0.189703,1.702570,0.067634,0.115607,-0.662695,-0.680264,-0.439453,-4.385301,-0.289597,0.002000,-0.099008,0.000000
618.000000,0.002000,-0.463022,0.447024,0.105720,-0.346182,-0.192432,1.701525,2.590402,-2.039717,0.146688,0.002000,-0.438474,0.000000
619.000000,0.002000,0.027762,-0.425542,1.421976,0.905330,0.127147,1.084347,0.188824,1.360035,-4.231849,0.002000,0.538330,0.000000
620.000000,0.002000,0.456363,-0.528671,-0.108004,-0.369706,-0.822670,0.372800,-0.789441,3.036373,0.633116,0.002000,-1.714046,0.000000
621.000000,0.002000,-0.740867,-0.608291,-0.640726,1.255793,1.396347,0.896459,2.642540,1.990566,2.489156,0.002000,-0.839129,0.000000
622.000000,0.002000,-1.134312,0.777277,-0.291041,-1.006575,1.349059,-0.299232,2.892659,-2.334242,1.181090,0.002000,-0.021870,0.000000
623.000000,0.002000,0.554128,-0.670126,-0.060362,1.170613,1.890765,-1.734872,-1.977771,2.604152,1.600322,0.002000,0.189703,0.000000
624.000000,0.002000,-0.711041,0.719668,-0.248419,-0.147235,0.562689,0.155789,2.669924,-2.609457,0.773712,0.002000,-0.463022,0.000000
625.000000,0.002000,-0.730874,-1.641703,0.275667,-1.552253,-0.778445,-1.126505,1.876701,2.916018,-0.995379,0.002000,0.027762,0.000000
626.000000,0.002000,-0.708385,-0.015779,-0.491730,-0.584108,-0.372953,-1.071107,3.478201,-0.972504,2.488443,0.002000,0.456363,0.000000
627.000000,0.002000,0.954190,0.544145,0.447212,-0.428855,-1.596040,1.395216,-3.803015,-2.487177,-1.485011,0.002000,-0.740867,0.000000
628.000000,0.002000,-0.616121,0.466290,1.714832,1.323944,-2.538161,-1.036024,0.337377,-0.991350,-3.185104,0.002000,-1.134312,0.000000
629.000000,0.002000,-0.832186,0.172339,-1.649217,0.343747,-2.575580,0.032689,1.651590,-0.369764,3.370108,0.002000,0.554128,0.000000
630.000000,0.002000,1.398562,-0.397912,0.782579,-0.226487,-0.718230,1.079327,-4.143280,1.554268,-0.666708,0.002000,-0.711041,0.000000
631.000000,0.002000,-1.723228,1.797539,-0.356872,-1.162769,1.359736,-0.264409,1.977615,-2.033286,0.423372,0.002000,-0.730874,0.000000
632.000000,0.002000,0.545657,0.150818,-0.255471,0.138568,-0.397408,1.222947,-2.576363,-1.183691,0.669718,0.002000,-0.708385,0.000000
633.000000,0.002000,1.685792,-1.648046,0.298714,0.954593,-1.600528,0.438702,-2.126450,2.048544,-0.464890,0.002000,0.954190,0.000000
634.000000,0.002000,0.910646,-0.029856,-0.118171,0.307043,-0.055923,1.711707,-3.233604,-0.111163,1.365957,0.002000,-0.616121,0.000000
635.000000,0.002000,-0.142688,-1.227636,0.038127,1.790186,1.908761,0.253404,0.180264,4.407264,0.039217,0.002000,-0.832186,0.000000
636.000000,0.002000,0.512718,0.068599,-0.272276,-1.011921,-1.472203,0.596667,-2.037170,-0.343316,0.832895,0.002000,1.398562,0.000000
637.000000,0.002000,-0.489725,-0.279297,1.257744,-1.109569,1.192859,0.025156,1.099504,0.130666,-3.827668,0.002000,-1.723228,0.000000
638.000000,0.002000,-2.086635,0.040071,-0.327755,0.432655,-1.157191,-0.687469,3.628603,-0.154746,0.672271,0.002000,0.545657,0.000000
639.000000,0.002000,1.455808,0.055492,1.484926,-0.344797,0.317087,0.767134,-2.243081,-0.012214,-2.617626,0.002000,1.685792,0.000000
640.000000,0.002000,-2.123890,0.459585,0.280058,-1.794799,-1.345694,-1.411055,3.267069,-0.862346,-0.330596,0.002000,0.910646,0.000000
641.000000,0.002000,1.390534,-1.641349,-0.155036,0.107290,0.177009,1.952821,-2.219018,2.658890,0.249240,0.002000,-0.142688,0.000000
642.000000,0.002000,0.066060,-0.495795,1.216578,-0.540539,0.568228,0.658749,-0.441374,1.878388,-4.478295,0.002000,0.512718,0.000000
643.000000,0.002000,-0.338682,2.034763,1.054178,0.956386,1.082231,1.202155,0.467714,-2.807432,-1.492376,0.002000,-0.489725,0.000000
644.000000,0.002000,0.950834,0.559299,-1.063696,0.737892,-0.546399,-1.735149,-2.795292,-1.868904,3.085720,0.002000,-2.086635,0.000000
645.000000,0.002000,-0.431096,0.572751,0.677557,0.623320,-1.362258,-0.499590,1.770589,-1.853476,-2.374877,0.002000,1.455808,0.000000
646.000000,0.002000,1.307184,-0.467441,-0.860153,1.453867,-0.564049,-0.452462,-3.556744,0.973536,2.197956,0.002000,-2.123890,0.000000
647.000000,0.002000,0.859104,-0.809627,0.873312,1.538660,-0.449097,-1.744062,-2.461993,2.350802,-2.429362,0.002000,1.390534,0.000000
648.000000,0.002000,1.199736,0.456153,-0.357579,1.174702,-0.811194,0.821770,-3.949709,-2.038232,1.145438,0.002000,0.066060,0.000000
649.000000,0.002000,0.041082,0.593466,0.010186,-0.593175,1.080222,-0.253804,-0.011413,-2.944519,0.529035,0.002000,-0.338682,0.000000
650.000000,0.002000,2.198296,-0.990671,-1.002669,2.374876,0.156847,0.604885,-2.261356,1.032075,1.008225,0.002000,0.950834,0.000000
651.000000,0.002000,-0.976895,-0.589580,-2.178932,0.172662,1.274444,-0.018025,1.279398,0.703651,2.689139,0.002000,-0.431096,0.000000
652.000000,0.002000,-0.629650,-0.653285,0.078514,1.117715,-0.491636,-0.329063,3.034266,2.753965,-0.162946,0.002000,1.307184,0.000000
653.000000,0.002000,0.417801,-1.240216,0.900054,1.359513,1.162803,0.682712,-1.397610,3.010272,-2.583644,0.002000,0.859104,0.000000
654.000000,0.002000,1.802242,-0.208285,1.574371,-0.220548,-0.295564,0.636427,-2.103926,-0.048973,-2.069046,0.002000,1.199736,0.000000
655.000000,0.002000,0.198989,1.988732,1.117283,-1.040338,0.813744,-0.290392,-0.287080,-2.780066,-1.615557,0.002000,0.041082,0.000000
656.000000,0.002000,-1.563905,0.018627,1.054325,0.276003,0.426283,2.032277,2.904569,-0.035413,-2.361607,0.002000,2.198296,0.000000
657.000000,0.002000,0.030547,-0.036884,1.269765,1.566329,0.322775,-0.034064,-2.166576,-0.614405,-5.139112,0.002000,-0.976895,0.000000
658.000000,0.002000,-0.709854,0.017516,0.323626,0.031952,-0.352812,-0.040728,3.440170,0.203738,-0.867570,0.002000,-0.629650,0.000000
659.000000,0.002000,-0.333791,-0.020129,0.775023,-0.269323,1.417027,1.760068,1.410857,0.404038,-3.349841,0.002000,0.417801,0.000000
660.000000,0.002000,0.432838,-0.808718,-1.104124,0.705451,1.484514,-1.211733,-1.321662,2.517898,3.374756,0.002000,1.802242,0.000000
661.000000,0.002000,-0.789102,0.001248,-0.159940,0.884520,-0.406104,-2.015043,4.322295,0.236586,1.186406,0.002000,0.198989,0.000000
662.000000,0.002000,-0.831957,-0.598150,-1.520039,0.085885,-0.302151,0.217328,2.537346,1.328600,2.650775,0.002000,-1.563905,0.000000
663.000000,0.002000,0.417854,-0.040019,-1.259787,0.149777,1.082545,-0.575187,-1.545479,-0.995064,3.893049,0.002000,0.030547,0.000000
664.000000,0.002000,0.028621,1.342622,-0.739936,0.471010,-0.102701,-1.619426,0.044128,-3.748364,2.074246,0.002000,-0.709854,0.000000
665.000000,0.002000,1.315138,-0.323457,0.197828,-0.723222,-0.936838,-0.256772,-3.973767,0.940187,-0.524513,0.002000,-0.333791,0.000000
666.000000,0.002000,0.097751,1.401523,0.158434,0.274914,-0.679296,0.249718,-2.601803,-4.057774,-2.014744,0.002000,0.432838,0.000000
667.000000,0.002000,-1.141901,-1.310970,-1.532921,-0.185602,-0.558974,0.420011,1.586339,1.853310,2.066645,0.002000,-0.789102,0.000000
668.000000,0.002000,-1.711970,0.046135,-0.958374,1.637263,-1.206254,0.729883,3.365945,-0.603942,1.581311,0.002000,-0.831957,0.000000
669.000000,0.002000,-0.080812,-0.703859,-0.770784,-2.351273,-0.706103,0.645924,0.296274,2.466407,2.855573,0.002000,0.417854,0.000000
670.000000,0.002000,-0.480845,0.703586,0.929145,0.915678,0.238524,0.719101,1.618823,-2.248358,-3.422518,0.002000,0.028621,0.000000
671.000000,0.002000,0.371173,-0.989823,0.643631,0.138167,0.238923,0.894684,-1.290030,3.574072,-2.323428,0.002000,1.315138,0.000000
672.000000,0.002000,0.688897,0.274647,-0.603620,0.814071,0.368724,-0.861154,-2.445211,-1.113318,3.449674,0.002000,0.097751,0.000000
673.000000,0.002000,0.708860,0.422819,-3.116857,-1.254186,0.649856,1.652303,-0.394688,-0.262123,1.849572,0.002000,-1.141901,0.000000
674.000000,0.002000,0.644452,-1.913743,0.663562,-0.742619,-0.260848,1.252471,-1.057416,3.110617,-1.156736,0.002000,-1.711970,0.000000
675.000000,0.002000,-0.154072,1.193612,-0.098161,-0.739449,0.195171,-0.510480,0.704622,-4.463610,0.841811,0.002000,-0.080812,0.000000
676.000000,0.002000,-0.886614,-0.147354,1.059806,-0.171724,-0.472389,0.051479,2.411779,0.886269,-4.356116,0.002000,-0.480845,0.000000
677.000000,0.002000,0.026247,-0.114335,0.743554,1.226601,0.667005,-0.271611,0.186987,1.124740,-3.120925,0.002000,0.371173,0.000000
678.000000,0.002000,0.210359,-0.005927,1.366060,-1.621139,-0.770947,-0.406322,-0.851014,0.221956,-4.355962,0.002000,0.688897,0.000000
679.000000,0.002000,1.555114,0.613326,-0.285959,1.045094,0.670130,0.466007,-3.489883,-1.681705,0.940360,0.002000,0.708860,0.000000
680.000000,0.002000,1.496911,1.183120,0.718897,-0.311161,0.456947,-0.375584,-2.522618,-2.380885,-1.342468,0.002000,0.644452,0.000000
681.000000,0.002000,-1.216077,0.140672,-0.743672,0.293582,-0.729983,-0.377346,3.499374,-0.521325,2.413764,0.002000,-0.154072,0.000000
682.000000,0.002000,-0.159012,0.240057,0.100159,-0.058885,0.519153,0.625395,1.019529,-0.904591,-0.473912,0.002000,-0.886614,0.000000
683.000000,0.002000,-0.475175,1.272954,-1.696131,0.539580,-1.154079,1.152897,0.872911,-2.231394,2.417355,0.002000,0.026247,0.000000
684.000000,0.002000,0.730184,-1.857483,0.382598,-0.755051,-0.436110,-0.851759,-1.456561,3.400331,-0.931013,0.002000,0.210359,0.000000
685.000000,0.002000,-0.886904,0.878304,0.086453,-0.265003,-0.455827,-0.121882,3.194961,-3.100526,-0.630880,0.002000,1.555114,0.000000
686.000000,0.002000,0.247706,-1.018279,-0.654570,-0.163288,-1.733777,-0.245450,-2.026142,3.354162,1.183878,0.002000,1.496911,0.000000
687.000000,0.002000,0.207217,0.583570,2.929096,-0.484149,-0.207675,0.951049,-0.223661,-0.409329,-2.141165,0.002000,-1.216077,0.000000
688.000000,0.002000,0.222858,0.976038,-1.556934,-0.189551,1.717850,-0.064877,1.552634,-2.338787,2.928073,0.002000,-0.159012,0.000000
689.000000,0.002000,-1.329892,-0.355495,-1.197428,-1.313474,0.022083,1.555088,2.554017,0.714926,2.459042,0.002000,-0.475175,0.000000
690.000000,0.002000,1.486399,-0.410219,1.382182,1.154120,0.946354,0.854275,-2.426802,0.739060,-2.558705,0.002000,0.730184,0.000000
691.000000,0.002000,1.486782,0.042780,0.501800,-0.328491,-1.696475,0.832513,-4.093927,-0.383337,-1.438534,0.002000,-0.886904,0.000000
692.000000,0.002000,-0.056099,0.538437,0.483342,0.569885,0.168315,0.413247,0.202108,-2.169842,-1.704020,0.002000,0.247706,0.000000
693.000000,0.002000,-0.123650,0.504970,1.723696,-0.472765,0.907384,0.362487,0.067623,-1.087887,-1.035105,0.002000,0.207217,0.000000
694.000000,0.002000,0.713016,0.325800,0.124770,-0.523782,0.529662,-1.591542,-1.954592,-1.895278,0.047668,0.002000,0.222858,0.000000
695.000000,0.002000,-1.012673,-1.027297,0.323357,0.789211,1.204281,-1.215754,4.745200,3.630891,-0.970425,0.002000,-1.329892,0.000000
696.000000,0.002000,-1.369391,-0.766328,1.281511,-0.065984,-1.097713,1.877268,2.279475,1.391179,-2.185300,0.002000,1.486399,0.000000
697.000000,0.002000,1.914230,-1.665956,1.626650,0.019971,-1.015372,0.990587,-1.360635,1.186789,-1.167417,0.002000,1.486782,0.000000
698.000000,0.002000,-0.211438,-0.015005,-0.113412,0.267904,-0.615588,1.676998,1.496300,0.793816,0.227943,0.002000,-0.056099,0.000000
699.000000,0.002000,1.080544,-1.607677,0.456164,2.221133,1.242696,-1.143254,-2.413822,2.834323,-0.932828,0.002000,-0.123650,0.000000
700.000000,0.002000,-0.944870,0.570789,1.542796,-1.305590,0.156312,1.584124,1.810412,-1.081900,-3.178494,0.002000,0.713016,0.000000
701.000000,0.002000,-0.000417,0.374155,0.409552,-2.245300,0.408426,2.392539,-0.389038,-1.136993,-2.105702,0.002000,-1.012673,0.000000
702.000000,0.002000,-0.799593,1.511639,1.706468,-1.594470,-0.275380,0.703843,1.022991,-1.945422,-2.127084,0.002000,-1.369391,0.000000
703.000000,0.002000,0.701783,0.073285,-0.461894,-2.163419,1.552396,0.043108,-1.767614,-0.637945,1.934076,0.002000,1.914230,0.000000
704.000000,0.002000,-0.626490,1.710837,1.414415,-0.638655,0.156331,0.448392,1.016615,-2.379942,-1.886786,0.002000,-0.211438,0.000000
705.000000,0.002000,-0.063661,-1.579931,-2.832012,-2.900254,-0.212476,1.264644,0.047776,0.927699,1.663924,0.002000,1.080544,0.000000
706.000000,0.002000,-1.083427,-0.130620,1.400689,0.967149,0.123583,-0.623908,2.267666,0.252794,-3.265374,0.002000,-0.944870,0.000000
707.000000,0.002000,-0.651656,0.504815,1.303181,0.178140,-1.247734,-0.878610,1.579328,-1.613628,-3.656913,0.002000,-0.000417,0.000000
708.000000,0.002000,0.128536,-0.142448,-1.308764,0.034075,0.960545,0.355616,-0.620809,-0.677510,4.157384,0.002000,-0.799593,0.000000
709.000000,0.002000,-1.202475,0.416100,-0.200908,-3.092134,0.345306,-2.201986,4.267262,-1.750103,0.674336,0.002000,0.701783,0.000000
710.000000,0.002000,0.122531,-0.047278,0.664144,1.597793,0.058706,-1.235418,-0.046175,-0.532642,-2.243913,0.002000,-0.626490,0.000000
711.000000,0.002000,-0.784687,-0.335581,1.896182,-0.532178,-0.884617,1.342921,1.270721,0.593679,-3.197721,0.002000,-0.063661,0.000000
712.000000,0.002000,-0.799786,-0.281575,-0.589387,0.188948,-0.712515,-0.984745,2.614012,1.305479,2.662813,0.002000,-1.083427,0.000000
713.000000,0.002000,0.444781,1.022392,-0.498212,-0.340268,-1.977171,1.422765,-1.715482,-3.170580,2.030005,0.002000,-0.651656,0.000000
714.000000,0.002000,-0.431414,-0.278982,0.529834,1.866399,-0.678771,0.008400,1.586833,0.382109,-2.494013,0.002000,0.128536,0.000000
715.000000,0.002000,-0.739395,-0.375960,-2.372194,1.412032,-0.879609,-0.853054,0.763541,0.484538,2.735594,0.002000,-1.202475,0.000000
716.000000,0.002000,-1.381745,-0.112444,0.897864,-0.223598,0.768371,0.353176,3.367519,0.423452,-2.123836,0.002000,0.122531,0.000000
717.000000,0.002000,0.295076,-1.098768,-1.400256,-0.842320,0.809853,0.296754,-0.446394,2.590066,3.082512,0.002000,-0.784687,0.000000
718.000000,0.002000,0.174680,-1.652804,1.065927,0.174330,0.661728,1.591680,-0.337280,2.951294,-1.976781,0.002000,-0.799786,0.000000
719.000000,0.002000,0.063896,-1.607320,-0.965954,0.333661,-0.327913,-1.156125,-0.435854,2.988838,2.107935,0.002000,0.444781,0.000000
720.000000,0.002000,-0.724311,-0.773193,-1.489933,0.821905,-0.007700,-0.075806,1.468804,1.864674,3.371503,0.002000,-0.431414,0.000000
721.000000,0.002000,-0.874663,-0.684402,-0.711286,0.967096,-0.937099,0.172772,2.849723,2.295028,2.663247,0.002000,-0.739395,0.000000
722.000000,0.002000,1.127957,0.104828,-0.993257,-1.071112,1.255935,0.672606,-3.619707,-0.102934,2.741832,0.002000,-1.381745,0.000000
723.000000,0.002000,-0.334622,-0.879557,-0.300007,-0.160371,-1.550161,-0.073924,0.484427,2.597027,1.464459,0.002000,0.295076,0.000000
724.000000,0.002000,0.875509,0.252271,2.285601,-0.649795,0.320792,-1.162897,1.914998,-1.232696,-2.458761,0.002000,0.174680,0.000000
725.000000,0.002000,0.375927,-0.913595,0.809741,0.420682,0.744695,-0.578703,-1.511125,3.244176,-3.217291,0.002000,0.063896,0.000000
726.000000,0.002000,1.079931,1.094167,-1.094241,-0.337314,1.421253,-1.668486,-2.344900,-2.067427,2.216572,0.002000,-0.724311,0.000000
727.000000,0.002000,-0.147637,1.131812,-1.684729,-0.176234,0.353076,0.405163,0.311442,-1.972206,3.139810,0.002000,-0.874663,0.000000
728.000000,0.002000,-0.499417,-1.426938,-0.932570,-1.294016,0.960633,0.443743,1.255153,3.255185,2.080304,0.002000,1.127957,0.000000
729.000000,0.002000,-1.012457,1.250570,-0.234538,-0.231456,-0.069706,-0.203442,2.683949,-3.003168,0.582157,0.002000,-0.334622,0.000000
730.000000,0.002000,-0.863356,-1.035606,0.141667,-0.746864,0.905911,1.164745,2.543651,3.561731,-1.329109,0.002000,0.875509,0.000000
731.000000,0.002000,-0.011136,1.344074,0.500017,-0.922751,-0.726473,-0.713816,-0.070514,-4.299249,-1.362765,0.002000,0.375927,0.000000
732.000000,0.002000,-1.431798,-0.628981,1.070073,-0.780270,0.735573,-0.729021,2.600232,1.589371,-2.170262,0.002000,1.079931,0.000000
733.000000,0.002000,-0.621083,1.734572,-1.098289,0.546981,-0.784249,0.494043,1.077006,-2.517330,1.893082,0.002000,-0.147637,0.000000
734.000000,0.002000,0.572613,-0.861216,-0.509595,-0.931845,0.301694,-1.110077,-1.953174,3.414002,1.465468,0.002000,-0.499417,0.000000
735.000000,0.002000,1.098582,-0.127067,0.813452,0.405476,-0.749097,0.545566,-2.970419,0.489421,-2.615297,0.002000,-1.012457,0.000000
736.000000,0.002000,0.473291,0.753866,-0.888188,-2.067697,0.162208,1.210873,-1.320499,-2.270430,3.000080,0.002000,-0.863356,0.000000
737.000000,0.002000,-0.221574,0.424253,-0.849073,-0.594214,-2.108414,-0.381526,1.730024,-2.132441,2.798360,0.002000,-0.011136,0.000000
738.000000,0.002000,1.629500,-0.777228,-0.300004,0.626769,1.291191,-1.421131,-3.400212,1.950576,0.527872,0.002000,-1.431798,0.000000
739.000000,0.002000,-1.006559,-2.143308,1.796919,-0.079280,1.246906,-1.240075,0.715505,1.592181,-1.355497,0.002000,-0.621083,0.000000
740.000000,0.002000,-0.204339,-0.447915,-0.198715,-0.628265,0.621466,-1.967177,1.578752,1.782304,-0.319392,0.002000,0.572613,0.000000
741.000000,0.002000,1.419864,-0.965107,0.679568,0.929915,-0.122513,-1.683217,-3.141668,2.355737,-1.544652,0.002000,1.098582,0.000000
742.000000,0.002000,-0.423788,-0.596671,0.567058,0.329251,-0.673893,0.370902,1.459564,2.797452,-2.686601,0.002000,0.473291,0.000000
743.000000,0.002000,0.988241,-0.513903,-0.768849,1.657643,1.843292,0.132421,-3.276002,1.430328,2.516755,0.002000,-0.221574,0.000000
744.000000,0.002000,-1.169096,1.103504,-0.575256,0.029715,-0.761648,-2.123544,2.782300,-2.808721,1.439188,0.002000,1.629500,0.000000
745.000000,0.002000,-1.849131,1.409952,-1.369860,0.184754,-0.586649,-1.150164,1.743848,-1.376515,1.343234,0.002000,-1.006559,0.000000
746.000000,0.002000,0.779461,0.183429,0.287915,-0.194112,0.246144,-0.203291,-3.261016,-1.108886,-1.611352,0.002000,-0.204339,0.000000
747.000000,0.002000,-0.584375,0.365591,-1.667780,1.031424,0.001039,-0.865966,1.353394,-0.617479,3.743883,0.002000,1.419864,0.000000
748.000000,0.002000,0.588038,1.557010,0.884027,-0.736737,-1.244570,0.512748,-1.234547,-3.194071,-1.895835,0.002000,-0.423788,0.000000
749.000000,0.002000,-2.019540,-0.984209,-0.187795,1.200304,-0.954589,0.312593,2.819066,1.480166,0.233594,0.002000,0.988241,0.000000
750.000000,0.002000,0.486937,-0.106653,-0.493214,-1.127170,-0.012943,-0.743927,-1.265297,0.632267,2.180858,0.002000,-1.169096,0.000000
751.000000,0.002000,0.595300,1.164152,-0.232294,-0.215826,0.993590,0.683287,-2.168001,-3.370312,0.949212,0.002000,-1.849131,0.000000
752.000000,0.002000,0.728930,-2.579051,-0.937509,1.182679,-0.679009,-0.733764,-0.632692,2.184440,0.740346,0.002000,0.779461,0.000000
753.000000,0.002000,-0.321259,-0.488566,0.332798,-0.391958,1.230156,0.142112,1.185874,2.073505,-1.518669,0.002000,-0.584375,0.000000
754.000000,0.002000,1.013751,0.506669,-0.622225,-1.918528,-0.142220,0.014402,-2.635849,-3.066162,4.052134,0.002000,0.588038,0.000000
755.000000,0.002000,-1.522768,0.556964,-1.838177,-1.224479,0.891032,0.800183,1.806361,-0.672340,2.234634,0.002000,-2.019540,0.000000
756.000000,0.002000,0.653037,-0.188449,-1.175835,-0.622638,-1.972969,-0.371837,-1.941678,0.330618,3.921271,0.002000,0.486937,0.000000
757.000000,0.002000,0.287257,-0.002876,-0.036597,-0.645094,1.472765,0.404213,-0.431545,-1.024023,1.927304,0.002000,0.595300,0.000000
758.000000,0.002000,-0.084223,0.419524,0.924434,-0.230036,-0.183759,-0.338997,1.019186,-1.544544,-5.001186,0.002000,0.728930,0.000000
759.000000,0.002000,0.496615,1.012133,-0.044140,1.052167,-0.587828,0.814798,-2.424081,-3.591876,-0.097965,0.002000,-0.321259,0.000000
760.000000,0.002000,1.618459,0.571110,-0.543694,0.201261,0.530546,-0.070439,-3.879006,-1.423459,1.366537,0.002000,1.013751,0.000000
761.000000,0.002000,-1.093895,0.205797,-1.306522,0.678098,-0.545763,-1.015484,2.134014,-1.183747,4.042096,0.002000,-1.522768,0.000000
762.000000,0.002000,-0.973376,0.239087,-0.607887,0.395475,-0.878098,0.686257,3.774482,-1.237185,2.282454,0.002000,0.653037,0.000000
763.000000,0.002000,-0.933316,-0.034475,0.072678,-1.672922,0.803076,0.417764,3.814074,0.417973,-0.736604,0.002000,0.287257,0.000000
764.000000,0.002000,-0.205834,-0.377547,0.854643,0.551507,-0.878093,-0.364450,0.695433,1.322769,-3.679828,0.002000,-0.084223,0.000000
765.000000,0.002000,0.342427,-0.223426,2.464322,-0.763987,-0.258159,-0.009734,-0.441267,0.295380,-2.782926,0.002000,0.496615,0.000000
766.000000,0.002000,0.193832,1.132005,-0.560981,0.132801,-1.342858,-0.561311,-0.328680,-3.716849,2.277414,0.002000,1.618459,0.000000
767.000000,0.002000,-1.362941,-0.791757,-0.268010,0.003009,-0.276498,0.322588,3.718553,2.387896,1.077321,0.002000,-1.093895,0.000000
768.000000,0.002000,-0.496608,1.336386,-0.120041,1.009204,0.234923,-1.156919,1.224619,-4.299841,1.036297,0.002000,-0.973376,0.000000
769.000000,0.002000,0.461469,-0.046481,-0.433554,0.320921,0.806186,0.932845,-1.239523,0.181713,2.461710,0.002000,-0.933316,0.000000
770.000000,0.002000,0.037996,1.714051,-0.767949,1.512150,1.408369,-0.748351,-0.498976,-3.688173,1.687930,0.002000,-0.205834,0.000000
771.000000,0.002000,0.766990,-1.026007,-0.459626,1.396342,-0.216941,-1.057768,-2.477156,3.539283,1.363059,0.002000,0.342427,0.000000
772.000000,0.002000,0.003583,0.326375,1.483129,0.261853,0.082049,0.229693,-0.143839,-0.692352,-4.032170,0.002000,0.193832,0.000000
773.000000,0.002000,-0.050083,-0.843616,0.650042,1.163677,-0.649774,-0.768363,-0.709240,3.091593,-3.005124,0.002000,-1.362941,0.000000
774.000000,0.002000,-0.364170,0.238682,-0.116222,0.333350,0.844378,1.103563,-0.590637,-4.362016,0.831864,0.002000,-0.496608,0.000000
775.000000,0.002000,-1.943457,0.508299,0.583368,1.177823,0.957915,-0.828122,3.038588,-1.051930,-0.991469,0.002000,0.461469,0.000000
776.000000,0.002000,0.926605,1.800463,-1.195104,0.498223,-1.777894,-0.731664,-1.326011,-2.376024,1.662856,0.002000,0.037996,0.000000
777.000000,0.002000,0.516507,0.409295,-0.419082,-1.655066,0.135318,0.459837,-2.317976,-3.130412,2.070746,0.002000,0.766990,0.000000
778.000000,0.002000,0.397106,0.499647,-1.218684,-0.005997,0.667240,0.636609,-1.124355,-1.391930,3.836173,0.002000,0.003583,0.000000
779.000000,0.002000,0.246223,-0.917984,-0.651856,0.350796,0.228058,0.543362,-0.740076,3.724279,2.375422,0.002000,-0.050083,0.000000
780.000000,0.002000,-1.774745,-0.473361,-0.203571,0.643128,1.085191,0.845917,3.702508,1.122563,0.520991,0.002000,-0.364170,0.000000
781.000000,0.002000,0.549857,0.000900,-1.542288,1.232215,0.993479,0.176663,-1.409305,-0.175464,4.241252,0.002000,-1.943457,0.000000
782.000000,0.002000,0.862148,-0.118587,0.488371,0.107464,-0.806611,1.897250,-2.909068,0.689655,-3.624278,0.002000,0.926605,0.000000
783.000000,0.002000,0.965936,1.422605,1.961227,-0.608052,-0.453747,0.504911,-0.933821,-1.451048,-1.989333,0.002000,0.516507,0.000000
784.000000,0.002000,-0.072239,0.311124,-1.078361,-0.084225,0.848535,0.938378,-0.212023,-1.399279,4.468396,0.002000,0.397106,0.000000
785.000000,0.002000,1.061600,-1.184887,-1.805252,-0.198741,2.558844,0.911867,-1.359367,1.482296,2.363715,0.002000,0.246223,0.000000
786.000000,0.002000,0.830386,-0.521697,0.777607,-1.242953,0.461735,1.251861,-2.691596,1.868263,-2.717424,0.002000,-1.774745,0.000000
787.000000,0.002000,0.408075,-1.630003,-2.719679,0.601529,-0.418966,-0.307812,-0.280130,0.998678,1.679796,0.002000,0.549857,0.000000
788.000000,0.002000,-1.096602,0.016491,-1.221776,0.063280,1.347337,1.331708,2.691841,-0.112098,3.026702,0.002000,0.862148,0.000000
789.000000,0.002000,-0.652761,-1.458941,0.169878,0.810131,1.318737,-0.072358,1.779542,3.691985,-0.545617,0.002000,0.965936,0.000000
790.000000,0.002000,0.090826,-0.481393,1.397065,-0.699464,0.857090,-1.563711,-0.489642,1.858331,-3.940152,0.002000,-0.072239,0.000000
791.000000,0.002000,1.497715,0.565267,-1.799771,-0.229775,-1.236838,0.498449,-1.909300,-0.649501,2.245519,0.002000,1.061600,0.000000
792.000000,0.002000,-1.104690,0.407130,-0.628558,-1.707124,-1.108369,0.056224,3.338268,-1.276167,2.011825,0.002000,0.830386,0.000000
793.000000,0.002000,-0.487091,0.898967,0.510875,-0.486624,1.740307,0.068372,2.072414,-3.086604,-2.232898,0.002000,0.408075,0.000000
794.000000,0.002000,1.314154,-0.429209,1.375225,-1.662424,1.036953,0.417301,-2.368209,0.951395,-2.744315,0.002000,-1.096602,0.000000
795.000000,0.002000,-0.554131,1.499491,0.105835,-0.942254,-0.305764,-0.022571,1.371801,-4.226214,-0.378575,0.002000,-0.652761,0.000000
796.000000,0.002000,-0.860510,-1.631220,-0.301472,-2.335280,-1.298113,0.115841,1.914994,3.412864,0.663301,0.002000,0.090826,0.000000
797.000000,0.002000,-0.256233,0.857662,-0.110591,-1.706741,-0.849589,-0.200394,1.369357,-3.753853,1.325398,0.002000,1.497715,0.000000
798.000000,0.002000,-0.432432,1.077037,-0.224827,-2.666076,-0.137370,1.875857,1.426608,-3.544909,0.416387,0.002000,-1.104690,0.000000
799.000000,0.002000,-0.576242,0.574609,-0.489828,0.422437,-0.999555,0.745784,2.190280,-2.144372,2.453429,0.002000,-0.487091,0.000000
800.000000,0.002000,0.658802,-0.596917,-0.222959,-0.616292,-0.633278,-0.334690,-4.302924,1.814054,0.889132,0.002000,1.314154,0.000000
801.000000,0.002000,0.152177,-0.374126,-0.013451,-1.767379,0.153492,0.554667,-0.423102,2.834586,0.711891,0.002000,-0.554131,0.000000
802.000000,0.002000,0.815472,0.410602,0.480970,1.583233,0.008135,1.089211,-2.830333,-1.678650,-1.258691,0.002000,-0.860510,0.000000
803.000000,0.002000,-0.635430,0.852830,0.669562,0.969040,-0.380846,-1.370486,2.353686,-3.099083,-2.683551,0.002000,-0.256233,0.000000
804.000000,0.002000,1.004419,-0.726366,-0.172459,-1.223955,1.338420,-1.757708,-3.340891,3.008422,0.429354,0.002000,-0.432432,0.000000
805.000000,0.002000,0.633534,-0.608815,-0.226122,-0.457166,-0.216789,0.288995,-0.464787,3.851610,1.693574,0.002000,-0.576242,0.000000
806.000000,0.002000,1.925806,1.951761,1.239941,-1.513293,-0.050516,-1.050829,-1.350204,-1.431124,-0.869743,0.002000,0.658802,0.000000
807.000000,0.002000,0.938585,-1.019251,0.512562,0.917805,-0.514290,0.644963,-2.682377,2.855004,-1.582243,0.002000,0.152177,0.000000
808.000000,0.002000,-0.359117,-1.058572,-0.509006,1.278332,0.020411,-0.975750,2.868447,3.014360,1.138853,0.002000,0.815472,0.000000
809.000000,0.002000,0.115665,-0.547356,-0.550799,0.871892,1.277508,-0.848607,-0.565975,2.371074,2.602672,0.002000,-0.635430,0.000000
810.000000,0.002000,0.792041,0.144106,0.233458,-0.737516,-0.848158,0.291069,-3.626110,-0.507427,-1.234669,0.002000,1.004419,0.000000
811.000000,0.002000,0.111872,-0.675703,-1.370572,-1.405577,-2.437043,-0.242115,-0.307865,1.794802,4.067101,0.002000,0.633534,0.000000
812.000000,0.002000,0.310565,-0.507037,-2.010782,-0.165916,0.063435,0.846258,-0.717986,0.607242,3.638931,0.002000,1.925806,0.000000
813.000000,0.002000,-0.392567,-1.092218,0.698650,-0.331703,-0.041025,0.878338,1.450299,3.453089,-2.109393,0.002000,0.938585,0.000000
814.000000,0.002000,0.521625,0.496893,-0.665042,-2.083305,1.941567,-0.480991,-1.786769,-2.515995,2.560986,0.002000,-0.359117,0.000000
815.000000,0.002000,0.731552,0.319650,-0.409855,0.977908,-0.163350,-1.057704,-4.525622,-0.893258,2.893254,0.002000,0.115665,0.000000
816.000000,0.002000,-0.453337,0.892708,-0.473604,-1.011577,-0.995136,-0.823484,1.695428,-3.089901,1.994531,0.002000,0.792041,0.000000
817.000000,0.002000,0.303656,1.033957,1.909343,1.329969,-0.300449,-0.362986,-0.450584,-1.582904,-2.820552,0.002000,0.111872,0.000000
818.000000,0.002000,1.663873,0.900823,-1.505911,-1.168222,0.033286,0.058449,-2.116492,-1.104542,1.861808,0.002000,0.310565,0.000000
819.000000,0.002000,-0.689048,-0.548087,1.653150,0.561919,-1.435499,-0.634828,1.381066,1.041915,-3.460428,0.002000,-0.392567,0.000000
820.000000,0.002000,-0.699318,0.386166,0.100867,0.565307,-0.739379,0.499223,3.305363,-1.778349,-1.119294,0.002000,0.521625,0.000000
821.000000,0.002000,-0.935127,0.381824,0.398296,-0.827747,-0.887704,-0.401060,3.436583,-1.575791,-1.158608,0.002000,0.731552,0.000000
822.000000,0.002000,-1.255775,1.222877,-2.086510,0.196624,1.256723,1.716009,1.354563,-1.015260,2.053189,0.002000,-0.453337,0.000000
823.000000,0.002000,-0.590757,0.971970,-1.193258,0.661388,0.942293,0.606580,1.490617,-2.209822,2.802563,0.002000,0.303656,0.000000
824.000000,0.002000,0.350266,-1.296360,-0.093024,0.125866,0.100288,0.399567,-0.914041,4.216550,0.209736,0.002000,1.663873,0.000000
825.000000,0.002000,-2.313773,-0.842572,-1.542921,0.534577,1.502265,-0.679523,1.817921,0.679875,1.264789,0.002000,-0.689048,0.000000
826.000000,0.002000,-0.401764,-0.415231,-0.673664,1.224770,0.335574,-1.924173,1.794257,2.118480,2.697470,0.002000,-0.699318,0.000000
827.000000,0.002000,0.797913,-0.886880,0.634387,-0.527404,0.385999,-0.190281,-2.851761,2.836335,-2.072931,0.002000,-0.935127,0.000000
828.000000,0.002000,1.629276,0.139064,-0.857670,2.081278,-0.652164,-0.952129,-3.438119,-0.505973,2.000506,0.002000,-1.255775,0.000000
829.000000,0.002000,-1.249339,-0.709785,0.704643,-0.116052,1.286106,-0.918587,3.293557,1.992099,-1.813477,0.002000,-0.590757,0.000000
830.000000,0.002000,0.155591,0.936795,0.770331,-0.095685,0.766655,0.070590,-0.403051,-3.284973,-2.931532,0.002000,0.350266,0.000000
831.000000,0.002000,0.140811,0.473488,1.855246,-0.917322,-0.638617,-0.287546,-0.162766,-0.686692,-3.306219,0.002000,-2.313773,0.000000
832.000000,0.002000,1.415656,-0.302746,0.989679,0.475956,-0.299178,1.041182,-3.684740,0.706414,-2.660662,0.002000,-0.401764,0.000000
833.000000,0.002000,0.585851,1.136388,0.671617,-0.238862,-1.909609,0.928202,-1.887677,-2.997219,-2.029510,0.002000,0.797913,0.000000
834.000000,0.002000,-0.974167,-1.619685,0.572627,0.191151,1.070583,-1.355788,1.738393,3.020003,-1.121016,0.002000,1.629276,0.000000
835.000000,0.002000,1.902618,-0.775664,-0.188090,1.548051,-0.044668,1.544255,-3.489106,1.469772,0.252377,0.002000,-1.249339,0.000000
836.000000,0.002000,-1.035748,1.177830,-2.305167,-0.646622,0.887292,-1.220750,0.877148,-1.021161,2.008595,0.002000,0.155591,0.000000
837.000000,0.002000,-2.263660,0.375020,-0.082344,1.092896,1.761328,2.259226,2.951863,-1.718289,-0.371392,0.002000,0.140811,0.000000
838.000000,0.002000,-0.479623,-0.301095,0.536988,0.067663,-1.428172,0.019491,2.988208,1.119670,-2.640219,0.002000,1.415656,0.000000
839.000000,0.002000,-0.413804,-1.096925,-0.927363,-0.790215,-0.263411,1.209366,1.407912,3.277302,2.647074,0.002000,0.585851,0.000000
840.000000,0.002000,0.888339,-0.524742,-1.385278,1.713842,0.456884,-2.792917,-2.430710,1.193799,3.488788,0.002000,-0.974167,0.000000
841.000000,0.002000,0.102178,0.504995,1.328961,2.027985,1.982757,-0.340061,-0.729036,-1.423574,-4.004703,0.002000,1.902618,0.000000
842.000000,0.002000,0.217903,-0.659711,0.474008,-2.519525,0.107741,1.209237,-0.954093,2.559737,-2.439665,0.002000,-1.035748,0.000000
843.000000,0.002000,0.727175,-0.038905,-0.044599,1.384964,0.474179,0.672072,-2.954599,-0.055012,0.306450,0.002000,-2.263660,0.000000
844.000000,0.002000,0.260133,-0.069856,0.250114,-1.368216,1.362645,3.092792,-2.272283,1.218153,-1.604522,0.002000,-0.479623,0.000000
845.000000,0.002000,-1.021913,-1.150438,-0.836111,0.280820,-0.068037,0.927879,2.497238,2.728632,1.962883,0.002000,-0.413804,0.000000
846.000000,0.002000,0.642211,0.258798,1.040239,-0.383229,-1.069463,-1.323696,-2.168469,-0.762163,-4.290672,0.002000,0.888339,0.000000
847.000000,0.002000,-0.186691,-1.143641,1.144554,0.229403,-0.100347,0.583720,0.520135,2.990956,-3.240782,0.002000,0.102178,0.000000
848.000000,0.002000,-0.018767,1.283455,0.597946,1.440170,0.660086,-0.158750,-0.458553,-3.930703,-2.215953,0.002000,0.217903,0.000000
849.000000,0.002000,2.188619,-0.219773,0.900724,-1.051033,2.856352,0.310763,-2.988770,0.613121,-1.239485,0.002000,0.727175,0.000000
850.000000,0.002000,0.891364,-0.555126,-0.172482,0.079314,-0.701483,-2.204816,-3.801241,2.428433,0.263686,0.002000,0.260133,0.000000
851.000000,0.002000,-1.461738,-1.548796,0.126569,-0.163994,0.851016,0.889779,2.372346,2.446562,-0.130884,0.002000,-1.021913,0.000000
852.000000,0.002000,0.793007,0.638024,0.340025,-0.250943,0.765668,-1.838466,-3.193024,-2.719907,-1.105751,0.002000,0.642211,0.000000
853.000000,0.002000,0.863017,-0.589698,-0.272533,-0.929083,0.844285,0.071478,-3.529141,2.487894,1.436092,0.002000,-0.186691,0.000000
854.000000,0.002000,0.737522,0.433119,-0.210189,0.743145,0.752660,-0.300028,-3.554455,-1.518674,0.835835,0.002000,-0.018767,0.000000
855.000000,0.002000,1.320794,-1.292001,-0.518679,-0.891793,0.378119,-0.892431,-2.538479,2.508096,1.040559,0.002000,2.188619,0.000000
856.000000,0.002000,-0.283398,0.816535,0.002385,-0.725845,1.225556,0.435372,2.527834,-3.816999,-0.409559,0.002000,0.891364,0.000000
857.000000,0.002000,-1.261492,0.514004,1.087546,-1.061209,-1.065215,0.106868,2.644972,-1.776581,-2.350466,0.002000,-1.461738,0.000000
858.000000,0.002000,0.739305,0.619155,-1.874313,1.561636,-0.524256,0.964388,-1.214843,-1.122233,2.944117,0.002000,0.793007,0.000000
859.000000,0.002000,-0.899886,0.482081,-0.054888,0.791573,-0.368732,-1.534110,3.919271,-1.812831,-0.347155,0.002000,0.863017,0.000000
860.000000,0.002000,0.522558,-1.266343,-0.061495,-0.686682,-0.076668,-0.507560,-1.721722,4.023793,0.254494,0.002000,0.737522,0.000000
861.000000,0.002000,-1.389781,-1.953679,0.295779,0.049256,-1.580572,0.402810,1.479610,2.478950,0.230713,0.002000,1.320794,0.000000
862.000000,0.002000,0.842589,0.245616,-0.032996,0.529456,-0.261776,-1.543628,-3.828505,-1.258015,0.714048,0.002000,-0.283398,0.000000
863.000000,0.002000,-1.562014,1.006107,-0.044045,-0.421495,0.714829,-0.721210,3.215461,-2.214394,-0.122792,0.002000,-1.261492,0.000000
864.000000,0.002000,1.959562,0.942314,-2.005125,0.443236,-1.165521,-1.727614,-1.467032,-0.689709,1.453288,0.002000,0.739305,0.000000
865.000000,0.002000,0.755050,-1.396535,-0.759495,1.666566,0.127642,-2.006401,-2.258043,3.454611,1.494734,0.002000,-0.899886,0.000000
866.000000,0.002000,-0.250757,-0.094062,0.397565,2.265989,-1.100713,-1.714846,1.373103,0.625279,-2.352205,0.002000,0.522558,0.000000
867.000000,0.002000,-1.022855,-1.150692,0.600605,-0.998385,-0.122936,-1.500434,2.619653,2.762361,-1.548277,0.002000,-1.389781,0.000000
868.000000,0.002000,-0.013250,0.174373,-2.193683,-1.064240,0.514713,-0.195983,-0.153428,-0.488301,3.460616,0.002000,0.842589,0.000000
869.000000,0.002000,-0.177137,-0.890729,-0.920626,1.072403,0.512959,0.261103,0.889944,3.136001,2.921532,0.002000,-1.562014,0.000000
870.000000,0.002000,0.921935,-1.095671,-1.092897,1.020387,1.862569,1.087225,-2.008674,2.633169,2.455718,0.002000,1.959562,0.000000
871.000000,0.002000,-0.331011,0.450289,-0.884015,0.177621,-0.667999,-2.390856,1.633225,-1.912351,3.908389,0.002000,0.755050,0.000000
872.000000,0.002000,1.234144,1.449848,-0.881447,1.926581,-0.075082,-0.687579,-2.170341,-2.474605,1.503872,0.002000,-0.250757,0.000000
873.000000,0.002000,-0.245082,-0.778675,-1.685382,-1.837544,-0.126657,0.406201,0.874121,1.619696,3.690923,0.002000,-1.022855,0.000000
874.000000,0.002000,0.303011,0.733595,2.011864,0.903125,-0.104506,-1.198127,-0.344457,-1.315780,-2.970779,0.002000,-0.013250,0.000000
875.000000,0.002000,-0.897410,1.336235,1.342354,-0.304746,0.778892,-0.519875,1.675854,-2.461212,-2.257741,0.002000,-0.177137,0.000000
876.000000,0.002000,0.197853,0.602163,0.873273,-3.049532,0.434483,0.508082,-0.139454,-3.099633,-4.115926,0.002000,0.921935,0.000000
877.000000,0.002000,1.974100,0.477809,-0.060138,-0.045638,-0.622817,-0.336192,-3.521018,-0.826969,-0.027712,0.002000,-0.331011,0.000000
878.000000,0.002000,-0.866169,0.305321,1.024165,-0.465547,-0.803203,0.098666,2.390199,-0.876100,-3.399712,0.002000,1.234144,0.000000
879.000000,0.002000,0.244610,-0.779923,0.089076,-1.422509,-0.721408,-0.192744,-1.207025,3.717462,-1.091281,0.002000,-0.245082,0.000000
880.000000,0.002000,-0.129153,0.264739,-1.661848,-1.275066,0.382861,-0.201036,0.629708,-0.726634,4.278966,0.002000,0.303011,0.000000
881.000000,0.002000,0.550789,0.595423,0.444853,-0.341176,1.056793,0.830840,-2.475130,-3.074892,-0.750045,0.002000,-0.897410,0.000000
882.000000,0.002000,-0.003763,-1.805936,-0.019323,-0.375836,-1.700714,-1.015372,-0.028369,4.057339,0.050662,0.002000,0.197853,0.000000
883.000000,0.002000,1.060715,-0.860129,-1.989269,0.781418,1.333373,-0.058804,-1.364473,1.036298,2.538196,0.002000,1.974100,0.000000
884.000000,0.002000,-1.540558,0.314026,0.372876,-0.153634,1.726262,0.537544,4.395861,-0.889259,-0.927687,0.002000,-0.866169,0.000000
885.000000,0.002000,0.886293,-0.055259,-1.500328,-1.444714,-1.029484,-1.061238,-2.429640,0.397962,3.476956,0.002000,0.244610,0.000000
886.000000,0.002000,-0.818504,0.818839,0.140496,-0.146687,0.024845,1.282621,3.049294,-2.938624,-0.823073,0.002000,-0.129153,0.000000
887.000000,0.002000,0.649830,0.434789,-0.204961,-0.645983,-1.552110,-0.734641,-2.302241,-1.575810,0.900465,0.002000,0.550789,0.000000
888.000000,0.002000,-0.174007,1.857102,0.414674,0.437597,-0.667893,0.203234,0.264497,-3.661783,-0.882449,0.002000,-0.003763,0.000000
889.000000,0.002000,-0.128588,0.455420,0.222906,0.779205,-0.125818,-0.751110,0.380000,-1.744785,-1.364024,0.002000,1.060715,0.000000
890.000000,0.002000,-2.157356,0.650085,1.820939,-0.647446,0.245066,-0.902164,1.748255,-0.488183,-1.370817,0.002000,-1.540558,0.000000
891.000000,0.002000,-0.780280,1.454036,-0.256870,-0.597492,-1.185543,-0.808102,1.775338,-3.522810,0.482997,0.002000,0.886293,0.000000
892.000000,0.002000,0.293471,1.070360,-0.720001,-0.341883,-0.089953,1.931570,-0.253782,-3.296800,2.253001,0.002000,-0.818504,0.000000
893.000000,0.002000,1.242494,-1.214217,-0.875155,0.099089,0.618038,-0.988189,-2.612443,2.807985,1.836192,0.002000,0.649830,0.000000
894.000000,0.002000,-0.593520,0.662005,-0.340874,0.727886,0.262267,1.480181,2.274034,-2.377970,1.885181,0.002000,-0.174007,0.000000
895.000000,0.002000,-1.519974,-0.216533,-0.784221,-0.454677,-1.085852,-1.029442,3.460020,-0.016347,2.471232,0.002000,-0.128588,0.000000
896.000000,0.002000,0.731294,-0.343235,0.070774,-1.270259,-0.285036,1.203862,-3.075965,1.884841,-0.791439,0.002000,-2.157356,0.000000
897.000000,0.002000,-0.405472,0.433939,-0.183591,0.450374,0.545479,-0.601875,1.754799,-2.459574,1.636057,0.002000,-0.780280,0.000000
898.000000,0.002000,0.325199,-2.593389,0.097251,0.417853,1.323557,-1.971224,-0.361988,2.607553,0.032355,0.002000,0.293471,0.000000
899.000000,0.002000,0.413914,-0.199280,0.669392,-1.097284,1.296386,0.194056,-2.370185,0.864591,-2.532631,0.002000,1.242494,0.000000
900.000000,0.002000,0.738607,1.304214,0.104812,-0.699319,0.196047,0.393694,-2.216781,-3.625642,-0.165222,0.002000,-0.593520,0.000000
901.000000,0.002000,-1.913801,-2.285499,-1.601841,-0.668041,0.263140,-0.099229,0.979531,1.189383,0.825965,0.002000,-1.519974,0.000000
902.000000,0.002000,-0.037907,-0.157305,0.276240,1.581123,0.535635,-0.090298,0.432450,0.716366,-1.371341,0.002000,0.731294,0.000000
