# 
#                 columns are tag, mass, x, y, z, vx, vy, vz, ax, ay, az
#                 Time=0.500000
# 
1.000000,0.002000,1.562479,0.469864,0.985749,-1.210334,-0.026426,-0.508561,-3.654406,-0.846770,-2.490506
2.000000,0.002000,2.130785,2.037899,-0.946352,-0.567642,0.019113,0.220790,-1.403554,-1.341160,0.629987
3.000000,0.002000,0.071110,-0.407424,-0.375987,-2.696476,0.213102,0.296011,-2.326525,6.571934,7.438683
4.000000,0.002000,0.202717,-0.494245,-0.026181,-0.989859,-0.289011,-3.929936,-2.948326,12.150617,0.095266
5.000000,0.002000,0.464269,0.297749,0.025132,-2.033269,-0.349178,-1.129204,-7.943536,-4.909883,-0.618503
6.000000,0.002000,-0.025099,0.847871,0.174678,-0.731113,-2.860818,0.710822,-0.041265,-9.013297,-1.489054
7.000000,0.002000,-0.350832,-0.383182,-2.162753,-1.291044,1.119126,1.526694,0.515221,0.663825,3.464254
8.000000,0.002000,0.570979,0.923091,-0.372237,-0.966184,-0.867667,1.388158,-4.766763,-6.268820,2.575986
9.000000,0.002000,2.852312,-1.079902,0.377063,0.685449,0.973871,0.601526,-1.864299,0.725283,-0.259125
10.000000,0.002000,-1.173474,1.731776,1.900574,-1.756912,-0.047855,0.402252,1.001293,-1.495020,-1.577391
11.000000,0.002000,-0.473116,0.269925,0.152062,-0.296001,-0.946359,2.524327,8.060531,-4.418706,-2.495259
12.000000,0.002000,-1.594033,-0.936465,-0.917973,1.582000,-0.760622,-1.905929,3.134090,1.754239,1.721966
13.000000,0.002000,0.341865,0.776045,-0.049579,-2.700239,-2.017948,0.910371,-3.917464,-7.621729,0.297955
14.000000,0.002000,-0.231350,0.201361,-1.553598,0.334247,2.621072,0.904145,0.803261,-0.891801,5.186598
15.000000,0.002000,-1.662189,1.797641,-0.938262,0.510906,-0.752976,-0.659470,1.759890,-1.811942,1.001031
16.000000,0.002000,0.005222,-0.920119,0.207198,1.048381,2.026623,-1.618517,-0.852667,8.625813,-1.518984
17.000000,0.002000,-1.530198,0.100760,-0.620424,1.182992,0.591334,1.022280,4.800554,-0.536188,2.021914
18.000000,0.002000,0.087192,-0.237270,-1.849774,-0.713749,0.710078,-0.286737,0.220413,0.256019,4.585844
19.000000,0.002000,0.728850,0.729861,-0.066617,0.595234,-0.543214,-0.162928,-6.029372,-5.725660,0.778280
20.000000,0.002000,-0.011214,-0.219667,0.004926,-0.833189,1.865341,0.915031,1.235615,6.722919,0.685972
21.000000,0.002000,-1.020604,-0.536496,-0.889434,0.136407,0.093373,0.693877,3.232791,2.031513,3.857159
22.000000,0.002000,-1.328026,-0.028338,-1.240360,1.684713,-0.524484,-1.035350,3.431783,-0.222572,3.354945
23.000000,0.002000,-1.472500,0.050517,-0.880118,1.211982,-0.961000,0.638632,4.259498,-0.354470,2.842197
24.000000,0.002000,0.382209,0.210826,0.577162,-0.080058,-1.890511,-0.323979,-5.235604,-0.041611,-9.680216
25.000000,0.002000,1.114230,-1.006511,-0.030419,-0.853703,1.296590,-0.926176,-4.043541,3.898765,0.137835
26.000000,0.002000,-0.172276,-0.375785,-0.271591,1.754480,2.114411,1.474775,3.676222,6.888426,5.262006
27.000000,0.002000,0.762941,0.254153,-0.359618,1.348113,0.019221,2.625555,-7.471475,-2.500679,3.031332
28.000000,0.002000,0.767265,-0.038688,-1.367926,-0.825340,-1.107040,1.346641,-2.810678,-0.155448,4.691946
29.000000,0.002000,1.521880,2.139431,1.168164,-0.241440,0.059409,-0.269365,-1.224916,-1.718539,-0.948398
30.000000,0.002000,0.287844,-0.410592,0.732675,0.622138,2.163831,-1.907969,-3.189471,4.112056,-6.866076
31.000000,0.002000,-0.193667,0.252196,0.266202,1.148146,-3.152113,-0.545877,2.456662,-6.078975,-7.360320
32.000000,0.002000,0.773485,0.264033,0.274739,-1.642584,-0.576800,-1.525222,-7.987385,-2.491949,-3.058112
33.000000,0.002000,0.494633,0.654327,-0.355622,0.417243,-3.689220,-0.664070,-4.723351,-7.302997,3.771071
34.000000,0.002000,0.811807,1.103226,-0.277178,0.320528,-2.525228,2.579156,-2.994650,-4.450908,1.655723
35.000000,0.002000,-0.858044,0.727038,-0.170771,1.746187,-1.273379,2.491947,5.384364,-4.833100,1.348611
36.000000,0.002000,1.846744,-0.297948,0.388028,-1.128271,0.402551,2.250179,-3.970548,0.625809,-0.869492
37.000000,0.002000,1.578738,1.889997,1.863161,-0.958753,0.535065,-0.316410,-1.029354,-1.233437,-1.236924
38.000000,0.002000,1.475682,-0.397029,1.855667,0.725358,1.114676,-0.701920,-1.991305,0.299125,-2.341795
39.000000,0.002000,-0.549728,1.461400,1.551238,-0.305573,0.643970,0.465484,1.045474,-2.395640,-2.635006
40.000000,0.002000,-0.273412,0.133934,0.459909,0.355999,-1.505819,-2.258865,3.669694,-2.850387,-7.831719
41.000000,0.002000,0.458040,-0.073291,0.473311,-0.679487,2.740322,-0.674673,-5.566696,0.138954,-8.615453
42.000000,0.002000,0.599069,-0.234279,-0.340887,-2.909091,1.659569,-0.010629,-9.759345,1.431254,6.106162
43.000000,0.002000,-0.056526,0.758528,0.890763,0.929108,-3.184304,-0.364928,0.443627,-4.347702,-5.799971
44.000000,0.002000,0.338281,-0.225203,0.539295,-0.836764,1.888450,-1.192065,-4.550461,3.916853,-7.811316
45.000000,0.002000,0.085799,0.465766,-0.125031,1.836147,-0.255680,1.815810,-2.481705,-7.292853,2.747085
46.000000,0.002000,1.253124,-0.164494,-0.290352,-0.158632,-1.585865,0.182576,-6.447902,1.177582,1.326911
47.000000,0.002000,-0.059285,-0.950415,-0.363134,-0.959474,1.485687,3.044855,-0.194916,7.760901,2.852026
48.000000,0.002000,-0.227592,-0.005578,-0.081671,-1.095723,-0.283023,-1.922177,12.342681,1.993371,9.033067
49.000000,0.002000,1.772020,0.666979,0.407699,-2.055065,-0.862159,2.639352,-4.113255,-1.584653,-1.076571
50.000000,0.002000,1.628536,-0.794108,-0.622103,0.197799,1.590910,-0.038806,-3.669167,1.748179,1.283012
51.000000,0.002000,-0.688288,1.245398,0.056105,-0.809486,-2.088207,1.792249,3.321127,-5.468747,-0.253754
52.000000,0.002000,-0.834543,-0.534236,0.034925,1.210864,-0.269717,1.609395,6.806388,3.569990,-0.611962
53.000000,0.002000,0.591516,-1.267312,-1.177171,-1.487190,0.346371,0.560572,-1.463639,3.386881,2.851781
54.000000,0.002000,-0.175521,-0.180158,1.367394,0.672832,0.909560,-2.259293,0.664804,1.289586,-5.868930
55.000000,0.002000,0.348157,0.985616,-0.443456,-1.820177,0.828912,2.487107,-2.912870,-7.199412,4.201143
56.000000,0.002000,0.405493,-1.131310,-1.279645,-1.144910,0.449507,1.353615,-1.161748,3.231129,3.502001
57.000000,0.002000,0.273143,0.342981,0.054937,-2.957952,-0.756766,-2.420195,-5.795860,-11.233165,-0.763352
58.000000,0.002000,0.467654,0.475832,-0.391119,-0.603037,-1.737368,1.399252,-6.177060,-4.708803,5.801730
59.000000,0.002000,-0.832857,0.918439,-0.640092,1.111148,-0.266384,0.980013,3.414731,-3.893985,2.880383
60.000000,0.002000,0.061998,-0.498651,0.225011,1.803422,1.193351,-0.078673,-1.049396,8.414065,-3.844146
61.000000,0.002000,-0.690613,-0.614407,-0.748457,0.083525,2.401779,0.548458,4.561370,2.322116,4.673037
62.000000,0.002000,-1.989202,1.003222,-1.432974,0.945153,0.553359,0.688960,2.029401,-0.982384,1.464711
63.000000,0.002000,-0.813868,-0.079937,-0.562629,1.778025,-0.255525,1.136295,6.760441,0.710309,4.371579
64.000000,0.002000,1.479133,-0.864175,-0.708698,-0.925127,1.417975,-1.760609,-3.665208,1.914202,1.038643
65.000000,0.002000,-0.265866,-1.113459,-0.285300,-0.198643,1.529681,-1.624887,2.387668,6.649138,1.502883
66.000000,0.002000,-0.468413,1.265355,1.231239,-0.316251,0.128875,0.074309,1.286463,-3.395599,-2.998023
67.000000,0.002000,2.410836,-0.553276,-0.759703,-0.174630,-3.795800,-0.590373,-2.555258,0.663852,0.788004
68.000000,0.002000,-0.345265,-0.278410,0.105298,0.727330,-2.896982,-1.939529,7.799925,5.278684,-2.455845
69.000000,0.002000,-0.465109,-0.523746,0.538520,-1.997322,3.485746,0.395302,4.446837,5.677825,-5.122084
70.000000,0.002000,-0.625365,0.033109,0.309729,1.626066,-0.661489,0.316654,7.402318,-0.881385,-5.489291
71.000000,0.002000,0.664174,-0.177017,0.567817,-1.644848,-0.804301,-1.567894,-6.718184,2.401999,-5.845714
72.000000,0.002000,-0.301208,-0.521306,-0.099219,1.183542,2.396449,1.025332,4.446936,9.208360,-0.742779
73.000000,0.002000,0.000418,0.599951,0.582311,0.061851,-0.157714,-4.615658,0.289138,-5.079519,-6.758313
74.000000,0.002000,-0.098222,-0.604349,-0.869625,-0.056394,1.671080,0.046742,0.269972,3.997787,6.833921
75.000000,0.002000,-1.407123,0.810313,-1.595852,-1.423675,0.353226,0.581950,2.005324,-1.128731,2.384195
76.000000,0.002000,0.226685,0.603729,-0.228039,-0.129197,-0.255082,-0.633055,-2.751926,-8.516621,3.616916
77.000000,0.002000,-0.110990,0.040003,-0.347724,1.631749,0.574728,3.558174,2.041932,-0.994391,9.149569
78.000000,0.002000,0.106502,0.143366,-0.498362,1.320091,1.559852,-0.886201,0.599764,-1.734024,10.171010
79.000000,0.002000,-1.798018,1.189287,2.687790,-0.990142,0.616842,1.970454,0.873370,-0.594961,-1.307258
80.000000,0.002000,-1.937547,-0.173174,0.044343,1.222472,-1.224618,-1.373996,4.249918,0.440021,-0.124567
81.000000,0.002000,0.273021,-0.161151,0.044799,1.670709,1.321275,0.162237,-8.350177,5.648276,0.988909
82.000000,0.002000,-0.316341,-0.987399,-1.210863,0.176589,-0.757187,2.018440,1.070096,3.545028,4.321169
83.000000,0.002000,1.471416,0.399196,-0.838752,-0.249947,-1.767347,0.500453,-3.752078,-0.889820,2.557445
84.000000,0.002000,-2.451401,0.866976,-0.435238,-1.252783,0.421949,0.461155,2.496415,-0.922967,0.437059
85.000000,0.002000,0.051213,0.009954,0.448639,-0.421478,1.006262,-1.865410,-1.657448,0.034636,-9.314462
86.000000,0.002000,0.468755,-0.637694,-1.569701,-0.808466,0.557474,0.635744,-1.348618,1.555877,4.506877
87.000000,0.002000,-0.300953,0.778162,-1.591179,2.955381,-0.066779,0.014490,0.825698,-1.889839,4.261240
88.000000,0.002000,-0.311219,0.110442,-0.279842,1.617807,1.464744,0.196383,6.780938,-2.804905,6.306692
89.000000,0.002000,-0.588528,0.463533,0.849890,3.663502,0.138788,-0.148099,3.432031,-2.785778,-5.405028
90.000000,0.002000,-0.355341,-0.245428,-0.602701,-0.375925,0.749711,-0.349448,4.213996,2.446655,7.686386
91.000000,0.002000,0.191085,-2.400165,1.643739,-0.460400,1.150589,-0.911288,-0.161243,1.829018,-1.286409
92.000000,0.002000,0.533392,0.100812,0.196978,-1.128041,1.835652,0.962283,-9.408173,-0.182073,-3.184743
93.000000,0.002000,0.561294,-0.893776,-1.005865,-0.306442,-1.042276,3.018887,-2.414612,3.755578,3.955330
94.000000,0.002000,1.478635,-0.182424,1.166429,-1.926884,-0.068942,-0.216692,-3.432496,0.434249,-2.574994
95.000000,0.002000,-0.541534,1.092479,0.001578,0.847361,-2.054076,-0.578259,3.037447,-6.194967,0.545958
96.000000,0.002000,1.202955,-0.519388,0.305926,0.231324,1.663862,-2.347268,-5.413931,2.133527,-2.060115
97.000000,0.002000,0.570600,1.054077,-1.772097,-0.491744,-1.061161,-1.595475,-0.851408,-1.688335,3.011499
98.000000,0.002000,-0.283955,1.832267,-0.209467,0.530474,-1.808433,1.915216,0.528858,-4.376699,0.730521
99.000000,0.002000,0.282376,0.824846,-0.007887,0.657791,-2.214984,-0.174007,-2.434991,-8.038106,0.867657
100.000000,0.002000,-0.201223,0.155855,-0.095671,-1.325539,0.950066,-1.198379,5.626409,-3.377614,3.756547
101.000000,0.002000,-1.272648,0.807848,-0.580211,0.880583,-2.375737,-0.632979,4.203994,-2.970420,1.972244
102.000000,0.002000,-0.286350,0.329570,0.084787,1.768011,-1.712035,1.391746,6.452441,-7.959983,-0.327343
103.000000,0.002000,-1.169353,-0.885314,0.066074,1.222063,1.685312,-1.412858,4.693663,3.556952,-0.337634
104.000000,0.002000,-0.215981,0.251092,0.179656,0.312061,0.479192,-3.006767,4.217638,-5.125411,-3.080691
105.000000,0.002000,-0.580971,-0.336712,-0.115054,2.294334,1.647317,0.840293,7.244809,5.105252,1.396714
106.000000,0.002000,-0.058200,-0.029076,1.133000,-0.399133,0.125341,1.552384,0.212182,0.492676,-7.087248
107.000000,0.002000,0.295665,-0.332120,-0.633887,0.434475,0.082713,1.414413,-2.792175,3.497310,7.578559
108.000000,0.002000,-0.144825,0.450700,-0.345076,1.981247,-0.540918,2.265527,2.217749,-7.416280,5.429081
109.000000,0.002000,-0.522281,0.061881,-0.455003,2.639908,0.795561,0.185742,7.193784,-0.717295,6.478690
110.000000,0.002000,1.765716,-0.213630,1.939520,-1.490843,1.098158,1.563503,-1.806724,0.221774,-1.983752
111.000000,0.002000,0.485997,-0.737258,0.737978,-1.166960,1.792030,-0.851746,-3.335824,4.143837,-4.453098
112.000000,0.002000,-1.153064,-1.708044,0.996815,0.393081,2.477543,0.538397,1.819749,2.419781,-1.188982
113.000000,0.002000,-1.433189,-0.547610,-0.522605,1.738678,-1.772988,0.795866,4.766700,2.191564,1.712075
114.000000,0.002000,1.892930,1.096573,0.611752,-0.292269,-0.379084,2.046861,-2.887239,-1.739882,-0.944445
115.000000,0.002000,-0.931300,-1.428490,-1.058931,0.000830,0.351106,-0.764245,1.623905,3.215748,2.116469
116.000000,0.002000,-0.904855,-1.095570,0.662492,-0.510541,-0.485157,0.445596,3.050054,3.892408,-2.475018
117.000000,0.002000,0.541205,0.218016,-0.481495,-0.883226,-0.757658,1.544355,-5.217986,-2.127091,4.740448
118.000000,0.002000,-0.991043,1.176858,-0.951369,1.458896,-1.036709,-0.074752,2.554078,-2.777211,2.589694
119.000000,0.002000,-0.174068,-0.276163,-1.589439,1.196952,0.735438,1.627945,0.717661,-0.966160,6.511727
120.000000,0.002000,-0.650564,-0.203382,-0.045410,1.087249,1.192708,-1.617718,9.518356,2.932228,0.048607
121.000000,0.002000,0.429096,-0.136181,0.539541,-1.365688,-0.098975,-2.187884,-6.028066,1.706923,-6.424153
122.000000,0.002000,-0.194913,0.461038,-0.258686,-0.990469,-0.092206,-0.406826,2.338178,-8.737842,4.133114
123.000000,0.002000,0.315591,-0.079944,0.354146,0.554993,1.125756,0.415235,-4.931336,-0.497555,-7.627035
124.000000,0.002000,-1.177180,0.424992,-0.365969,0.975412,-0.118503,1.776724,5.894703,-2.230174,1.650812
125.000000,0.002000,0.593453,-0.627397,-0.423454,-1.632226,0.071441,-0.513327,-5.605585,5.250471,3.886516
126.000000,0.002000,0.190673,0.301990,-1.034589,-0.839343,-1.084975,2.339437,-0.862187,-2.448302,7.139149
127.000000,0.002000,-0.472480,-0.354386,-1.349986,-0.195896,-2.564075,1.792166,3.093338,0.508255,4.054233
128.000000,0.002000,0.590494,-1.664133,-2.271303,0.282211,1.617133,-2.074518,-0.523021,1.341876,1.811860
129.000000,0.002000,0.033747,-1.150426,-0.465125,-0.084747,2.186322,1.557467,-0.569381,6.540413,2.465603
130.000000,0.002000,-1.587021,0.840224,1.152604,0.427212,-2.098632,1.613635,2.788530,-1.645860,-2.048198
131.000000,0.002000,0.509410,0.520194,0.230040,-1.368275,0.706202,1.091374,-6.348197,-6.971872,-3.522962
132.000000,0.002000,-1.841024,-0.841516,-0.721173,0.363340,-0.799287,0.415637,3.297930,1.478364,1.282506
133.000000,0.002000,0.395497,1.439280,1.013996,-1.233822,-0.134005,-1.516717,-1.151097,-3.704773,-2.557035
134.000000,0.002000,0.148439,0.548277,-0.592446,-1.946677,1.812658,2.657252,2.365220,-8.731279,13.945985
135.000000,0.002000,-0.007605,0.552996,-0.927658,-1.719444,-0.144371,2.931914,-0.261391,-3.745099,6.327161
136.000000,0.002000,-0.254234,0.423322,0.505030,-1.124360,-1.966012,-0.164075,3.836749,-5.501981,-7.596702
137.000000,0.002000,0.260607,-0.600601,-1.123161,0.772342,0.966273,1.825244,-1.101740,2.905621,5.864292
138.000000,0.002000,-0.141119,-0.166330,-1.138898,-2.067991,0.449156,-0.508513,0.622244,0.726612,7.192586
139.000000,0.002000,1.517850,0.024520,0.363623,-1.522048,-1.391077,-0.281090,-5.127106,-0.127140,-1.348004
140.000000,0.002000,1.191040,0.746542,0.934526,1.595961,-2.093651,-2.295226,-3.499441,-2.151101,-3.053088
141.000000,0.002000,1.361085,0.571834,-1.636932,0.408081,-0.211136,1.543508,-2.081473,-0.822663,2.522944
142.000000,0.002000,-0.276619,0.459742,0.128020,-0.236194,0.301646,-0.251257,5.298173,-8.250715,-1.140385
143.000000,0.002000,0.732938,-2.483839,-0.268780,-0.622242,1.086947,0.693585,-0.888017,2.559494,0.323320
144.000000,0.002000,-0.163482,-0.490816,-1.241434,-0.860123,0.379665,1.581165,0.889912,2.514473,5.871701
145.000000,0.002000,0.665672,0.111935,-0.109420,-1.828526,-0.631247,2.421182,-9.245638,-1.305806,3.622438
146.000000,0.002000,-0.039809,0.417240,0.418356,-0.916863,-2.154557,-0.009655,0.438086,-6.220328,-7.679268
147.000000,0.002000,0.397683,0.036897,-0.065900,-2.152143,-0.192297,1.236477,-9.422981,0.455447,1.856057
148.000000,0.002000,-0.265231,0.555035,0.404729,2.928555,0.507938,-0.458828,3.851093,-6.987888,-4.869564
149.000000,0.002000,0.307873,-0.849688,0.003450,-2.113441,-0.271254,-1.248153,-3.374411,8.330976,-0.131908
150.000000,0.002000,-0.639971,-0.407106,0.193101,1.874232,1.563668,0.426728,7.330740,3.761502,-3.809750
151.000000,0.002000,-1.258252,-0.020112,-0.666419,0.822845,-1.956098,-1.934379,6.115008,0.300013,2.787950
152.000000,0.002000,0.310696,0.756913,2.456615,-0.057319,0.650904,0.140367,-0.370857,-0.809176,-2.671314
153.000000,0.002000,-0.141067,-1.899920,1.023491,0.766639,1.388740,1.365697,0.813509,3.397249,-1.875660
154.000000,0.002000,-0.629870,-0.706510,-0.776417,-0.574246,0.385939,1.441951,3.517235,4.481723,4.483510
155.000000,0.002000,-0.058934,-0.547139,-0.013310,1.181537,-0.366632,1.521102,1.403197,11.421814,0.238050
156.000000,0.002000,1.652388,-0.266684,-1.491713,-2.129334,1.537457,-0.984406,-2.499644,0.308139,2.253533
157.000000,0.002000,-2.451927,-0.179287,-0.627341,0.261132,-0.857855,3.048559,2.751522,0.138744,0.854808
158.000000,0.002000,-0.104810,-0.674351,-0.034330,1.384362,0.534464,1.867167,1.357235,9.692446,0.111493
159.000000,0.002000,2.629191,1.201797,1.633719,1.380019,0.215908,0.358235,-1.406475,-0.659364,-0.875691
160.000000,0.002000,-0.963274,0.472194,0.775357,0.694308,-1.937315,-0.112186,4.528465,-2.527257,-3.797357
161.000000,0.002000,1.346777,0.368493,-0.894327,0.314075,-1.739213,0.712602,-4.006166,-1.047223,3.036630
162.000000,0.002000,0.092085,-0.088180,-2.041474,1.013963,-1.990821,2.029657,-0.319009,0.162072,3.934241
163.000000,0.002000,0.524001,0.790226,0.090836,-3.079396,-0.507916,0.229968,-4.848529,-6.964093,-0.812048
164.000000,0.002000,-0.331773,-0.802239,-0.347084,-0.826594,1.861451,0.457912,3.570775,7.280306,2.923137
165.000000,0.002000,1.520645,2.089309,2.648692,0.687782,1.381008,-0.392976,-0.587638,-0.810996,-1.035777
166.000000,0.002000,-0.027290,0.053677,-0.008384,0.215715,1.848872,1.536317,1.261134,-1.860043,2.823519
167.000000,0.002000,-1.850210,0.132688,-0.308191,-0.539643,0.421810,-1.334390,4.076975,-0.302713,1.121669
168.000000,0.002000,-0.275062,-0.145566,-0.973092,-0.023006,-2.937695,-0.180026,2.571878,0.702407,7.318789
169.000000,0.002000,-0.961291,-1.410711,-0.903112,-0.791859,-0.994954,2.099204,1.930284,3.205761,1.809092
170.000000,0.002000,-1.453927,-1.641157,1.886027,0.593638,-0.576885,0.762649,1.146146,1.324080,-1.528555
171.000000,0.002000,0.701169,1.289902,-1.814730,-0.651130,-0.666181,-0.357202,-0.931647,-1.831531,2.501717
172.000000,0.002000,-0.357053,-0.481974,-0.272827,4.457312,1.162708,-0.544380,5.268828,6.986084,5.075519
173.000000,0.002000,0.051238,0.763152,-0.362424,-1.153472,-2.038235,-0.862481,0.538065,-6.252298,4.428101
174.000000,0.002000,0.967683,-0.272722,-1.062911,-2.449810,0.095379,0.490794,-3.985125,1.013283,4.281195
175.000000,0.002000,-1.360447,-0.287994,0.276556,1.869066,1.661000,-0.305734,5.346031,3.097964,-1.208486
176.000000,0.002000,-0.000811,1.063893,1.331483,1.939978,-0.351883,-1.032351,-0.011359,-3.146330,-4.099888
177.000000,0.002000,-1.828592,0.312863,-1.899690,1.466499,-1.189471,1.079144,1.770560,-0.306566,1.887302
178.000000,0.002000,1.390675,0.251148,0.086440,0.885926,-2.567168,-0.016606,-5.583641,-0.433316,-0.900602
179.000000,0.002000,-0.614530,-0.618886,-0.020804,2.471142,0.768285,0.539911,4.838900,-1.037414,-0.297523
180.000000,0.002000,-0.328425,-0.414330,0.050255,0.551915,0.716840,0.196275,5.706355,8.887216,-1.493992
181.000000,0.002000,0.520987,-1.558175,-0.046032,0.287103,0.444669,0.463677,-1.199076,4.872154,-0.088928
182.000000,0.002000,0.521706,0.520569,0.145245,-3.451785,1.238297,1.243717,-3.491111,-7.581434,0.552526
183.000000,0.002000,0.830011,-1.980356,1.080994,-0.721345,1.709027,-0.492380,-1.218772,2.386457,-1.471591
184.000000,0.002000,-0.052689,-0.395083,0.058219,1.720827,-0.356092,-0.452149,0.421618,8.270958,-1.972667
185.000000,0.002000,-0.162460,-0.547705,0.072986,-2.578517,0.783961,1.746916,3.179825,9.944925,-0.971116
186.000000,0.002000,1.582934,-1.177951,-0.960528,0.044434,2.914284,-1.739698,-2.542659,1.899042,1.468899
187.000000,0.002000,-1.446171,-0.737336,1.274590,0.339124,0.351020,-2.060457,2.736957,1.599395,-2.661590
188.000000,0.002000,-0.634130,0.047517,-1.579623,-0.817540,-0.345471,1.371611,2.177425,-0.213617,4.436559
189.000000,0.002000,-0.700852,0.405080,-0.127213,1.448669,-0.108122,-0.890771,7.865006,-4.617165,2.207918
190.000000,0.002000,0.292891,0.194772,0.459458,-1.534797,0.220179,-1.358988,-1.825418,-3.065776,-10.440217
191.000000,0.002000,0.032100,-1.198038,0.071388,-1.024745,2.563228,-0.014512,-0.531152,7.155842,-0.525071
192.000000,0.002000,0.639220,0.359844,-0.325064,-1.464528,-1.247652,0.613233,-7.438530,-3.540476,3.822467
193.000000,0.002000,-0.476823,-0.544243,0.688076,1.512249,2.199961,0.975050,3.723107,6.560360,-4.483948
194.000000,0.002000,0.747576,-1.807746,-0.958017,-1.099063,0.973564,-0.282479,-1.250802,2.997817,1.562139
195.000000,0.002000,-0.133271,-0.212392,0.283924,3.128216,-1.933835,1.432857,3.428464,5.786318,-7.643458
196.000000,0.002000,-0.740484,-0.127655,0.264825,0.815987,0.584406,-1.038474,7.992742,2.440326,-3.659747
197.000000,0.002000,-0.392164,-3.317280,0.780498,0.049045,-0.116821,0.380504,0.180496,1.625756,-0.383134
198.000000,0.002000,-0.111573,0.673988,-0.063371,-1.174034,0.694060,2.989610,2.590235,-9.204134,2.085159
199.000000,0.002000,0.053231,-0.832245,-0.242276,-0.954094,-1.408963,1.077170,-1.658496,10.691242,1.205652
200.000000,0.002000,-0.395966,-1.434790,-0.781163,-0.046503,0.117276,-0.719918,1.028063,4.476772,2.449334
201.000000,0.002000,-2.124135,0.159144,-0.237164,-0.245082,-0.637169,1.649073,3.889989,-0.401967,0.715042
202.000000,0.002000,-0.125484,-0.899891,0.244578,-0.730248,2.563635,1.631100,0.933792,7.638242,-2.105568
203.000000,0.002000,-0.144029,-0.924327,-0.473082,0.155394,2.843493,-0.802958,1.383632,7.101455,3.141485
204.000000,0.002000,-0.525387,-1.705500,-1.382747,-0.105912,0.701217,0.353198,0.696245,2.564469,2.275565
205.000000,0.002000,0.234102,-0.148738,0.532594,-1.590271,-2.410955,0.299182,-2.518779,2.422283,-8.205752
206.000000,0.002000,0.452139,0.368522,-0.210559,-1.136308,-0.559561,-0.875771,-7.097747,-4.754215,3.115064
207.000000,0.002000,1.284065,-0.957898,0.017057,-0.763478,1.816192,-1.460770,-3.994369,3.127903,-0.120702
208.000000,0.002000,0.473866,-0.126517,0.589128,1.135862,0.691292,0.704286,-6.534662,1.568431,-8.839580
209.000000,0.002000,0.190822,-1.005172,0.319589,1.081362,1.912752,-0.169713,-1.550606,6.884420,-3.006565
210.000000,0.002000,1.585521,0.297271,0.033425,-1.378248,0.647179,0.008915,-5.420504,-0.617199,-0.883482
211.000000,0.002000,-0.206831,-0.333903,0.431863,1.662970,0.239857,-1.230969,2.855574,5.437568,-6.828581
212.000000,0.002000,-0.574983,-0.267373,0.272147,0.818574,1.098015,-1.023061,7.414248,4.101155,-3.703068
213.000000,0.002000,-0.160818,-0.161441,-0.199534,2.712092,-0.664779,-2.080837,3.388560,2.603624,4.509677
214.000000,0.002000,0.073276,-0.764587,0.940829,-3.035623,-0.782330,-1.923445,-0.620942,3.838327,-5.409095
215.000000,0.002000,0.463922,0.355417,-0.561798,-1.943646,2.732303,2.439233,-4.911865,-2.665961,6.259768
216.000000,0.002000,-0.265657,-0.133880,-0.147142,1.029008,-2.835919,0.419212,7.226897,4.557554,4.553996
217.000000,0.002000,-0.371004,0.684246,0.884296,0.931625,-2.766070,0.418168,2.311921,-3.933681,-5.153848
218.000000,0.002000,-2.624389,-0.191295,0.023010,0.095870,-1.005047,-1.057328,2.764252,0.253922,0.021800
219.000000,0.002000,-0.641718,0.442988,0.059425,-0.818671,-1.049551,0.217221,7.807770,-5.263819,-1.345258
220.000000,0.002000,-1.548156,-0.131982,-0.522284,0.487915,0.596023,1.348722,5.089489,0.336324,1.654435
221.000000,0.002000,-0.622697,-1.090732,0.705753,1.260682,1.283151,-0.032050,2.521343,4.602425,-3.071087
222.000000,0.002000,-0.649585,-0.765733,-0.348127,-0.766062,0.467418,1.288321,4.519146,5.758706,2.420982
223.000000,0.002000,0.075698,0.862862,-1.523221,0.148006,-0.900667,1.795243,-0.334369,-2.284983,3.980827
224.000000,0.002000,0.277166,0.164625,-1.463992,-0.419079,1.405516,1.995262,-1.055467,-0.714725,5.785134
225.000000,0.002000,-0.687879,-0.405349,-0.283175,3.794179,1.667989,-0.756638,7.414770,5.669724,3.167848
226.000000,0.002000,0.678833,-1.724539,-0.067789,0.119671,-0.600055,-2.365319,-1.999823,4.246244,0.114428
227.000000,0.002000,0.676639,-0.034750,-0.516015,-2.862411,-0.955648,0.977732,-6.642452,0.202169,5.306104
228.000000,0.002000,0.739036,1.526898,0.304297,-1.350551,0.631853,-1.483503,-2.137469,-4.477147,-0.567274
229.000000,0.002000,-0.964167,-2.548571,2.037632,-0.519275,0.881914,-0.402080,0.476607,1.300015,-1.035286
230.000000,0.002000,-1.523366,0.184435,1.309939,0.740301,0.384735,-2.740382,3.160183,-0.401464,-2.723312
231.000000,0.002000,1.632127,1.273251,-1.053451,2.092249,0.165428,1.407353,-2.202612,-1.749525,1.481029
232.000000,0.002000,-1.311653,-0.674955,0.963394,1.696078,0.085286,-0.777279,3.389658,1.898158,-2.475218
233.000000,0.002000,-0.278466,-0.911547,-0.821963,0.538195,0.963528,-1.403496,1.417251,4.848626,4.867699
234.000000,0.002000,0.774583,-0.821700,-1.139748,-1.145015,1.922398,0.876077,-2.680792,2.641992,3.581805
235.000000,0.002000,-1.730105,0.651416,0.573614,-0.988934,-1.420978,0.390798,3.746916,-1.641305,-1.232629
236.000000,0.002000,1.195523,0.204786,0.110121,-3.048302,-1.704347,0.217591,-6.816844,-0.762674,-0.923635
237.000000,0.002000,0.779166,0.111795,-0.356220,-2.439520,-0.312759,1.349504,-8.588717,0.337319,3.005512
238.000000,0.002000,1.038315,-0.517817,0.013280,-0.513246,1.261545,0.598029,-6.591533,3.769724,-0.286045
239.000000,0.002000,0.883594,0.276274,-0.699340,-2.052878,0.524144,1.063698,-6.457752,-2.041317,4.762262
240.000000,0.002000,0.309227,1.527984,-1.034609,1.543408,0.080237,-0.381067,-0.607265,-3.546176,2.348396
241.000000,0.002000,-0.096885,0.148089,0.086538,1.150265,1.271949,-0.651719,0.750839,-4.098779,-1.465695
242.000000,0.002000,-0.554370,-1.004595,-0.551961,0.150304,2.263492,1.192600,2.903029,5.495874,2.518418
243.000000,0.002000,-0.524378,0.699198,0.360017,1.709759,-2.122618,-1.444334,4.871847,-5.949369,-3.055570
244.000000,0.002000,0.038722,-0.744398,-0.237451,-1.551195,0.788383,1.895856,-1.553672,6.943942,1.577029
245.000000,0.002000,-0.778567,-1.365719,2.236862,-0.396375,-0.343844,-1.044623,0.705981,1.246281,-2.064615
246.000000,0.002000,-2.615540,-0.212372,-0.549568,-0.112988,-1.570301,1.676329,2.674393,0.138542,0.688348
247.000000,0.002000,-0.425688,-1.028186,0.369918,-0.235464,1.265867,3.159109,2.426065,6.604513,-2.192488
248.000000,0.002000,-1.529563,0.946114,-0.059289,-0.013163,-2.274370,0.187452,3.975959,-2.611827,0.165490
249.000000,0.002000,-0.702749,-0.537105,-0.531229,1.416992,-1.893031,-0.371721,5.526815,3.714280,3.777924
250.000000,0.002000,0.486249,-1.083324,0.552579,-0.981534,2.469863,0.090060,-2.344857,5.029220,-2.782798
251.000000,0.002000,0.294688,-0.320109,0.745598,-1.581745,3.590530,-0.309249,-3.261802,3.545389,-8.280654
252.000000,0.002000,1.062995,0.135207,0.432126,-2.525522,0.275652,-1.306544,-7.150280,-0.429380,-3.148682
253.000000,0.002000,0.885075,-0.371104,-0.043170,-0.897930,1.481883,-0.159415,-6.724145,3.038982,0.526875
254.000000,0.002000,-1.427231,-0.166634,0.256439,1.447785,0.783282,-0.220106,6.125464,0.861907,-0.898769
255.000000,0.002000,-0.025596,-0.358205,-0.066347,-1.997453,0.078494,-2.053118,-0.082728,7.691621,0.711235
256.000000,0.002000,-0.138751,0.256850,0.198655,2.930181,0.202882,-0.063208,1.492769,-6.875458,-3.952606
257.000000,0.002000,2.640005,-0.121801,-0.563108,0.869698,0.261419,0.014697,-2.493353,0.148578,0.485645
258.000000,0.002000,0.677201,-0.130630,0.068452,0.217099,2.413254,-0.695576,-9.261267,1.890550,-1.335887
259.000000,0.002000,0.609650,-0.751420,0.460918,1.530935,3.338165,0.619392,-4.416048,5.244312,-3.409078
260.000000,0.002000,1.007252,-2.674353,-0.164653,2.481790,-1.376869,-0.143548,-0.876231,2.130103,0.132238
261.000000,0.002000,1.415808,-0.738298,-0.118333,-1.285869,-2.224747,-1.580776,-4.659146,2.349312,0.176611
262.000000,0.002000,-0.510226,0.502029,0.458197,2.840628,-0.688677,-0.041255,5.678534,-4.694295,-4.899206
263.000000,0.002000,0.318701,0.136246,-0.428845,-1.134566,-1.108119,3.060995,-5.358272,-1.318354,5.993931
264.000000,0.002000,-0.024272,0.099720,-0.181001,0.322097,2.236518,0.464209,1.282638,-2.492123,7.756885
265.000000,0.002000,-0.333781,1.530500,0.407679,1.507477,-0.654200,2.517334,1.099673,-4.964046,-1.267946
266.000000,0.002000,-1.015351,0.589973,-1.094132,0.528334,0.699184,0.797153,3.113629,-1.773923,3.724921
267.000000,0.002000,0.802859,-0.507292,0.588840,1.864148,1.369942,-2.697274,-6.723537,3.647348,-3.256075
268.000000,0.002000,0.586382,0.300069,-0.833438,-1.402311,0.392595,0.204967,-4.501246,-2.342978,7.624138
269.000000,0.002000,0.983897,0.621529,0.287182,-1.023691,-0.204339,-0.882789,-5.916760,-3.510312,-1.818799
270.000000,0.002000,-0.311911,-1.006047,0.186321,-0.329837,2.713646,0.439034,2.799990,7.209809,-2.288714
271.000000,0.002000,-0.804967,0.095297,1.118006,0.139708,-1.362607,-0.862115,3.389935,-0.599805,-4.516779
272.000000,0.002000,-0.027083,-0.162923,1.542961,1.398748,-1.237583,-1.506324,0.392184,1.975932,-2.803927
273.000000,0.002000,0.036458,-0.122457,-0.005348,1.704364,-4.442398,2.369649,4.749535,4.281801,-1.277941
274.000000,0.002000,-0.116263,0.128962,0.104351,0.103937,-0.274901,-0.129128,1.591159,-3.901109,-2.169020
275.000000,0.002000,-1.109044,-0.217779,-0.193012,0.753872,1.134856,1.443084,7.197689,1.412610,1.330866
276.000000,0.002000,0.137390,-0.068990,2.025010,-0.479074,-0.824307,-1.276363,-0.207853,-0.008934,-4.003834
277.000000,0.002000,0.885517,-0.728467,0.968795,-1.819215,0.097823,0.628825,-3.282343,2.780583,-3.530379
278.000000,0.002000,-0.034412,0.460777,-0.337068,-2.802677,-0.112756,0.324766,0.666825,-7.866338,5.462792
279.000000,0.002000,-0.204513,1.216823,-0.823069,-0.397026,-0.266079,0.834483,0.677952,-4.615196,3.184495
280.000000,0.002000,0.442936,0.601162,-0.083784,1.043298,-0.899606,-0.833118,-4.180197,-7.396797,-1.206343
281.000000,0.002000,-0.978780,-0.408963,0.677305,-1.659051,0.479409,-1.592626,5.249474,2.685884,-3.694265
282.000000,0.002000,1.797954,0.914181,-0.069093,-1.516142,0.678911,0.301387,-3.634282,-1.964101,0.293573
283.000000,0.002000,0.696258,0.253293,-0.323031,-1.404416,1.598404,1.620434,-7.363430,-2.497960,3.568844
284.000000,0.002000,0.136603,-2.531036,-1.322538,0.241257,0.523181,-0.073425,-0.268929,1.940109,1.115237
285.000000,0.002000,-1.800998,-1.353253,-1.198648,-2.424648,0.540185,0.069714,2.021508,1.509910,1.359826
286.000000,0.002000,-0.741897,-0.609002,-0.101712,0.213163,3.233892,0.905110,4.610780,5.535995,1.558262
287.000000,0.002000,-0.268566,0.028108,0.563397,1.178464,-0.032391,-2.682176,3.116076,-0.675326,-8.816858
288.000000,0.002000,0.187217,0.685892,0.673575,-0.423357,0.390153,-0.084802,-1.920682,-5.783741,-6.139232
289.000000,0.002000,0.404752,0.341720,-0.670254,-0.514685,2.767653,-0.082170,-3.565115,-3.900702,7.360866
290.000000,0.002000,0.912558,-0.558319,0.477317,0.376978,2.462951,-1.426198,-5.855179,3.433434,-3.087720
291.000000,0.002000,0.402486,-0.703793,-0.221693,-2.353504,1.034099,0.357810,-5.025984,7.443084,2.314550
292.000000,0.002000,-0.988783,-0.010179,-0.516373,0.861316,-1.640187,1.865508,6.252174,0.095587,3.446040
293.000000,0.002000,-0.129274,-0.728040,0.021513,0.512695,1.865390,-0.098570,2.455055,10.624696,1.033324
294.000000,0.002000,-1.237794,0.640588,-0.475867,2.003786,-1.950117,1.322118,5.098088,-2.405307,1.519986
295.000000,0.002000,0.447933,0.509088,-0.370013,0.012010,0.854693,1.885151,-5.173700,-6.409748,4.760324
296.000000,0.002000,-0.656043,0.830323,-0.484854,1.229854,-1.216969,0.684948,3.953905,-5.170290,3.212443
297.000000,0.002000,-0.224546,-0.495160,-1.043285,-0.972074,1.356136,0.465360,1.496486,2.533640,6.248977
298.000000,0.002000,-0.077056,0.186254,0.728536,-1.180801,-2.482227,0.635418,1.338365,-2.371954,-9.045931
299.000000,0.002000,-1.862265,1.893307,-1.656019,-0.565189,-0.555556,-1.338944,1.168173,-1.209602,1.102141
300.000000,0.002000,-1.323338,2.787364,-0.294375,0.666579,-0.059320,0.272661,0.874584,-1.821537,0.188429
301.000000,0.002000,-0.889271,-0.206313,0.373602,2.456552,1.413884,-0.462033,7.594328,2.096684,-3.108362
302.000000,0.002000,0.176123,-0.147994,1.978154,-0.150340,1.620046,-0.556807,-0.507843,0.455437,-3.858207
303.000000,0.002000,-1.063875,-1.765223,0.953517,-0.702971,-0.483251,-0.413830,1.479022,2.740217,-1.155991
304.000000,0.002000,0.924970,-1.076274,-1.672698,-1.217414,-0.153334,0.119589,-1.399639,1.778333,2.838009
305.000000,0.002000,2.237630,-2.260785,-1.210344,2.122885,-0.081512,0.214058,-1.113412,1.120723,0.572467
306.000000,0.002000,0.602939,0.549467,-0.108080,-2.002392,0.466461,0.554380,-5.408342,-7.132110,-0.244060
307.000000,0.002000,0.121130,-1.213914,-1.401826,-0.579615,-1.581901,0.803918,-0.044163,2.987737,3.476778
308.000000,0.002000,1.045732,1.442833,1.161247,-1.023611,-0.459141,1.507261,-1.686580,-4.019669,-2.277448
309.000000,0.002000,0.550945,2.234674,-0.445004,0.901320,-0.944040,-0.209331,-0.950003,-3.147383,0.379384
310.000000,0.002000,-0.157457,0.047479,0.459167,0.404267,-0.871118,-3.533337,2.133846,-0.224478,-9.033208
311.000000,0.002000,1.288122,-0.091785,0.843336,-1.670862,0.452631,0.547958,-4.795750,0.651019,-2.984980
312.000000,0.002000,-0.563330,-0.248681,-0.173347,3.011985,0.471600,1.922050,8.327930,4.049803,2.750350
313.000000,0.002000,-0.587744,1.420668,-0.015405,1.286888,-1.511688,1.785954,1.434451,-4.796591,-0.002810
314.000000,0.002000,0.297693,0.191088,0.436062,1.541013,-0.683196,-3.126976,-3.438520,-2.051790,-4.978519
315.000000,0.002000,0.792476,1.832283,-0.868754,0.376612,-2.570369,-1.374203,-1.368513,-2.923861,1.436705
316.000000,0.002000,0.594161,0.484604,0.896882,0.041039,0.003445,-2.245295,-3.604497,-2.761885,-5.611062
317.000000,0.002000,0.154493,-0.587576,-0.718334,-1.128480,-0.307600,1.743512,-1.542583,4.538859,6.484776
318.000000,0.002000,0.389382,1.166884,-0.131572,-0.072448,-1.823256,0.869699,-2.091683,-7.020229,1.182244
319.000000,0.002000,-0.068374,0.221590,0.261979,-1.370288,-0.567413,-2.580297,-0.545954,-5.430358,-6.132470
320.000000,0.002000,-2.166733,2.091347,-1.146672,-2.436547,-0.897724,0.468946,1.268116,-1.236394,0.676252
321.000000,0.002000,-0.516016,0.749061,0.510601,0.257465,-1.583811,-0.229165,4.373602,-5.846453,-4.585696
322.000000,0.002000,-0.071131,-0.301628,-0.180300,-2.265372,1.479889,0.235168,-3.730490,11.410822,8.813582
323.000000,0.002000,-0.309313,1.953983,0.985061,-0.548499,-0.053910,0.192860,0.472210,-3.156965,-1.599400
324.000000,0.002000,0.742020,-0.347737,-0.347932,-1.341187,1.471411,-2.755555,-6.934299,3.563177,3.688231
325.000000,0.002000,0.595091,1.219102,1.679219,0.570356,-0.801760,-1.337533,-1.180205,-2.089456,-2.878605
326.000000,0.002000,-0.630081,-0.327165,-0.113776,0.500194,0.926184,2.053958,8.466515,5.128079,1.101712
327.000000,0.002000,0.647884,0.075204,0.605484,0.702848,1.130812,-0.708834,-5.928489,-0.131913,-4.727937
328.000000,0.002000,-0.765354,-0.198043,1.072690,-0.669323,0.559045,-1.185707,3.758344,0.561712,-5.762145
329.000000,0.002000,-1.010779,0.564094,0.061928,1.117903,-0.433027,1.117609,5.648925,-4.489684,0.108554
330.000000,0.002000,0.129919,-0.200526,-0.021911,-2.172979,-3.542399,1.015602,-5.347092,5.716420,-1.384425
331.000000,0.002000,0.234711,-0.058028,-0.576466,-0.920876,-0.510023,1.841568,-2.036874,-0.225270,9.359814
332.000000,0.002000,-0.213407,0.533376,0.032773,-0.641381,-0.752516,-1.069586,4.127838,-7.767647,0.523526
333.000000,0.002000,-0.317010,0.361202,-0.296744,0.499016,-0.179054,2.887018,4.764612,-6.531653,4.521525
334.000000,0.002000,-1.134131,-0.044158,1.320497,-0.841897,-1.348032,-0.091025,3.159240,0.006475,-3.771696
335.000000,0.002000,0.327348,0.323081,0.393350,1.224797,-0.082394,-0.660228,-4.443499,-4.881669,-5.920895
336.000000,0.002000,0.348265,0.504339,-1.705156,0.094274,-0.338450,1.179254,-0.809862,-1.121600,4.257538
337.000000,0.002000,-0.244932,0.155116,-0.221548,0.180739,-0.656945,2.785518,4.034673,-3.558392,-0.436000
338.000000,0.002000,1.084414,0.017067,1.394539,-1.833628,-0.312853,-1.069608,-2.775502,0.094649,-3.623654
339.000000,0.002000,-0.286563,-0.564643,-0.689559,1.719133,1.785490,-1.220094,1.624955,5.463523,6.676288
340.000000,0.002000,-0.929981,-0.285422,-0.153039,2.922576,-0.798666,-0.409192,8.241928,2.715408,1.638118
341.000000,0.002000,1.092835,0.328267,-0.260315,-1.034501,-1.156446,0.705518,-7.246982,-1.354483,1.655812
342.000000,0.002000,-1.634406,1.493079,-0.209851,-0.518715,-1.043293,1.324236,2.513476,-2.401805,0.300773
343.000000,0.002000,-1.156939,-1.712944,1.082529,0.227305,-0.691597,-0.473435,1.709580,2.405447,-1.790681
344.000000,0.002000,0.147848,-0.995304,0.227124,1.476308,0.990687,-0.232105,-1.347134,7.638042,-1.819511
345.000000,0.002000,0.395767,-0.185221,0.648580,0.732675,1.676218,-1.486169,-4.834790,3.288122,-8.566657
346.000000,0.002000,0.120669,0.357376,0.596133,-2.469856,-2.083594,-1.548832,-1.674543,-4.073967,-8.371583
347.000000,0.002000,1.090111,-1.102551,1.183824,0.979953,1.885594,-1.548076,-2.438487,2.333235,-2.499412
348.000000,0.002000,-0.072197,1.242989,1.418737,-0.851316,0.582164,-0.269606,0.082492,-2.994056,-3.404462
349.000000,0.002000,0.651199,-0.038599,0.147284,-3.015613,-1.097777,-1.136881,-9.489437,0.262637,-3.247521
350.000000,0.002000,0.414076,0.288854,-0.117180,1.521379,-0.032388,2.620384,-7.790613,-4.386485,3.450576
351.000000,0.002000,-0.845228,-0.256550,0.944700,0.733352,1.782546,1.454798,5.149995,1.516955,-4.428365
352.000000,0.002000,0.850752,2.952796,0.021334,-0.544195,-0.895108,-0.351463,-0.618146,-1.971541,-0.017947
353.000000,0.002000,-1.195574,2.363042,-0.768486,0.693983,1.603675,-0.753953,1.076488,-2.138543,0.696192
354.000000,0.002000,-1.224754,-0.001748,-0.545578,-0.128547,-0.476370,2.132777,5.475036,0.290933,2.287607
355.000000,0.002000,0.049872,0.794732,-0.337783,-0.486296,0.654850,-0.253358,1.093046,-8.282472,1.864704
356.000000,0.002000,-0.248622,0.731902,0.599850,-1.071401,0.368288,0.207311,3.330885,-5.596177,-7.250208
357.000000,0.002000,0.193717,-0.111523,-0.201464,-0.948339,-1.183292,2.835153,-7.025278,-4.205847,5.233355
358.000000,0.002000,-0.929834,0.072386,-0.929629,1.862979,0.150277,1.914013,4.760841,-1.151363,4.295018
359.000000,0.002000,0.325687,0.076235,1.786821,0.216286,-2.014345,1.294208,-0.835968,-0.166910,-4.469885
360.000000,0.002000,-0.271177,-0.292216,0.199759,2.648816,2.179799,-0.762385,6.443831,6.073904,-8.057601
361.000000,0.002000,-0.166905,0.264654,0.628068,0.850566,1.005725,-1.389363,1.753533,-2.624210,-8.655276
362.000000,0.002000,-0.832098,0.326033,-0.863667,1.266034,1.308193,0.833789,4.072640,-2.099793,5.227758
363.000000,0.002000,-0.786635,-0.370133,0.581053,1.585020,1.588071,-0.950679,5.933849,3.457310,-4.565147
364.000000,0.002000,0.161969,-0.696977,-0.232377,-0.129546,1.807084,0.327233,-1.473209,7.665098,2.114729
365.000000,0.002000,-1.407926,0.144451,2.561381,0.765415,1.791359,0.326542,1.123564,-0.094804,-2.011448
366.000000,0.002000,0.469737,-0.460313,0.212822,0.241775,-1.954755,0.237455,-5.596910,6.449268,-3.905860
367.000000,0.002000,-0.242394,-0.261875,-0.726053,-1.141349,-1.847248,2.278945,2.720419,2.236352,8.250066
368.000000,0.002000,-0.840162,1.310333,-0.297335,-1.229215,-1.523234,1.344583,2.819565,-4.506686,1.047174
369.000000,0.002000,-0.360422,0.200633,0.667050,1.351467,0.988473,-0.428343,4.137346,-1.931688,-8.772896
370.000000,0.002000,0.406186,0.937954,-0.232338,-0.822814,-2.009635,-1.381421,-2.908491,-7.215981,2.208395
371.000000,0.002000,-0.441274,0.844428,0.969384,-0.474446,-1.744029,-0.322730,1.991773,-4.018221,-4.521907
372.000000,0.002000,-1.711068,2.037016,1.552981,-0.190090,-1.304961,-0.673573,1.127971,-1.379008,-1.032966
373.000000,0.002000,-0.345908,-0.385806,0.894880,-0.074899,-1.290343,-2.252872,1.000314,1.650390,-6.699343
374.000000,0.002000,-0.176421,0.139252,1.228423,0.063979,-1.432892,-1.033312,1.082233,-0.610801,-6.582414
375.000000,0.002000,-0.636640,-0.464686,0.103007,1.952379,1.008525,-2.114458,7.194305,5.375113,-0.950452
376.000000,0.002000,0.625326,1.195851,0.004740,-0.383994,-0.655426,0.377454,-3.359075,-6.303205,0.322715
377.000000,0.002000,0.103853,-1.566022,-1.648072,0.798885,1.502029,-0.480070,-0.255082,2.410708,2.616050
378.000000,0.002000,-0.664407,0.559347,0.355934,-0.646690,-1.610002,-1.172859,7.554489,-5.245408,-4.586485
379.000000,0.002000,0.367623,0.547283,0.386410,0.455475,0.913598,-0.391456,-4.742592,-6.679513,-4.433534
380.000000,0.002000,-0.612849,0.551072,0.372176,-0.725950,-2.975983,-0.099275,4.780310,-4.763751,-5.018062
381.000000,0.002000,-1.634371,-1.470481,1.504861,0.080970,-0.039726,-0.392934,1.628068,1.460104,-1.485583
382.000000,0.002000,0.107699,-0.009403,0.164583,3.152934,-2.214523,0.596792,-3.158465,1.286282,-5.703483
383.000000,0.002000,-0.117026,-0.017400,0.501433,0.206959,0.395119,-3.060045,1.496318,0.960135,-9.081503
384.000000,0.002000,-0.268417,0.009818,-0.690907,0.249130,0.084299,3.215154,3.904796,0.072388,8.162283
385.000000,0.002000,0.529922,0.061597,-0.429552,-0.400524,-1.373142,-0.615705,-6.724435,0.083738,5.694266
386.000000,0.002000,0.901863,0.157561,0.628366,-2.195742,0.159272,0.018693,-6.244513,-0.753380,-3.941081
387.000000,0.002000,1.283196,-1.412026,-0.435770,-1.348990,0.910119,0.250410,-2.621972,2.852682,0.816154
388.000000,0.002000,0.904652,0.382112,-0.069814,-2.262356,-1.682096,-1.666067,-7.603746,-2.744540,0.515372
389.000000,0.002000,0.111000,0.814288,0.870326,-1.795007,0.272029,-2.618378,-1.002783,-4.866810,-5.805942
390.000000,0.002000,-0.368702,-0.057023,0.210381,-1.014202,-0.620764,-0.752420,7.717316,3.451251,-6.574078
391.000000,0.002000,-0.120885,0.104203,0.868056,-0.656041,2.888662,-1.196503,1.138500,-0.667641,-8.074356
392.000000,0.002000,-0.363788,1.038818,0.112732,-0.142277,-2.938444,0.329231,2.444050,-7.195588,-0.727078
393.000000,0.002000,0.320648,0.676430,-0.480585,-0.839886,-0.047144,1.276080,-2.823900,-6.699245,4.583136
394.000000,0.002000,0.763318,1.698804,0.190636,-0.834319,-1.274831,0.372123,-1.696078,-4.011439,-0.440514
395.000000,0.002000,-0.400325,0.221206,-0.178528,0.635526,0.904918,4.666495,7.533827,-3.465587,3.569907
396.000000,0.002000,0.014037,-0.072701,0.606866,0.316812,-0.661348,-2.451829,-0.422283,0.837151,-9.424386
397.000000,0.002000,0.493708,0.420259,-0.606601,-1.935838,1.277307,0.292023,-5.022118,-4.815105,6.864696
398.000000,0.002000,0.812308,0.329989,-0.395638,-1.963596,0.760868,0.818915,-7.609225,-3.004878,3.051634
399.000000,0.002000,0.594815,0.623899,0.011674,-2.749045,-1.810915,0.051625,-7.116420,-6.741662,-0.228236
400.000000,0.002000,-0.816275,-1.006237,0.180295,0.130540,3.019305,-1.047170,3.914226,5.370761,-1.057019
401.000000,0.002000,-1.100033,-1.267614,0.405355,0.081428,2.104275,-2.725257,3.548388,3.785972,-1.351568
402.000000,0.002000,0.899069,-0.899529,-1.115111,-0.208936,1.064148,0.904970,-2.733549,2.719164,3.046906
403.000000,0.002000,-0.116786,-0.511445,-0.047267,-2.314465,2.006588,-3.306197,2.949011,10.772860,2.003578
404.000000,0.002000,-0.048555,0.217390,-0.914707,-1.589923,-1.308677,-1.460546,-0.239463,-1.122753,10.414860
405.000000,0.002000,-0.431031,0.103486,-0.052665,-0.492591,-2.332040,1.416848,8.357762,-1.320510,2.194712
406.000000,0.002000,-0.649964,-0.022087,0.239479,-0.411284,-2.026740,-1.510241,7.474142,-0.161556,-4.335817
407.000000,0.002000,-0.349217,-0.760408,0.574671,2.556541,0.460351,-0.158439,2.723668,5.745983,-4.605950
408.000000,0.002000,0.414671,1.143983,-0.423405,1.518142,-2.508850,0.368308,-2.112231,-6.378765,2.279192
409.000000,0.002000,-0.459516,0.473979,0.192099,0.400367,-1.831296,-0.613038,7.830336,-7.939244,-1.557281
410.000000,0.002000,0.332305,-0.115371,0.360339,0.574294,2.178932,-1.113455,-2.803802,1.546711,-7.687393
411.000000,0.002000,0.219340,-0.270154,-0.462467,-2.595687,-1.381243,1.843695,-2.894766,8.108934,11.101966
412.000000,0.002000,1.074539,-0.612383,-0.926929,-2.027606,2.110476,1.890929,-3.867008,1.708291,3.346979
413.000000,0.002000,0.910043,0.855427,-0.382254,-1.148188,0.516849,0.832376,-4.579256,-4.408831,2.008691
414.000000,0.002000,-1.114351,0.959260,-0.511244,0.616624,-3.516118,-1.053115,3.748968,-3.476057,1.832292
415.000000,0.002000,0.286131,0.250048,0.570985,-1.345197,-0.756475,-0.940497,-2.741956,-3.647801,-9.122098
416.000000,0.002000,-0.608877,-0.389425,-0.398701,-1.595895,-2.210081,1.153808,6.969761,4.033754,5.594094
417.000000,0.002000,-0.255155,-1.395319,-0.534309,0.276515,1.774270,0.911323,0.758047,5.648380,1.950227
418.000000,0.002000,-0.567377,0.514828,0.301278,-1.043575,-2.247937,-1.356103,5.795531,-4.936267,-3.492252
419.000000,0.002000,-1.135753,-0.631497,-2.032161,-1.346976,1.476738,2.081651,1.386128,0.827934,2.610156
420.000000,0.002000,1.062598,-0.186251,-0.679977,-1.368839,1.109864,0.140450,-5.517735,1.114965,3.749631
421.000000,0.002000,0.100007,0.041591,-0.065133,-0.540980,3.825035,0.942771,0.545591,1.023835,-2.725844
422.000000,0.002000,1.369865,0.976731,0.533865,-2.177523,0.461997,0.115877,-3.833813,-2.837762,-1.299074
423.000000,0.002000,-1.576555,1.861732,-0.819200,0.364067,-1.219003,1.424165,1.654881,-2.013667,0.840850
424.000000,0.002000,1.474075,-2.135830,1.185288,-1.192902,0.333111,-0.668594,-1.237555,1.701162,-0.973277
425.000000,0.002000,1.635583,-1.291761,1.238719,-0.555013,-0.507301,1.288543,-1.903846,1.567724,-1.698639
426.000000,0.002000,-0.078450,-1.257238,-0.396753,-1.387205,0.192186,2.764685,0.010348,6.679688,1.441558
427.000000,0.002000,-0.996351,0.048190,0.252150,2.011068,-1.250969,0.419140,7.996829,0.029396,-1.720937
428.000000,0.002000,-0.191066,0.722310,0.424028,1.110610,-1.682187,-0.971787,-0.337070,-2.784801,-6.520889
429.000000,0.002000,-0.957568,-0.361265,0.503727,0.707851,2.450175,-0.708445,6.213509,2.580841,-3.295049
430.000000,0.002000,-0.594614,0.103307,0.744782,0.583669,-0.175658,-2.973552,5.815374,-2.598288,-6.983846
431.000000,0.002000,0.194527,0.019329,0.247606,-1.472019,2.444005,-0.693829,-4.096655,-0.444964,-5.498192
432.000000,0.002000,-0.180600,0.981023,-0.777585,1.888996,-2.239319,0.244794,1.045084,-4.976562,4.165071
433.000000,0.002000,-0.075783,-0.004826,0.313112,-0.528549,-0.776077,-0.763472,1.973433,0.104529,-8.915086
434.000000,0.002000,-2.182930,-1.523261,-0.576290,0.061961,0.222662,-0.120232,2.018964,1.456734,0.532485
435.000000,0.002000,0.026773,0.399595,-0.076092,-0.969602,0.324275,2.573852,-0.939452,-7.859545,1.793692
436.000000,0.002000,-0.948938,-0.676984,-0.103906,2.014607,0.112201,1.062123,6.242333,3.621933,0.619163
437.000000,0.002000,-0.245992,-0.622937,0.029003,-1.473476,0.724668,-1.767185,2.349433,8.287939,0.132940
438.000000,0.002000,-0.096262,0.064644,-0.237556,1.956376,0.540167,1.302065,1.940116,-1.955269,5.916785
439.000000,0.002000,-0.537098,0.745368,-0.688304,1.150448,-0.616910,1.141343,3.297146,-4.614887,4.555726
440.000000,0.002000,0.088316,0.166677,-0.282742,1.334291,0.114958,3.467827,-3.078483,-0.248149,10.629812
441.000000,0.002000,-0.771632,0.073110,0.169999,0.503300,1.903319,1.230903,9.664693,-1.287156,-1.533772
442.000000,0.002000,-0.325690,-0.364825,-0.072343,0.209456,2.115416,0.565554,7.089177,6.797556,2.065985
443.000000,0.002000,-0.219532,-0.852741,0.803117,-3.365845,-0.899836,-1.776166,0.921861,4.942494,-4.819204
444.000000,0.002000,0.609450,1.229223,-1.031737,0.184618,0.060838,0.171746,-1.557346,-3.204889,2.997412
445.000000,0.002000,0.356467,0.117953,-0.461537,-0.364608,-0.410887,1.353282,-6.424333,-0.980321,7.202645
446.000000,0.002000,-1.277587,-0.617239,0.627283,-0.200867,2.339330,-2.281090,4.233090,2.205142,-2.370496
447.000000,0.002000,-0.720189,1.465596,-0.629729,0.998987,-0.671196,0.034532,1.826921,-4.122673,1.621503
448.000000,0.002000,-1.256248,0.343245,0.096897,0.504855,-1.065925,1.683920,6.779669,-2.041402,-0.091943
449.000000,0.002000,0.390907,-0.521563,0.176666,-1.305885,0.716369,-1.262754,-4.954987,6.943541,-3.517310
450.000000,0.002000,-0.729586,0.316146,-0.190205,1.862907,-1.762585,-1.307654,8.223894,-3.286831,2.872673
451.000000,0.002000,-0.815744,2.621894,0.374022,0.383746,-0.591557,-0.430454,0.720667,-2.299903,-0.356599
452.000000,0.002000,1.354241,1.584550,-0.072010,-2.427586,-0.598374,0.291065,-2.454174,-2.908780,0.221222
453.000000,0.002000,0.057777,-0.247146,-1.158953,0.947982,0.480200,2.662080,-1.196043,-0.183596,7.268943
454.000000,0.002000,-0.573466,-0.120415,1.120264,0.807084,-0.707065,-2.017940,2.994244,0.246817,-6.656442
455.000000,0.002000,-0.804761,0.680677,-1.011200,0.505799,-0.989770,1.332950,3.098432,-2.753611,4.089282
456.000000,0.002000,-0.706564,0.079142,-0.417187,1.219779,1.273432,-1.125050,7.954410,-0.827381,5.625483
457.000000,0.002000,0.506506,0.627242,1.014003,-0.420132,-1.470770,-0.499400,-2.788577,-3.039760,-7.766389
458.000000,0.002000,-0.283044,1.055753,1.459084,-1.022776,0.796380,-1.223017,0.485598,-2.746859,-3.784367
459.000000,0.002000,-0.206635,0.427417,-1.437748,0.789376,-1.061120,1.817950,0.589559,-1.608618,5.300685
460.000000,0.002000,0.840632,0.386188,-0.117018,-0.564589,1.424641,-0.110321,-7.500082,-3.412106,1.405717
461.000000,0.002000,0.550684,0.404077,1.440861,-1.529799,0.261045,0.105836,-2.078409,-1.138971,-4.736621
462.000000,0.002000,1.324811,0.706004,0.799681,-1.138820,0.283645,-1.297362,-4.074413,-2.256350,-2.477831
463.000000,0.002000,-0.603870,-0.164381,-0.463057,0.552601,-0.010853,1.212075,7.435332,1.172026,4.936338
464.000000,0.002000,0.567106,0.121315,-0.347974,-2.138955,-0.980549,1.025587,-7.501559,-1.299365,4.914604
465.000000,0.002000,-0.394263,0.173755,-0.133080,-0.306704,-2.942075,0.220264,7.299830,-2.495466,3.031385
466.000000,0.002000,-0.734486,0.426950,-1.990927,0.748753,0.435379,0.748505,1.230961,-0.784161,3.289254
467.000000,0.002000,0.099736,-0.326579,-0.227582,-2.046000,1.045691,1.305537,-2.143379,5.460006,4.857011
468.000000,0.002000,0.198889,-0.329559,1.023547,-1.715695,2.584259,-2.902997,-1.777172,2.541270,-6.900830
469.000000,0.002000,-0.605743,-0.231009,0.561741,0.640954,1.112793,-2.057812,5.470535,2.383219,-4.991713
470.000000,0.002000,0.388607,1.963624,0.097226,-0.795286,-1.775502,0.621686,-0.773080,-3.925285,-0.175713
471.000000,0.002000,0.313677,-0.757327,-0.441876,0.462624,2.822363,0.321218,-4.018852,7.255614,4.094763
472.000000,0.002000,-0.817635,-0.488453,-2.325187,0.065592,0.066532,-0.437841,0.938399,0.564381,2.718949
473.000000,0.002000,1.252265,-1.471798,-3.030231,-0.970442,0.040897,-0.136685,-0.555412,0.629962,1.291180
474.000000,0.002000,-0.437852,0.690886,-0.888859,2.151034,2.212649,1.615924,2.335643,-4.005014,5.113119
475.000000,0.002000,0.821916,0.358311,-0.463808,-1.957416,0.588400,-0.497689,-7.299777,-3.247256,4.016907
476.000000,0.002000,0.326452,-0.238274,0.290651,-1.532387,-0.676189,-2.511259,-7.150424,6.323697,-5.160673
477.000000,0.002000,-0.739817,-0.830128,1.554827,1.283032,-0.094520,0.991271,1.620583,1.971324,-3.543310
478.000000,0.002000,-1.260121,-1.788551,0.395177,3.052943,-0.280747,-0.336491,1.672100,3.291713,-0.540014
479.000000,0.002000,0.145358,0.831168,-0.381194,1.424386,-1.766302,-2.151867,-1.384738,-7.677776,4.054067
480.000000,0.002000,-0.765486,-0.590741,1.362089,1.451354,-1.837178,-0.609857,2.599815,1.398725,-4.704511
481.000000,0.002000,0.255980,0.223628,-0.220187,-0.540792,2.613260,-2.283776,-5.626278,-4.074176,5.723612
482.000000,0.002000,0.126062,0.046606,0.004560,-1.964721,-1.330634,-2.093856,-4.603092,-1.202221,1.335258
483.000000,0.002000,-2.402585,1.002710,1.470128,1.573883,0.096518,-0.909771,1.771153,-0.755888,-1.098372
484.000000,0.002000,0.700641,1.005059,-0.106735,-0.437202,0.585502,-1.870333,-4.188262,-5.971198,1.354179
485.000000,0.002000,0.071017,0.544494,0.527097,-0.915805,-1.534542,0.042191,-1.149967,-5.563503,-6.988511
486.000000,0.002000,-0.980097,-0.387671,-1.808790,0.021061,1.516653,-0.816864,1.751110,0.673007,3.363179
487.000000,0.002000,-1.005249,-0.730788,1.009428,1.325702,1.146561,-2.167450,3.365812,2.664047,-3.249110
488.000000,0.002000,0.465223,-0.660339,0.356963,-1.522558,1.005465,1.138593,-4.908353,6.745310,-3.429410
489.000000,0.002000,-0.342293,0.418851,0.444591,-0.305120,1.937479,-0.272056,4.631404,-5.849350,-6.453247
490.000000,0.002000,0.429554,-0.218213,0.033587,-2.009848,0.020958,-0.985640,-7.642391,4.145686,-0.632675
491.000000,0.002000,0.291803,-0.292512,-0.191658,-2.478862,0.761154,-0.839547,-5.818993,3.741731,2.774438
492.000000,0.002000,-0.264186,0.094742,0.281038,1.044786,0.047802,0.713167,4.914216,-1.878929,-8.021663
493.000000,0.002000,-0.465103,0.216774,0.685581,1.005657,-0.323910,-0.958756,5.277736,-2.142292,-6.941695
494.000000,0.002000,0.233943,-0.327234,-0.416194,-0.431656,-1.553513,1.880956,-4.258378,5.506971,7.726847
495.000000,0.002000,-0.748814,0.577538,0.655971,1.854161,-0.286603,-0.813545,4.657646,-3.606436,-4.137024
496.000000,0.002000,0.187480,0.866799,0.672342,0.058083,-2.032963,-1.296583,-1.439014,-5.946120,-4.647989
497.000000,0.002000,1.672120,-0.407152,-1.189797,-2.670856,-0.295246,0.003973,-2.969880,0.585260,2.123602
498.000000,0.002000,-0.517459,0.204946,-0.288131,1.851632,1.533000,-1.377799,8.369464,-3.616854,4.470750
499.000000,0.002000,-1.520839,0.357087,-0.478920,2.183936,-2.278610,-0.259989,4.839503,-1.252163,1.474959
500.000000,0.002000,0.591189,0.202629,0.410356,0.678228,3.018792,0.390780,-7.274257,-2.111753,-5.785051
501.000000,0.002000,-0.245359,0.045600,0.690444,-0.224870,0.314117,-0.706228,2.694859,0.344575,-8.961856
502.000000,0.002000,-0.362726,-0.235949,0.439347,1.111398,2.164649,-1.191813,4.764532,3.412237,-5.994273
503.000000,0.002000,0.209818,-0.206910,1.167982,-0.075561,-0.633678,-1.146878,-1.405089,1.553493,-7.067324
504.000000,0.002000,0.381072,-0.645327,0.588666,2.712067,1.385066,-2.499587,-3.769538,5.402038,-5.661478
505.000000,0.002000,-1.670843,-1.568635,0.306337,0.209564,0.000216,-1.183596,2.386212,2.246525,-0.403410
506.000000,0.002000,1.148422,-0.100068,-0.109603,0.418251,-0.326850,0.102254,-6.959096,0.926483,0.013582
507.000000,0.002000,-0.271516,0.110797,0.164221,-0.198667,0.189475,-3.708210,6.618878,-3.096091,-5.152260
508.000000,0.002000,0.113273,1.072264,1.353702,1.040062,2.011663,-1.927681,-0.583104,-3.087074,-3.974298
509.000000,0.002000,0.485644,2.384019,0.273011,0.841759,-0.445101,0.700219,-0.467661,-3.026129,-0.401646
510.000000,0.002000,0.249975,-2.330648,0.249036,-2.499167,-0.606999,0.122148,-0.338793,3.178989,-0.230996
511.000000,0.002000,-0.961281,1.311056,-0.687441,1.814590,0.264221,1.543800,2.529027,-3.436297,1.686274
512.000000,0.002000,0.275379,-0.596799,-0.083351,-0.745010,0.582929,2.931074,-3.415350,8.880855,1.033189
513.000000,0.002000,-1.108979,0.271772,2.735635,1.310077,1.568963,1.443645,0.805782,-0.187827,-2.121269
514.000000,0.002000,-0.513608,-0.031142,0.142215,0.821857,-2.401513,0.205700,8.318586,1.582594,-2.239972
515.000000,0.002000,0.061455,-0.608879,-1.071944,-1.945887,3.385067,-0.433901,-0.305811,3.856710,6.264513
516.000000,0.002000,0.539984,-0.721174,-0.335870,-1.966770,0.005564,-0.121340,-4.895797,6.200993,3.381897
517.000000,0.002000,-0.125111,0.476027,0.409211,0.992724,-2.766095,-0.631830,2.560929,-7.655590,-6.529393
518.000000,0.002000,0.241745,0.347295,0.154072,-0.052085,-1.763160,-1.541548,-5.045897,-6.212933,-3.592943
519.000000,0.002000,0.113608,1.412657,-0.549027,-0.268604,-1.435633,-0.624222,-0.273654,-5.285365,2.162771
520.000000,0.002000,0.773946,0.643266,0.093696,-0.210313,2.037495,-0.330333,-1.498053,-2.777643,-4.763247
521.000000,0.002000,1.794494,-0.858715,-0.402152,-0.388138,-0.056453,1.726250,-3.469477,1.715348,0.757681
522.000000,0.002000,-0.420716,0.322047,0.290951,-2.673758,0.474446,-0.396144,7.477789,-4.334105,-5.129743
523.000000,0.002000,0.427743,-0.053324,0.313822,0.191664,-0.231578,-2.355200,-6.480339,1.669789,-6.209571
524.000000,0.002000,-0.425090,-0.790114,0.264280,1.635544,1.749863,0.052556,3.641561,7.452228,-2.068380
525.000000,0.002000,-2.109643,-1.408051,1.407034,-0.613606,0.210820,-1.230870,1.669729,1.124492,-1.123303
526.000000,0.002000,-0.067025,0.334479,0.524136,-1.976526,0.249747,-2.870474,1.411380,-4.553988,-7.500051
527.000000,0.002000,-0.891276,-0.892412,-0.193720,1.325550,-0.274973,-1.713204,4.816837,5.194602,1.289610
528.000000,0.002000,1.147579,-0.030339,-1.485853,0.071577,-1.149701,2.839471,-2.632846,0.005239,3.470247
529.000000,0.002000,-0.745134,0.375880,-0.628959,1.575400,-0.845905,0.205038,4.855240,-3.255476,4.761953
530.000000,0.002000,2.639743,0.840331,0.517133,-0.367332,-0.344269,-0.181882,-2.297245,-0.716664,-0.421009
531.000000,0.002000,-0.291887,-0.004525,-0.501939,2.946718,0.155402,-0.736946,4.100393,0.571317,8.003007
532.000000,0.002000,0.903230,1.066921,1.037840,-1.014649,-0.293060,-0.663277,-2.248067,-3.053649,-3.234342
533.000000,0.002000,-0.923750,1.384169,-1.396781,0.303898,-0.575788,0.487323,1.383596,-2.294308,2.272291
534.000000,0.002000,0.107071,0.603573,0.425156,1.316823,-0.929968,0.482077,-2.540973,-7.474530,-5.912177
535.000000,0.002000,-1.475746,-0.614023,-0.950620,-0.192229,0.784764,1.802631,3.933692,1.422330,2.591858
536.000000,0.002000,0.127676,0.045040,0.022773,-1.594827,-3.443093,0.229290,-4.940639,-0.255063,-5.513804
537.000000,0.002000,-0.424779,-1.107781,0.897131,0.310705,1.626404,-0.668797,1.658100,4.390799,-3.265777
538.000000,0.002000,1.978825,-2.950602,-0.830147,-0.714818,-2.000351,0.571343,-0.803154,1.182594,0.320565
539.000000,0.002000,-0.605039,-0.501472,0.402860,1.235546,0.966158,-0.214180,5.622116,5.139339,-4.270187
540.000000,0.002000,1.738383,0.956927,0.387787,-0.547560,-0.556031,-0.481566,-3.572068,-1.970722,-0.730139
541.000000,0.002000,-0.166292,-0.260350,-0.524345,1.717893,2.456395,1.768034,3.066877,3.433441,9.470873
542.000000,0.002000,1.308850,0.402990,-0.378764,-1.676704,0.680360,0.487999,-5.536571,-1.371340,1.679331
543.000000,0.002000,-0.611391,0.240910,-0.845844,-0.261349,-1.684538,2.106867,4.160462,-1.626566,6.083492
544.000000,0.002000,2.091869,-0.059855,-0.529412,0.419641,-0.472393,-0.389974,-3.344054,0.051759,0.906280
545.000000,0.002000,0.605912,-0.715015,-0.213851,-0.853409,-1.106267,0.779851,-5.839202,6.278151,1.495173
546.000000,0.002000,-0.246760,-0.101505,0.162814,0.527505,2.327335,-1.932059,5.930413,2.288474,-5.856378
547.000000,0.002000,-0.696400,-0.350469,-0.325820,0.816945,2.109195,-0.666672,7.302962,2.973640,4.751916
548.000000,0.002000,1.071506,-0.195229,-0.325397,-1.791239,-0.109090,1.036961,-6.521649,1.447723,1.817409
549.000000,0.002000,-0.279944,1.450222,-1.630676,-1.348820,-1.503541,0.185504,0.377035,-2.494466,2.494525
550.000000,0.002000,0.159458,-0.291358,0.717881,-0.905531,-0.701730,-2.306799,-2.719607,3.956441,-8.599633
551.000000,0.002000,0.152579,0.054049,-1.365749,-2.009423,0.447135,1.781836,-1.108666,-0.375866,6.428930
552.000000,0.002000,0.434051,-0.395769,-0.598198,-1.572488,1.610274,1.693848,-4.819367,3.913852,6.223053
553.000000,0.002000,1.403657,-1.326800,0.710705,-0.087668,-0.294931,-1.806213,-2.658025,2.452441,-1.214114
554.000000,0.002000,0.035147,0.451234,0.440294,-1.187502,-0.605183,-0.803182,-2.044773,-3.814820,-7.077846
555.000000,0.002000,-0.351068,-0.331889,0.020665,3.625048,3.995252,-0.452803,7.613224,4.455778,-1.396878
556.000000,0.002000,0.610117,-0.029694,-0.689510,-0.929272,-0.216380,1.549708,-5.852762,-0.592286,4.954665
557.000000,0.002000,0.184709,-0.123486,-0.280410,-0.017614,0.046793,2.623769,-5.991312,4.292681,6.712558
558.000000,0.002000,1.114865,-1.840284,-0.595855,-0.237556,0.509747,-2.325089,-1.707840,3.748240,1.442072
559.000000,0.002000,0.422977,-0.004742,-0.220662,-0.842731,-2.543469,2.609718,-7.394437,-0.042862,5.501824
560.000000,0.002000,0.511445,2.337276,-0.020147,0.698395,-0.408564,-1.431216,-0.620188,-3.000023,0.040608
561.000000,0.002000,0.535957,0.788866,0.326892,0.082596,-0.660474,0.015684,-4.248599,-6.182880,-2.894441
562.000000,0.002000,1.078106,0.572893,-0.644008,-3.187770,-1.313220,-0.754157,-4.171683,-2.034811,2.985319
563.000000,0.002000,0.869542,0.099624,-0.041141,-0.197217,1.233740,-3.161961,-9.256632,0.529956,1.899881
564.000000,0.002000,-1.002034,-1.772774,1.052101,1.159630,0.231562,-1.183767,1.247143,2.688882,-1.609233
565.000000,0.002000,2.407584,0.260271,0.178874,-0.274658,-0.503362,0.057599,-3.103752,-0.205815,-0.322634
566.000000,0.002000,-0.130255,-0.042562,-0.117424,-1.799734,1.914883,-0.678583,2.245711,0.298903,3.117766
567.000000,0.002000,-0.160009,-0.104640,-0.546827,-0.175435,-1.700937,3.513498,3.085575,0.944680,9.810589
568.000000,0.002000,-0.875645,0.039534,0.656947,0.433483,-2.133542,2.211669,5.736085,-0.413343,-4.614008
569.000000,0.002000,-0.704751,2.088619,0.188747,0.863270,-0.673540,0.259336,1.006386,-3.332251,-0.235937
570.000000,0.002000,-0.484586,-0.917814,0.542718,0.614689,2.671218,-0.973015,1.963354,5.210180,-2.377997
571.000000,0.002000,0.164332,-1.168071,-0.227104,-1.540192,-0.648689,2.287287,-1.496795,6.662921,0.852061
572.000000,0.002000,-0.097706,-0.772757,-0.694502,-0.098308,1.185991,1.526368,0.835699,5.863024,5.531365
573.000000,0.002000,0.378378,-0.296521,0.076802,0.315371,2.793330,-0.824559,-6.103209,4.240845,-2.804196
574.000000,0.002000,0.950640,-1.046667,-1.048624,0.190774,0.238049,1.231984,-2.749632,2.962999,2.641633
575.000000,0.002000,1.789931,-0.979438,-1.198291,-0.187850,0.298972,-0.718752,-2.428812,1.316883,1.538898
576.000000,0.002000,0.182509,0.716551,-0.170173,-0.538865,-1.151092,0.629416,-1.859264,-9.139574,2.466825
577.000000,0.002000,0.344852,0.071466,-0.036000,-1.357431,0.923678,2.722858,-7.262969,-2.107876,-0.670778
578.000000,0.002000,1.662985,2.987679,1.625827,0.313135,0.711995,-0.312101,-0.611077,-1.095610,-0.603289
579.000000,0.002000,0.055547,1.437492,0.252934,-0.290672,-1.995122,-0.451043,-0.263329,-6.135859,-0.903918
580.000000,0.002000,-1.153340,-0.061200,-0.095569,0.053521,-1.238239,0.232923,7.371113,0.491628,0.816567
581.000000,0.002000,0.080114,-1.049018,0.285017,2.368250,0.987895,-1.594291,-0.939910,7.395463,-2.321380
582.000000,0.002000,-1.576541,1.125983,-1.201542,1.091717,0.759619,1.273927,2.258222,-1.561177,1.741202
583.000000,0.002000,-1.897016,-1.509746,2.061606,0.723482,0.885659,-0.096139,1.159257,0.935331,-1.264277
584.000000,0.002000,0.182202,0.781099,1.388764,0.650106,0.995714,-1.182979,-0.739639,-2.321276,-4.779488
585.000000,0.002000,0.547553,-1.498262,-0.085840,-1.336199,0.752209,-2.050667,-1.958431,4.342799,0.520684
586.000000,0.002000,0.089115,-0.467041,-0.297287,-0.613986,0.868039,0.019500,-1.723551,7.985701,7.332407
587.000000,0.002000,0.760080,-0.275205,-0.312140,-2.504543,1.883144,-1.306488,-9.342874,2.991137,1.987280
588.000000,0.002000,-0.404946,-1.048295,-0.712372,-0.573305,2.567091,0.702970,2.497341,5.142955,3.557708
589.000000,0.002000,-0.395435,0.335453,0.198067,-0.632031,-3.091452,-2.453936,6.864824,-3.685168,-0.749287
590.000000,0.002000,0.905843,-1.165416,1.447613,0.293676,-0.237966,-1.314474,-1.778853,2.126719,-2.041439
591.000000,0.002000,-0.418482,-0.030156,0.154265,-0.372034,2.720257,0.440766,8.888812,2.178507,-2.737388
592.000000,0.002000,1.107839,-0.391302,0.144828,-0.808436,-0.381861,-2.012874,-6.555224,2.494682,-1.906486
593.000000,0.002000,0.195862,0.339442,-0.690505,-2.505647,-0.764612,1.590004,-1.905955,-3.839167,8.631359
594.000000,0.002000,0.763592,-0.563193,1.194347,0.818609,-0.926550,-2.362182,-2.771846,1.801178,-4.689262
595.000000,0.002000,-1.804517,0.142929,-0.489341,0.611148,0.516466,0.468170,4.111152,-0.609608,0.929735
596.000000,0.002000,-0.917662,-1.668596,0.563954,-2.293214,2.313007,-1.396176,1.623924,3.497367,-1.193670
597.000000,0.002000,0.149811,-0.768461,0.086131,0.101996,3.685956,0.838804,3.444299,7.853900,-1.126639
598.000000,0.002000,0.529426,-1.494918,-0.447374,-0.599845,1.231625,-0.676775,-1.718664,4.652285,1.293490
599.000000,0.002000,-0.123335,-0.668042,0.091550,2.644265,1.169530,-0.036287,0.938973,9.542744,-2.112741
600.000000,0.002000,0.720100,0.231520,-0.036626,-0.296817,1.338136,-0.841672,-9.380835,-3.439594,0.579583
601.000000,0.002000,0.791686,-0.040521,0.508750,-1.076505,0.639605,-2.845427,-6.928559,0.634249,-4.662161
602.000000,0.002000,0.618083,0.031087,-0.917633,-2.672853,1.083432,0.407201,-4.342203,0.140246,6.481392
603.000000,0.002000,0.023010,0.021190,-0.137812,4.449592,0.142677,1.098152,-7.248402,-0.772118,0.855894
604.000000,0.002000,0.129329,-0.533684,-0.307244,-1.868268,3.287431,0.510146,-2.060617,8.520939,6.534742
605.000000,0.002000,0.570740,-0.405261,-0.036014,-2.150210,1.619855,1.846059,-8.762070,6.162877,1.261211
606.000000,0.002000,-0.870044,1.843561,-0.329105,1.485157,-2.219303,0.979449,1.701339,-3.504417,0.614966
607.000000,0.002000,-0.695271,-0.657766,-1.046921,1.944432,0.854938,0.267898,3.257262,2.773302,4.520389
608.000000,0.002000,-0.720076,0.088270,0.178524,0.338784,-2.333537,0.859901,8.761029,-2.425333,-2.350579
609.000000,0.002000,-0.274165,0.136447,0.239627,2.497678,3.788677,-0.110765,7.570761,-2.664521,-4.843014
610.000000,0.002000,0.192787,0.487230,-0.308991,0.221747,-3.643423,-0.193507,-3.450583,-6.019552,8.446242
611.000000,0.002000,-0.037017,-0.183603,0.235418,0.190653,2.867126,0.596377,0.158016,5.678774,-7.251060
612.000000,0.002000,0.329598,-0.405629,-0.863548,1.415663,0.421683,1.499227,-2.680519,2.533581,6.937322
613.000000,0.002000,0.277959,0.236852,0.169202,-1.412680,0.425212,0.515023,-5.850663,-4.681471,-2.137916
614.000000,0.002000,-1.479334,0.230997,-0.132368,1.657612,-0.782706,-1.271312,5.611930,-0.900347,0.712503
615.000000,0.002000,-1.305738,1.587874,-0.947864,-0.476049,0.631033,1.283286,1.990008,-2.375651,1.325530
616.000000,0.002000,0.386067,-0.016026,0.087854,-0.091544,0.706386,3.616729,-8.906968,1.308714,-0.926221
617.000000,0.002000,0.202639,0.805783,-0.243517,-0.122208,-3.194207,-0.400295,-3.367150,-7.026445,0.273460
618.000000,0.002000,-0.253091,0.095182,0.704954,1.211453,-1.135105,0.011641,3.131703,-0.049084,-8.094549
619.000000,0.002000,0.399254,-0.224123,1.423829,0.419756,0.674460,-1.155370,-1.456871,0.975754,-4.865381
620.000000,0.002000,0.034082,-0.473914,0.069367,-1.331751,1.459670,0.031120,-1.372835,8.870921,-2.033559
621.000000,0.002000,0.178441,0.260665,0.083193,2.001950,1.412596,1.660394,-4.759000,-6.784164,-2.092924
622.000000,0.002000,-1.210771,1.115565,-0.332706,0.711428,-0.071143,0.134959,3.628235,-3.412536,1.104764
623.000000,0.002000,0.723072,0.437802,-0.694284,-0.787726,1.977820,-0.424967,-4.973062,-4.355365,5.406289
624.000000,0.002000,-0.322656,0.563865,-0.007370,1.683152,-1.524861,0.745226,4.987750,-7.866442,0.408481
625.000000,0.002000,-1.294839,-1.633021,-0.301110,-0.698971,0.807371,-1.094522,2.359088,3.132690,0.601678
626.000000,0.002000,-0.542912,-0.176755,-0.599427,1.417887,-0.127266,0.869241,5.864038,1.651983,6.697769
627.000000,0.002000,0.307512,-0.406429,0.772904,-2.228904,-1.637510,-0.624238,-3.674467,3.926856,-8.210332
628.000000,0.002000,0.151430,-0.757205,0.647770,1.522722,-1.854054,-3.429656,-1.910855,6.424861,-5.075183
629.000000,0.002000,-0.474637,-1.052245,-1.163398,1.076610,-1.988798,1.944694,1.265651,3.497689,3.558018
630.000000,0.002000,0.883901,-0.553819,1.038009,-1.738092,0.129673,-0.224998,-3.239295,1.675660,-3.919929
631.000000,0.002000,-2.091221,2.253717,-0.447303,-0.363093,0.509754,-0.106930,1.318114,-1.493610,0.281824
632.000000,0.002000,0.234551,-0.128369,0.322605,-1.622714,-0.373332,0.385261,-3.926092,3.516681,-8.235331
633.000000,0.002000,1.943835,-2.213048,0.481195,0.127098,-0.698389,0.278788,-1.408393,1.588055,-0.335572
634.000000,0.002000,0.516389,-0.077998,0.582026,-2.128529,-0.079049,0.491634,-6.738218,0.697307,-8.013594
635.000000,0.002000,0.601852,0.198285,0.098565,0.455907,3.357283,-0.192604,-9.119902,-2.581866,-2.374762
636.000000,0.002000,-0.190928,-0.508864,0.105215,-1.489503,-0.079144,0.537860,3.365382,10.048996,-2.580607
637.000000,0.002000,-0.775174,0.335089,0.766762,0.251811,1.073103,-2.111498,4.706209,-2.232157,-5.126474
638.000000,0.002000,-1.393813,-0.493313,-0.565170,2.398679,-0.877671,-0.201503,4.473563,1.513149,2.211633
639.000000,0.002000,1.016582,0.196541,1.523677,-1.439611,0.223501,-0.681438,-2.815376,-0.247899,-3.609442
640.000000,0.002000,-2.631002,-0.264301,-0.428770,-0.282841,-1.463404,-1.351243,2.729021,0.289547,0.335497
641.000000,0.002000,1.161045,-1.225996,0.776587,-1.071705,1.514356,1.633744,-2.627980,2.863140,-1.598531
642.000000,0.002000,-0.199166,-0.018506,0.981201,-0.389345,1.225810,-1.868047,1.814824,0.403374,-7.297693
643.000000,0.002000,0.171198,2.257840,1.477649,1.027662,-0.135090,0.493256,-0.144022,-2.155151,-1.423471
644.000000,0.002000,0.986999,0.134776,-1.523760,-0.537951,-1.036945,-0.051786,-2.414117,-0.367675,3.734363
645.000000,0.002000,0.083106,-0.243044,0.088914,1.268432,-1.328167,-2.014377,-4.568183,5.228250,-2.021695
646.000000,0.002000,1.613143,-0.586868,-0.829272,-0.233359,0.081490,0.538900,-3.593474,1.283964,1.851773
647.000000,0.002000,1.240218,-0.687374,-0.215087,-0.260998,0.987966,-2.338297,-4.935920,2.588041,0.525693
648.000000,0.002000,1.174518,-0.078562,0.134914,-1.450208,-1.107605,0.924570,-7.032100,0.647388,-1.068463
649.000000,0.002000,-0.151983,0.612625,-0.030740,0.050936,-1.423380,0.138846,2.808924,-9.010490,1.710421
650.000000,0.002000,3.127628,-0.812086,-0.610151,1.389431,0.509363,0.909660,-1.731134,0.488043,0.328293
651.000000,0.002000,-0.738741,0.101527,-1.835408,0.808503,1.424440,1.454472,1.680288,-0.234551,3.728602
652.000000,0.002000,0.186352,-0.431555,-0.102581,1.692994,1.818109,-0.299201,-3.616165,7.569335,1.544147
653.000000,0.002000,0.866491,-0.316806,0.847019,0.137670,2.442664,-1.048690,-4.542161,1.822622,-4.783971
654.000000,0.002000,1.419175,-0.308084,1.608953,-1.327528,-0.073662,-0.517930,-2.288932,0.545122,-2.620750
655.000000,0.002000,-0.338386,2.013115,0.798164,-1.016724,-0.740268,-0.966605,0.533873,-3.312171,-1.329870
656.000000,0.002000,-1.087105,0.206413,1.751456,1.532289,0.315794,0.675037,1.986490,-0.283183,-3.236616
657.000000,0.002000,0.671833,0.099172,0.635972,0.602480,0.338260,-2.508312,-6.525609,-1.260253,-5.607708
658.000000,0.002000,-0.234046,-0.108932,0.137714,2.192275,0.096452,-0.797624,4.384220,2.855236,-2.176919
659.000000,0.002000,-0.291488,0.613268,1.137426,0.473861,0.820682,-0.452122,1.379834,-2.712110,-5.434147
660.000000,0.002000,0.571394,0.086856,-1.254704,-0.248638,1.868747,0.821576,-2.515439,-0.569863,5.595181
661.000000,0.002000,0.034747,-0.117914,-0.804767,2.046981,-0.071694,0.080353,-0.379234,1.491401,8.718718
662.000000,0.002000,-0.522994,-0.596105,-0.989885,1.251292,0.462301,2.012166,2.724885,3.398176,5.315267
663.000000,0.002000,0.353128,0.391845,-1.024520,-0.412940,0.403247,1.739913,-2.024701,-3.063412,6.760618
664.000000,0.002000,0.233167,0.860976,-1.204304,0.270045,-1.773859,-0.074822,-0.816931,-3.179727,4.509972
665.000000,0.002000,0.404339,-0.535102,-0.003340,-3.142255,0.613546,-0.486782,-9.074579,1.142042,2.253446
666.000000,0.002000,0.171080,0.482209,0.146286,-0.117796,-3.311511,-0.353451,-4.081418,-10.302904,0.241985
667.000000,0.002000,-1.031515,-1.332886,-1.062648,0.666810,0.546052,1.479210,2.339208,2.699557,2.264376
668.000000,0.002000,-0.421885,-0.494996,-0.302141,3.770333,-0.463139,2.086231,6.784030,6.760117,4.507531
669.000000,0.002000,-0.973815,-0.681672,-0.133162,-0.789382,0.939591,1.805841,6.948649,3.941375,2.480249
670.000000,0.002000,0.097210,0.526406,0.823482,1.187550,-1.032097,-1.456073,-1.584237,-4.080025,-7.262835
671.000000,0.002000,0.258526,-0.447726,0.702921,-0.720406,2.015717,-0.983015,-3.000545,5.084874,-6.934461
672.000000,0.002000,0.722868,0.249089,-0.648574,-0.906011,-0.442597,0.692350,-5.529537,-0.643640,4.488952
673.000000,0.002000,0.039747,0.688455,-2.012880,-1.401565,0.338850,2.893244,-0.076986,-1.228010,3.529889
674.000000,0.002000,0.165001,-1.640607,1.100475,-1.129743,1.317394,0.379379,-0.492834,3.220347,-2.528402
675.000000,0.002000,-0.399207,0.723101,-0.207880,0.007813,-2.327103,0.283261,4.534837,-7.482688,3.335192
676.000000,0.002000,-0.642397,-0.295215,0.717471,1.326285,0.064120,-1.638179,4.734884,2.953560,-6.070256
677.000000,0.002000,0.465374,0.247679,0.187868,-0.118981,0.506251,-2.016391,-8.462172,-3.523319,-3.847543
678.000000,0.002000,-0.578143,-0.328406,0.568708,-1.052495,-0.224235,-2.924552,5.568004,3.645225,-6.578869
679.000000,0.002000,1.611237,0.743809,0.003237,-0.894823,-0.155767,0.632645,-4.170625,-2.030130,0.041994
680.000000,0.002000,1.001002,1.101659,0.380771,-1.773801,-0.904247,-0.978612,-4.228365,-3.325340,-1.786874
681.000000,0.002000,-0.602211,-0.222730,-0.512204,2.459247,-0.476011,1.486988,7.330070,4.000913,4.557696
682.000000,0.002000,-0.055129,0.287449,0.254597,0.378221,-0.685401,-0.359145,0.316924,-6.291741,-5.665290
683.000000,0.002000,-0.085997,0.400467,-0.731001,1.035854,-2.496391,3.103995,0.929807,-4.396368,8.116649
684.000000,0.002000,0.177785,-1.635965,-0.094368,-1.390007,1.447759,-0.961741,-0.707529,5.075242,0.157453
685.000000,0.002000,-0.524733,0.274133,-0.031316,2.070447,-2.138893,-0.203180,9.080968,-5.413261,1.391365
686.000000,0.002000,0.052965,-1.349970,-0.534429,-0.532929,0.583946,0.729737,-0.410870,5.857777,2.199708
687.000000,0.002000,-0.052206,0.443887,3.153875,-0.528840,-0.340629,-0.034325,0.028092,-0.224581,-1.917170
688.000000,0.002000,0.107274,1.522876,-1.210013,-0.305807,0.400517,1.379270,-0.170675,-3.142327,2.505116
689.000000,0.002000,-1.588332,-0.218071,-0.166211,0.492231,0.544567,2.411374,4.805946,2.196391,0.738800
690.000000,0.002000,1.771382,0.123898,1.523701,-0.029579,1.113486,-0.262399,-2.470338,-0.073694,-2.142127
691.000000,0.002000,0.805167,-0.698833,0.685163,-2.415286,-0.947654,-0.304652,-4.227267,3.646369,-3.580341
692.000000,0.002000,0.196793,0.265534,0.359259,0.311161,-1.399407,-1.343499,-2.413374,-4.105949,-7.306897
693.000000,0.002000,-0.286877,0.773452,1.465922,-0.163607,0.083854,-1.505415,0.758180,-2.339474,-4.400375
694.000000,0.002000,0.082985,0.291796,-0.504717,-1.918439,-0.835621,-0.214193,0.077104,-3.533390,9.133822
695.000000,0.002000,-0.163138,-0.058052,-0.270472,2.757878,2.686799,-0.817832,4.667234,0.409778,7.073563
696.000000,0.002000,-1.150058,-1.159897,1.944593,0.829703,-0.484425,0.768321,1.193100,1.315545,-2.201521
697.000000,0.002000,1.779261,-2.035635,1.985768,-0.525573,-0.474454,0.459084,-0.924836,1.042897,-1.011517
698.000000,0.002000,0.041990,-0.162203,0.551360,0.628922,0.148296,0.222516,-0.937923,2.458364,-9.186198
699.000000,0.002000,1.852394,-0.656164,-0.170495,0.706021,2.456931,-1.272353,-3.810027,1.517247,0.415295
700.000000,0.002000,-1.374301,0.538997,1.976171,-0.423654,-0.258294,0.181187,1.866006,-0.708290,-2.541120
701.000000,0.002000,-0.958497,0.364381,1.183090,-1.269815,-0.474216,0.546619,3.019603,-1.302978,-4.112252
702.000000,0.002000,-1.439398,1.176126,1.809090,-0.934644,-1.031495,-0.279863,1.481130,-1.342053,-1.952512
703.000000,0.002000,-0.503547,0.627545,-0.125943,-1.989798,0.053085,1.352114,5.551373,-7.016863,2.507007
704.000000,0.002000,-0.808940,1.502616,1.399120,-0.069411,-0.991403,-0.539670,1.345157,-2.441816,-2.239981
705.000000,0.002000,-1.465991,-1.551660,-1.985318,-2.614288,0.349268,2.114393,1.145818,1.242737,1.583059
706.000000,0.002000,-0.268038,-0.001443,0.606825,2.340558,0.429456,-2.973389,3.597943,0.172884,-9.601113
707.000000,0.002000,-0.301745,-0.212935,0.345135,1.484446,-1.337776,-3.183535,6.091958,3.241449,-6.757105
708.000000,0.002000,0.088722,0.233590,-0.557447,-0.110026,0.333244,2.955088,-0.176012,-3.236267,9.075674
709.000000,0.002000,-2.304996,0.440922,-1.154644,-1.449450,-0.141007,-1.582140,2.388504,-0.454420,1.203149
710.000000,0.002000,0.608482,0.010820,-0.228259,-0.234212,0.291510,-1.739944,-8.803352,-0.067249,4.908796
711.000000,0.002000,-0.912492,-0.695616,2.200759,-0.004249,-0.523663,-0.080269,1.023655,0.899894,-2.655880
712.000000,0.002000,-0.318815,-0.452533,-0.629543,1.837595,0.186365,1.084445,0.788311,3.188414,5.736542
713.000000,0.002000,0.044651,-0.324691,0.333533,-1.253751,-2.796812,1.079864,-2.425411,6.485707,-8.879121
714.000000,0.002000,0.528896,-0.358539,0.168213,1.204703,0.747916,-1.535858,-8.101572,5.040228,-1.956374
715.000000,0.002000,0.028432,-0.749711,-2.469484,1.592113,-0.578388,0.466034,-0.021413,0.784178,2.653348
716.000000,0.002000,-1.039370,0.272362,0.755263,1.721489,0.530683,-1.067514,5.141778,-1.395995,-3.474829
717.000000,0.002000,-0.157236,-0.370642,-0.785732,-0.880170,2.105576,2.513346,0.943252,2.898661,8.236295
718.000000,0.002000,0.198402,-0.987379,1.559613,-0.085443,1.961120,0.248799,-0.577828,2.388233,-3.668650
719.000000,0.002000,0.190686,-1.384338,-1.246759,0.144625,1.242338,0.079080,-0.622159,3.301114,2.953427
720.000000,0.002000,-0.163454,-0.563838,-1.039325,1.459024,1.005497,2.035432,0.685795,3.473883,6.018967
721.000000,0.002000,-0.069573,-0.755885,-0.315852,2.070979,1.158226,1.425941,0.804471,8.348308,4.266218
722.000000,0.002000,0.163930,0.568651,-0.276671,-2.681554,0.167964,2.459293,0.446848,-7.533896,3.597765
723.000000,0.002000,-0.254122,-1.082066,-0.211200,0.629642,0.992950,0.411531,2.053223,7.069587,0.512065
724.000000,0.002000,0.416496,0.358947,1.323786,-1.277456,0.041793,-2.918091,-2.044501,-1.105608,-5.421677
725.000000,0.002000,0.282971,-0.128381,0.091794,-1.205071,2.488472,-2.322987,-7.754016,2.660307,-3.744077
726.000000,0.002000,0.693187,1.530683,-1.642476,-1.098235,0.326858,-0.525636,-0.954432,-2.120307,2.258346
727.000000,0.002000,-0.195354,1.042401,-1.083291,0.041430,-0.865035,2.022443,0.670429,-3.798970,3.955900
728.000000,0.002000,-0.900063,-0.559066,-0.436612,0.033570,2.538587,1.591914,5.705287,3.268628,2.821852
729.000000,0.002000,-0.763261,0.777628,-0.259652,1.376020,-2.004351,0.211667,4.829346,-5.182189,2.124459
730.000000,0.002000,-0.808897,-0.199725,0.545493,1.315570,2.256098,0.210361,6.857692,0.952972,-4.303212
731.000000,0.002000,-0.344983,0.385741,-0.046818,0.014058,-3.339549,-1.357145,6.318814,-6.921886,1.185925
732.000000,0.002000,-1.432630,-0.100501,0.471070,1.019747,1.295604,-1.639513,5.408443,0.494549,-1.815809
733.000000,0.002000,-0.229700,0.956963,-0.582275,1.055213,-2.572990,1.698108,1.632596,-5.876537,4.051221
734.000000,0.002000,-0.054926,-0.304011,-0.744674,-1.354763,1.875751,0.697758,0.128248,2.696933,8.491298
735.000000,0.002000,0.880306,-0.383399,0.736989,-1.480349,-0.169850,-0.960637,-5.988772,1.347624,-4.618041
736.000000,0.002000,-0.526747,0.405603,0.085849,-1.256244,-1.985526,2.442248,8.019502,-5.881539,-1.126672
737.000000,0.002000,-0.309400,-0.687688,-0.521619,0.413771,-1.668342,1.768552,2.693521,6.626182,4.127981
738.000000,0.002000,1.492788,0.028370,-0.875695,-1.215810,1.804847,-0.726944,-4.219010,-0.153786,2.517055
739.000000,0.002000,-0.921867,-1.279753,0.979409,0.527360,2.312789,-2.089531,2.137803,3.027708,-2.280413
740.000000,0.002000,-0.272331,0.044783,-0.768260,0.646893,1.224299,0.279834,3.846068,-0.589800,8.998833
741.000000,0.002000,1.472703,-0.743986,-0.281496,-0.789433,0.991918,-1.927138,-4.450556,2.176310,0.922227
742.000000,0.002000,-0.106563,-0.511297,0.364408,0.826445,1.353624,-1.416266,0.860879,7.573152,-4.213924
743.000000,0.002000,1.308586,0.466335,-0.409461,-0.525311,1.795444,1.237826,-5.406139,-2.128699,1.993520
744.000000,0.002000,-0.849897,0.466082,-1.353576,1.219636,-1.712350,-0.780645,2.516223,-1.407188,4.027046
745.000000,0.002000,-1.545689,0.955684,-1.755403,1.025206,-1.202419,-0.331695,1.712661,-1.041537,2.021208
746.000000,0.002000,0.202368,0.143436,0.017228,-2.300691,-0.477999,-0.823008,-8.424173,-3.219979,0.710067
747.000000,0.002000,0.032965,0.251802,-1.610667,1.275811,-0.503111,1.239373,-0.305737,-0.900241,5.098121
748.000000,0.002000,0.054726,0.532159,0.818826,-1.361892,-2.952358,-1.136403,0.594746,-4.509801,-7.152560
749.000000,0.002000,-1.036831,-1.206274,0.005253,2.783606,0.307726,0.410516,3.615057,4.426750,-0.177446
750.000000,0.002000,-0.205996,-0.072435,-0.438303,-1.280825,0.165523,1.517772,5.702417,0.355547,11.040588
751.000000,0.002000,0.256709,1.130430,0.164372,-1.035635,-1.376749,0.797908,-1.133390,-7.123186,-0.822765
752.000000,0.002000,1.236188,-2.677889,-1.214758,0.837168,0.235279,-0.379155,-0.750262,1.592549,0.697880
753.000000,0.002000,-0.292902,0.253853,0.158109,0.939864,1.308334,-1.065574,4.955690,-4.286163,-2.404738
754.000000,0.002000,-0.251926,0.149138,-0.240570,-2.773103,-1.385500,1.900459,6.785295,3.425520,4.564153
755.000000,0.002000,-1.891056,0.907142,-1.188596,-0.190520,0.477619,1.738838,2.475486,-1.089022,1.535551
756.000000,0.002000,0.160741,-1.001768,-0.877271,-1.263114,-0.887203,1.688582,-1.254814,4.893534,3.956974
757.000000,0.002000,-0.141643,0.476245,0.141871,-0.885526,-0.171297,0.087748,3.859696,-7.963433,-3.776162
758.000000,0.002000,-0.092457,0.167686,0.184765,0.319007,-0.982885,-2.774084,1.987536,-1.944980,-3.407847
759.000000,0.002000,0.600980,0.294311,0.299379,-1.038613,-2.308437,0.232253,-8.222928,-3.518080,-3.780155
760.000000,0.002000,1.258803,0.645510,-0.412111,-1.716789,-0.346940,0.581587,-4.579124,-2.748202,1.414383
761.000000,0.002000,-0.474451,-0.125100,-1.373324,1.772653,-0.716567,0.932199,1.939483,0.188849,5.478768
762.000000,0.002000,-0.310618,-0.234495,0.025338,2.529682,-0.623946,1.700308,7.710253,3.655144,-0.639516
763.000000,0.002000,-1.204681,0.329246,0.133950,0.833618,0.423507,-0.117732,6.275765,-2.004692,-0.840458
764.000000,0.002000,0.107929,-0.505947,0.218560,0.455551,0.903278,-2.325387,-3.351350,8.468467,-4.100036
765.000000,0.002000,-0.079011,-0.308079,2.093950,-0.878179,-0.064056,-1.554722,0.058103,0.462959,-3.845045
766.000000,0.002000,0.206120,0.030730,-0.490293,-0.316053,-2.932038,1.203724,-3.257657,-0.183301,9.088584
767.000000,0.002000,-0.857033,-0.619836,-0.007046,2.181726,1.093638,0.686954,5.884252,3.902437,0.518130
768.000000,0.002000,0.141928,0.888720,-0.533732,1.392515,-2.218175,-0.229498,-0.951786,-7.537221,4.294388
769.000000,0.002000,0.281539,0.272548,0.217496,-1.374376,-0.050642,1.327234,-7.531201,-5.701342,-1.007819
770.000000,0.002000,0.702203,2.018772,-0.968168,1.094463,-0.146500,-0.059779,-0.930126,-2.787393,1.449692
771.000000,0.002000,1.112707,-0.735060,-0.765966,-0.147985,1.293800,-0.008356,-4.301033,2.120801,3.174444
772.000000,0.002000,0.102114,0.254207,1.049482,0.109625,-0.438332,-2.206028,-0.539749,-1.884332,-6.942944
773.000000,0.002000,0.406259,-0.669883,-0.039006,0.354465,1.601840,-1.833611,-5.665721,7.340027,-1.424915
774.000000,0.002000,-0.047703,0.361867,0.309441,0.936713,-0.625423,0.256847,-0.093156,-5.822673,-4.445640
775.000000,0.002000,-0.903927,0.782907,0.046670,3.160395,-0.117721,-1.255356,5.338774,-4.612750,0.402623
776.000000,0.002000,0.968272,0.622280,-1.299155,-0.458191,-2.892427,0.472418,-2.688257,-2.068741,3.678673
777.000000,0.002000,-0.403315,0.167227,0.049534,-1.311214,-1.271156,1.258796,8.090826,-2.919263,-0.165537
778.000000,0.002000,0.216322,0.548511,-0.382382,-0.806567,-0.813314,2.758797,-2.150204,-7.187030,4.913433
779.000000,0.002000,0.252443,-0.288091,-0.126267,-0.653464,2.484040,1.638832,-7.167329,5.195699,2.457099
780.000000,0.002000,-0.923698,0.195636,0.234434,3.100772,1.379079,0.786202,9.370252,0.024570,-2.962424
781.000000,0.002000,0.930121,0.424964,-0.945165,0.030795,0.559346,2.243590,-4.314068,-1.984173,4.496154
782.000000,0.002000,0.504402,-0.373698,1.025102,-1.493101,-0.093736,0.014761,-2.126646,2.686072,-5.408098
783.000000,0.002000,0.547665,1.012830,1.935494,-1.044625,-1.189521,-0.693375,-0.768864,-1.539987,-2.946886
784.000000,0.002000,-0.058875,0.416916,-0.098830,0.353312,-0.928421,2.998863,2.662759,-8.726286,6.423657
785.000000,0.002000,0.710449,0.238282,-0.960385,-1.396251,2.972779,2.724099,-3.089542,-0.251149,6.731186
786.000000,0.002000,-0.064642,-0.082101,0.912547,-2.070173,1.233150,-1.111624,0.492923,0.663667,-8.175355
787.000000,0.002000,0.671661,-1.718040,-2.674238,0.442876,0.064934,0.476876,-0.391916,0.981215,1.528044
788.000000,0.002000,-0.664414,0.563477,-0.181180,1.956745,0.531245,2.767211,5.445823,-4.983724,1.741925
789.000000,0.002000,-0.010983,-0.256973,0.028196,1.677691,3.714056,-0.526853,-0.456514,8.113454,-1.251158
790.000000,0.002000,-0.252813,0.105556,0.033734,-0.296926,1.223085,-3.872005,5.871489,-1.021011,0.413908
791.000000,0.002000,1.100482,-0.116843,-1.232946,-1.494201,-1.418849,1.884241,-3.290549,0.236706,3.719339
792.000000,0.002000,-1.463711,-0.234909,-0.358877,0.421276,-1.287111,0.943460,5.317080,0.805999,1.263641
793.000000,0.002000,-0.506654,1.251495,0.334145,0.487696,-0.520454,-0.772010,2.418054,-5.916926,-1.621747
794.000000,0.002000,0.199555,0.178965,1.128327,-2.782721,1.235811,-1.716036,-1.797808,-1.265144,-6.939415
795.000000,0.002000,-0.771660,0.830916,0.054855,0.341420,-2.435409,-0.142919,5.199155,-5.192183,0.091368
796.000000,0.002000,-1.787155,-1.908671,-0.169842,-1.368065,0.068862,0.362334,1.825628,2.051311,0.192870
797.000000,0.002000,-0.731971,0.048432,-0.088398,0.408866,-2.158796,0.362293,9.296158,-1.454367,1.791122
798.000000,0.002000,-1.399033,0.571725,0.680485,-0.957522,-1.682495,1.499385,4.347607,-1.931308,-1.967407
799.000000,0.002000,-0.049664,-0.174971,0.130808,1.751012,-1.554258,1.330265,1.677827,3.209476,-2.899474
800.000000,0.002000,0.022342,-0.415503,-0.230325,-1.837510,1.722451,0.324179,-0.142230,7.499435,3.644582
801.000000,0.002000,-0.570886,-0.020794,0.131380,-0.335510,1.192226,-0.136869,8.955657,0.620365,-1.200290
802.000000,0.002000,1.062636,0.231260,0.756556,-0.807384,-0.660321,-0.284614,-5.610502,-0.792252,-4.252464
803.000000,0.002000,0.080891,0.216855,-0.208841,1.687768,-2.494122,-1.624219,0.296149,-6.670885,8.789268
804.000000,0.002000,-0.041185,0.183060,-0.757434,-2.630344,1.947470,0.153991,1.815116,-1.919960,10.995173
805.000000,0.002000,0.135652,-0.282059,-0.045798,-1.731490,1.799971,0.516911,-4.748932,6.556055,0.596066
806.000000,0.002000,0.980525,1.700906,0.594014,-2.312347,-1.099314,-1.561048,-1.933939,-3.387254,-1.230120
807.000000,0.002000,1.049760,-0.917629,0.625794,-0.565700,0.948641,-0.227699,-3.891971,3.323379,-2.018609
808.000000,0.002000,0.351205,-0.562733,-0.655873,1.036119,2.102758,0.633471,-4.749746,5.084777,5.104296
809.000000,0.002000,0.354544,0.211885,-0.564802,-0.265721,1.338362,1.232147,-5.597641,-2.696462,6.301151
810.000000,0.002000,0.018752,-0.204582,0.134508,-2.209519,-0.141885,-1.033193,-2.454822,4.737165,-4.411233
811.000000,0.002000,-0.541662,-1.565796,-1.072773,-1.102527,-1.012783,1.308697,1.381376,3.504113,2.354224
812.000000,0.002000,0.143235,-0.371825,-1.092282,-0.548096,0.578260,3.039033,-1.329017,1.787629,6.413747
813.000000,0.002000,-0.362344,-0.679948,0.797930,0.500954,1.815651,-0.683521,2.629038,4.780884,-4.560239
814.000000,0.002000,-0.567772,1.077239,-0.536583,-1.892136,0.095986,1.021026,2.603505,-5.043565,2.900408
815.000000,0.002000,0.767113,0.092090,-0.643679,-1.045029,-0.653071,0.453448,-6.417758,0.004195,5.188538
816.000000,0.002000,-0.662027,0.061052,-0.545805,0.608828,-2.207821,0.805254,6.810935,-0.471736,5.728877
817.000000,0.002000,0.852987,0.685001,1.355014,0.702276,-1.115901,-1.931322,-2.541068,-1.827890,-3.785615
818.000000,0.002000,0.797013,0.759982,-1.193236,-2.321516,-0.679541,1.335096,-2.611641,-2.397009,4.011264
819.000000,0.002000,-0.233129,-1.030125,0.885850,1.194738,-0.219117,-2.466787,0.976642,4.556008,-4.028174
820.000000,0.002000,-0.049106,-0.129225,0.166522,1.809283,-1.007654,-0.542891,1.396406,2.614068,-4.894160
821.000000,0.002000,-0.833850,-0.172600,0.019816,1.646168,-1.004446,-1.125346,9.159206,2.082174,0.077262
822.000000,0.002000,-0.983069,1.656543,-0.995597,0.923697,0.348692,2.624304,1.714955,-2.571127,1.640184
823.000000,0.002000,-0.076528,1.066147,-0.532854,1.297948,-0.853677,2.093774,0.685422,-6.386873,3.309660
824.000000,0.002000,0.245920,-0.660803,0.109792,-0.737867,2.730727,0.255652,-3.918749,7.476075,-2.061036
825.000000,0.002000,-1.803632,-0.032465,-1.696388,1.530066,1.678284,0.132801,2.135201,-0.026737,2.019540
826.000000,0.002000,0.282213,-0.136037,-1.165144,1.278665,0.742231,0.374648,-1.637726,0.561959,6.500418
827.000000,0.002000,0.166144,-0.289792,0.211663,-2.063662,2.324109,-1.788265,-5.353884,4.850761,-2.910890
828.000000,0.002000,2.295428,-0.200434,-1.131398,0.653617,-0.654918,-0.187409,-2.423024,0.194739,1.270595
829.000000,0.002000,-0.802777,0.130563,0.045598,2.348814,1.848974,-1.660955,8.786908,-2.043697,0.084822
830.000000,0.002000,0.038135,0.850201,0.433866,-0.346019,-1.450667,-1.515878,-0.664225,-7.791314,-4.074729
831.000000,0.002000,-0.300178,0.080564,1.189160,-0.686426,-0.861135,-2.657179,1.741756,-0.386317,-6.737998
832.000000,0.002000,1.263821,-0.358137,1.177365,-1.065106,0.095107,-0.306647,-3.107414,0.833741,-2.896590
833.000000,0.002000,0.195455,-0.159705,0.722799,-1.350415,-2.938306,-1.277341,-2.362312,2.709237,-7.862828
834.000000,0.002000,-0.583712,-0.644742,-0.200553,1.590931,3.088762,-1.585442,5.755387,6.466746,2.160903
835.000000,0.002000,2.280271,-0.655100,0.574335,0.027575,0.488218,1.403038,-2.875954,0.850689,-0.835064
836.000000,0.002000,-1.259137,1.508481,-2.697131,-0.266276,0.451603,-0.393787,0.654238,-0.801265,1.427771
837.000000,0.002000,-1.335254,1.109126,0.980368,2.620604,1.013051,1.811170,2.676930,-2.432740,-2.080828
838.000000,0.002000,-0.218965,-0.699638,0.187555,0.931941,0.425783,-1.418974,0.804632,9.331535,-2.604535
839.000000,0.002000,-0.568762,-0.755521,-0.055955,0.432564,1.929185,2.116694,4.662642,7.941447,0.344178
840.000000,0.002000,1.500982,-0.211457,-2.428984,0.837449,0.729760,-1.505963,-1.246941,0.149454,1.904709
841.000000,0.002000,0.942347,1.216200,0.713455,1.185923,0.654361,-1.972048,-2.617748,-3.820716,-2.185383
842.000000,0.002000,-0.931875,-0.306141,0.694818,-1.510924,1.302632,-0.504412,5.552147,2.222978,-4.075125
843.000000,0.002000,0.836646,0.168018,0.246313,-1.258477,0.236179,0.273927,-7.990665,-1.320415,-2.656244
844.000000,0.002000,-0.472145,0.553831,1.351843,-1.223343,0.907437,1.052561,1.762131,-1.773883,-4.915251
845.000000,0.002000,-0.523270,-0.771364,-0.158888,1.841495,1.890242,1.773933,4.469148,7.126615,1.587643
846.000000,0.002000,0.132239,-0.197085,-0.090280,-1.895482,-0.434965,-2.760746,-4.787415,3.770050,3.482883
847.000000,0.002000,-0.033313,-0.821008,1.028310,0.333661,1.468474,-1.203310,0.138950,4.016810,-5.194964
848.000000,0.002000,0.588841,1.069171,0.268502,0.773116,-1.778600,-1.208073,-3.776467,-7.974563,-1.192641
849.000000,0.002000,1.289743,1.152141,0.867066,-2.566378,2.391515,-0.509974,-3.348221,-3.025893,-2.122783
850.000000,0.002000,0.482213,-0.588900,-1.007055,-1.637257,0.658528,-0.765943,-3.445773,3.333892,5.440999
851.000000,0.002000,-1.192485,-0.795730,0.509853,1.388880,2.199234,0.507751,4.106414,3.077695,-2.019987
852.000000,0.002000,0.235984,0.629109,-0.536310,-1.909110,-1.093899,-1.132676,-3.181681,-7.358343,5.766726
853.000000,0.002000,-0.020168,0.061279,-0.028444,-2.642121,1.563113,0.957841,-0.301778,-3.959155,5.386637
854.000000,0.002000,0.633941,0.519253,-0.220502,-1.377380,-0.708513,0.392920,-6.716569,-6.030156,2.497628
855.000000,0.002000,0.518611,-0.714524,-0.780299,-2.352949,2.077255,0.103812,-3.395088,4.351957,4.467518
856.000000,0.002000,-0.405064,0.860862,0.170005,0.445787,-1.329370,0.110860,4.189946,-7.138213,-0.858292
857.000000,0.002000,-1.368721,-0.149334,0.850577,0.718656,-1.421780,-1.129511,4.313183,0.337121,-2.708911
858.000000,0.002000,1.276295,0.236627,-0.992402,0.363275,-0.990218,2.571602,-3.855573,-0.762966,3.322667
859.000000,0.002000,-0.095773,0.016790,-0.509902,2.368790,-1.375234,0.443325,1.681624,-0.982951,8.983074
860.000000,0.002000,-0.018740,-0.734572,-0.212261,-1.301119,2.603745,-0.040043,1.435883,8.210320,1.149274
861.000000,0.002000,-1.205395,-2.452135,0.456366,0.657666,-0.438851,0.225499,1.042765,2.164912,-0.417379
862.000000,0.002000,0.609989,-0.024323,-0.614295,-1.667508,-0.591519,-0.381995,-6.058483,0.910327,5.776082
863.000000,0.002000,-1.374070,1.094309,-0.371245,1.192569,-0.415192,-0.503121,3.649462,-2.895545,1.052525
864.000000,0.002000,2.022319,0.299608,-2.689408,-0.159103,-1.361450,-1.016204,-1.041520,-0.142848,1.365360
865.000000,0.002000,1.339289,-0.997534,-1.533376,0.636587,1.295982,-1.048623,-2.109831,1.388459,2.182124
866.000000,0.002000,0.751344,-0.429739,-0.522114,1.039474,-0.038209,-1.304117,-8.210265,0.106036,4.094400
867.000000,0.002000,-1.161008,-0.837710,-0.252040,0.640999,1.459986,-1.700554,4.817978,3.502155,1.105749
868.000000,0.002000,-0.515487,0.363051,-1.862523,-0.864740,0.210659,1.553112,1.027169,-0.833185,3.881875
869.000000,0.002000,0.310403,-0.246648,-0.325196,0.496943,2.248440,2.355287,-6.005103,3.892893,5.573217
870.000000,0.002000,1.035430,0.102501,-0.261848,-1.024535,2.697145,2.191086,-7.169051,-0.644457,1.620672
871.000000,0.002000,-0.116140,-0.052252,-1.564733,0.585361,-1.158816,-0.168829,-0.009248,0.057874,5.365346
872.000000,0.002000,1.927436,1.162112,-1.050203,0.817951,-1.008924,-0.009106,-2.433803,-1.354115,1.215153
873.000000,0.002000,-1.011960,-0.634990,-1.023813,-0.988376,0.720846,2.203293,3.502773,2.446628,3.672620
874.000000,0.002000,0.625994,0.504208,0.976601,0.168784,-0.909110,-3.148074,-2.892601,-2.657424,-4.872153
875.000000,0.002000,-0.829534,1.398104,0.819266,0.595560,-0.610021,-1.546211,2.073648,-3.521580,-2.145414
876.000000,0.002000,-1.174326,0.477595,0.688681,-1.940028,-0.883943,-1.199295,4.944154,-2.131876,-2.871791
877.000000,0.002000,1.461921,0.068322,-0.210702,-2.155974,-0.955472,-0.188914,-5.969908,-0.353556,0.885523
878.000000,0.002000,-0.721321,-0.149633,0.629466,1.309337,-0.880953,-1.810273,6.002236,0.949953,-5.429157
879.000000,0.002000,-0.488838,-0.565355,-0.067171,-0.795494,1.876173,-0.361390,6.225394,7.701374,1.282005
880.000000,0.002000,-0.644520,0.348126,-1.266234,-0.610249,-0.098932,1.868835,2.567846,-1.526296,4.945347
881.000000,0.002000,0.095168,0.633335,0.540498,-1.415779,-1.111752,-0.831265,-4.384671,-6.126965,-4.417228
882.000000,0.002000,-0.165483,-2.180426,-0.493340,-0.272546,0.142036,-0.821276,0.231257,3.359488,0.744931
883.000000,0.002000,1.252786,-0.094379,-1.692510,-0.080187,1.651616,1.279211,-2.259553,0.073917,3.012127
884.000000,0.002000,-1.134160,0.979060,0.498054,1.783581,0.712836,-0.090934,3.782559,-3.585329,-1.640358
885.000000,0.002000,-0.019863,-0.526915,-1.550128,-2.020690,-0.744560,1.043211,0.043390,1.706452,5.344871
886.000000,0.002000,-0.479287,0.454012,0.581631,1.652543,-1.579027,0.107262,5.082710,-3.695060,-6.326979
887.000000,0.002000,0.008074,-0.400137,-0.285807,-1.882747,-1.216145,0.729831,-2.445964,7.205671,4.018992
888.000000,0.002000,0.087854,1.011660,0.382051,0.559579,-2.981046,-0.493575,-0.832189,-6.980499,-2.874388
889.000000,0.002000,0.221313,0.074482,-0.181352,0.208739,-1.521136,-0.370677,-5.910722,-0.747058,5.941953
890.000000,0.002000,-2.245462,0.702607,1.205768,0.338326,-0.055888,-1.545655,2.285401,-0.722332,-1.237346
891.000000,0.002000,-0.740709,0.406964,-0.528462,1.021312,-2.995462,0.110252,5.848496,-3.333802,4.490209
892.000000,0.002000,0.015211,0.471187,0.424396,-0.784982,-2.661152,2.026402,1.912452,-4.995448,-5.824446
893.000000,0.002000,0.970575,-0.638223,-1.119561,-1.255900,1.626162,0.155124,-3.161490,1.807612,3.628865
894.000000,0.002000,-0.004364,0.386993,0.419402,1.495276,-1.608566,0.885574,-1.567408,-4.421273,-7.533690
895.000000,0.002000,-1.339868,-0.652677,-1.046171,1.158122,-0.576664,0.046072,3.430990,1.816916,2.808575
896.000000,0.002000,-0.192014,-0.237684,0.382169,-2.026514,0.884422,-0.392266,2.219298,5.260196,-2.265313
897.000000,0.002000,0.007887,0.334018,-0.247547,0.991785,-1.324686,0.548806,-0.519299,-8.212034,5.369983
898.000000,0.002000,0.463945,-1.553685,-0.838208,0.071782,2.948550,-1.609649,-1.222919,4.223463,2.091769
899.000000,0.002000,-0.267596,0.397137,0.295868,-1.248734,0.612478,-2.009723,8.970821,-8.450681,-8.164486
900.000000,0.002000,0.159590,0.891538,0.236170,-1.605224,-2.195228,-0.064483,-1.874097,-8.244680,-3.010512
901.000000,0.002000,-2.120144,-2.011813,-1.548612,-0.143684,0.825347,0.313172,1.153914,1.107253,0.849171
902.000000,0.002000,0.535416,0.172912,0.024246,-0.038204,0.616359,-0.913115,-8.414011,-2.114656,0.737106
903.000000,0.002000,-0.353119,-0.294707,0.334421,1.409324,1.808098,-1.334586,5.453769,5.315449,-5.475460
904.000000,0.002000,0.458992,-0.528540,0.017284,-1.573912,0.391306,-0.016874,-7.912401,6.494109,-0.842848
905.000000,0.002000,-0.081923,0.346752,-1.001409,-1.051793,-0.842768,1.651979,0.466523,-2.936764,7.260259
906.000000,0.002000,0.009113,-0.437275,0.129080,1.775955,3.129196,1.259401,0.183465,9.866909,-3.487506
907.000000,0.002000,0.481691,0.398575,-0.517935,-1.460466,-0.979992,2.175651,-0.839945,-1.313383,4.830687
908.000000,0.002000,0.685887,-0.294480,-0.067518,-1.024802,-0.343755,1.296328,-8.875538,4.016097,1.160686
909.000000,0.002000,-1.163844,-0.022767,0.731193,1.527036,0.445896,-0.436236,5.281280,-0.184099,-3.052955
910.000000,0.002000,-2.349571,0.118580,2.926385,-0.118305,1.035570,1.044070,0.888939,-0.044556,-1.107837
911.000000,0.002000,0.780206,0.304873,-0.246252,-1.120432,-0.532770,1.659029,-8.176882,-3.090670,2.409178
912.000000,0.002000,-0.676776,-0.438688,1.805744,0.341650,-0.520669,-0.506550,1.313265,0.894917,-3.740673
913.000000,0.002000,-0.530734,-0.819268,1.181700,-1.871634,0.779147,-0.992386,2.025372,3.106925,-4.298543
914.000000,0.002000,0.078546,-0.671605,-0.734475,0.803149,-4.773979,0.962356,-0.878978,4.541822,5.598490
915.000000,0.002000,-0.390907,-0.164073,0.521497,2.206747,-0.532205,-2.084046,4.844944,1.647617,-8.168872
916.000000,0.002000,1.237321,-0.166391,-1.367304,-0.367801,-0.622132,0.058360,-3.080091,0.440822,3.487893
917.000000,0.002000,0.684111,-1.998716,-1.682894,2.300232,0.626382,-1.142807,-0.642393,1.890655,1.564982
918.000000,0.002000,-0.372995,0.352980,0.064696,0.616403,-1.044346,0.980916,6.915862,-6.222465,-0.420073
919.000000,0.002000,-0.808452,0.036880,0.234039,-0.263092,1.022855,-1.882140,8.716583,-1.153240,-2.366796
920.000000,0.002000,-0.594566,1.169763,1.243941,0.960884,0.108128,-2.170019,1.708983,-3.114372,-3.161633
921.000000,0.002000,0.364244,-0.522368,0.026097,-1.157472,1.240845,1.237590,-4.359222,7.185002,-2.251416
922.000000,0.002000,0.529860,0.122761,-0.657747,-2.395440,2.767857,1.607338,-5.724620,-2.125856,4.869746
923.000000,0.002000,0.201060,-1.190707,-1.400777,2.860808,0.898536,0.027408,-0.763645,2.857048,3.474928
924.000000,0.002000,-0.423641,1.217527,-0.496372,-2.352895,-0.866345,1.010173,1.654545,-5.275617,2.262618
925.000000,0.002000,0.531667,0.228249,0.749576,-0.153069,-1.825157,0.253251,-2.789952,-0.855449,-6.144017
926.000000,0.002000,-0.827901,-1.461428,1.573683,0.586233,0.566989,0.608886,1.158861,2.142040,-2.227478
927.000000,0.002000,0.199928,0.756106,-0.987574,-0.936503,-0.382573,1.344840,-0.784096,-4.207847,5.609000
928.000000,0.002000,0.224404,0.460946,0.361707,-0.832420,-1.663391,-0.855431,-2.778873,-4.362306,-6.034541
929.000000,0.002000,-0.158185,1.799433,-1.291950,1.326597,0.955226,1.008646,0.429895,-2.644653,1.841373
930.000000,0.002000,0.416801,1.769799,1.224678,-1.266388,0.766749,-1.251865,-0.713472,-2.750073,-2.305672
931.000000,0.002000,0.146661,-1.162556,0.466952,0.941514,0.867844,-1.316557,-1.017357,6.017038,-2.580305
932.000000,0.002000,-1.080748,0.343308,-0.015740,0.583867,0.222311,0.855163,7.710481,-3.284671,0.022413
933.000000,0.002000,-0.805146,0.311394,-0.698171,1.018057,-0.421592,2.380246,4.471709,-2.283139,5.329880
934.000000,0.002000,0.795115,-0.567524,-1.309714,-0.092968,1.179538,1.784235,-2.672935,1.525916,4.139785
935.000000,0.002000,-0.190947,0.230221,0.428008,0.115922,-0.982188,-1.569672,3.662697,-2.808536,-8.314898
936.000000,0.002000,0.827958,-1.929012,-0.906139,-0.236461,1.497554,0.479775,-1.267062,2.948471,1.283314
937.000000,0.002000,0.204391,1.062451,0.548024,0.007716,-2.054796,-1.126695,-0.841599,-6.042972,-3.874944
938.000000,0.002000,2.046997,0.086619,0.296569,-0.603594,1.282756,-0.116762,-3.979922,-0.077812,-0.676888
939.000000,0.002000,-0.293733,-0.451497,-0.471457,2.594502,0.535365,1.513030,3.853465,4.965778,5.527590
940.000000,0.002000,-0.482950,-0.305826,0.457731,1.509940,0.958959,0.177921,5.827943,4.217087,-5.656174
941.000000,0.002000,-0.384495,-1.161423,-0.236525,-0.251298,-2.279751,-0.601328,2.507123,6.722853,1.198731
942.000000,0.002000,0.631736,-0.029050,0.235469,0.984887,1.494876,0.753839,-8.985565,0.521283,-3.520881
943.000000,0.002000,0.026476,0.672697,0.661266,1.092067,-0.534285,-1.660635,-0.351902,-5.527996,-6.878371
944.000000,0.002000,0.614263,-0.026193,0.889466,-2.269102,1.971570,-0.116183,-4.204432,0.678076,-6.542609
945.000000,0.002000,-0.456905,0.794623,1.344780,2.418565,0.410947,-0.405225,1.418224,-2.274873,-4.735698
946.000000,0.002000,-0.038606,1.098231,-1.584637,0.232236,-0.581830,-0.096516,-0.152231,-2.468937,3.474712
947.000000,0.002000,-0.944122,0.389300,-0.359078,1.219956,0.737739,-2.799410,6.329708,-2.526667,2.670038
948.000000,0.002000,0.345688,0.182425,-0.319483,1.251848,1.114020,2.486591,-6.148604,-2.388732,5.625971
949.000000,0.002000,0.287538,0.604309,0.039392,-0.333304,-2.748437,-1.869317,-4.315107,-9.206661,-0.379906
950.000000,0.002000,0.788939,-0.103589,-1.114477,-0.611304,0.352599,-0.022775,-3.644345,0.336628,5.010817
951.000000,0.002000,-0.494858,-0.142386,-0.231236,-1.801116,0.214685,0.699117,8.383785,2.044546,4.440297
952.000000,0.002000,0.732813,0.212656,-0.537689,-1.648895,0.683679,1.554060,-7.526335,-1.648375,5.343494
953.000000,0.002000,0.143744,-0.315198,-0.269173,-2.494856,-0.263782,2.662089,-3.292753,5.094855,5.714858
954.000000,0.002000,-0.780210,0.799338,1.990906,0.914108,1.209562,-1.379481,1.083598,-1.282053,-2.957819
955.000000,0.002000,-1.349695,-0.091131,0.199615,-0.856847,0.721434,-3.212670,6.210025,0.238303,-0.394002
956.000000,0.002000,0.764789,-0.611682,-0.786792,1.156261,2.468365,2.417965,-4.257674,3.206318,3.968603
957.000000,0.002000,1.085900,0.273387,1.665266,-0.851657,-0.996012,0.926531,-2.589709,-0.941897,-2.825409
958.000000,0.002000,0.583286,0.200382,-0.151396,0.147260,2.011060,0.799797,-8.178341,-2.556397,2.838604
959.000000,0.002000,-0.521519,-0.593399,0.157768,-0.608540,1.790334,-1.431921,5.823520,6.859816,-2.099815
960.000000,0.002000,-0.108324,-0.171445,0.170125,3.395742,1.087367,0.364015,3.621685,3.952839,-4.704311
961.000000,0.002000,-1.057648,-2.415140,0.196073,-0.494332,0.206945,-0.565086,1.003614,2.391733,-0.173359
962.000000,0.002000,-0.790271,1.085665,-0.427678,0.566449,-1.478795,0.184911,2.497579,-4.336162,2.623427
963.000000,0.002000,-0.204789,0.428151,-0.141713,1.382958,-0.212681,-2.734683,3.303323,-10.109614,4.564438
964.000000,0.002000,-0.415872,0.003123,1.084604,0.770724,-2.312433,-1.940545,2.443381,-0.364806,-6.855964
965.000000,0.002000,0.860422,1.150604,1.312564,-0.657853,-1.516482,-0.535608,-1.846768,-2.389658,-2.881404
966.000000,0.002000,0.333856,1.228331,0.206568,-2.904241,-1.911918,-0.176960,-1.488449,-6.862426,-0.936219
967.000000,0.002000,0.044624,-1.951147,-2.107921,0.975883,1.071170,-1.174704,-0.043556,1.554541,1.718860
968.000000,0.002000,-0.347339,0.327768,0.452013,1.194102,1.120467,0.339486,4.869991,-3.763137,-7.322133
969.000000,0.002000,-1.015946,-1.683054,0.301657,0.443184,0.631479,0.795820,1.980744,3.241877,-0.586175
970.000000,0.002000,-0.305355,-0.324539,-0.283798,0.389210,1.843024,1.937783,6.439819,5.523185,6.072334
971.000000,0.002000,-1.015222,-0.067135,-0.414401,1.051468,0.833267,1.558138,6.552718,0.463326,3.114533
972.000000,0.002000,0.156237,0.291531,-1.182339,-2.723813,-0.184943,0.845128,-0.387000,-1.576598,6.489296
973.000000,0.002000,-0.354193,-1.689480,0.986833,-0.008630,-0.185757,-0.600280,0.678597,3.478485,-1.924628
974.000000,0.002000,1.270188,-0.228525,-0.430949,-1.326664,-3.108266,1.965539,-6.145259,1.246303,1.860779
975.000000,0.002000,0.249230,-0.366956,0.022279,0.258859,1.211058,-1.723046,-5.448574,5.614696,-1.058048
976.000000,0.002000,-0.091070,0.459986,0.326778,2.685128,1.894402,1.029361,1.236092,-7.360052,-5.141309
977.000000,0.002000,-0.126240,-0.308088,-0.471022,-0.276533,-1.942429,1.209189,4.803075,7.021076,4.461266
978.000000,0.002000,0.000114,-0.020146,-0.781926,-1.677413,-2.113011,0.211014,0.217708,0.336798,8.678470
979.000000,0.002000,-1.063749,-0.995347,0.278401,1.108765,1.174917,-0.967913,4.049583,3.874404,-1.096220
980.000000,0.002000,-0.667267,-1.772149,-0.337718,-0.055252,0.824122,-1.901346,1.465745,4.018636,0.645881
981.000000,0.002000,-0.012540,-1.076048,0.911051,-0.280552,1.568106,-1.359533,-0.286428,4.598943,-4.055420
982.000000,0.002000,1.075085,0.658052,-0.311764,-0.567290,0.499934,2.532767,-5.355173,-3.479277,1.557178
983.000000,0.002000,-0.706861,0.051441,-2.030120,1.771708,0.733913,0.152194,1.301908,-0.113442,3.334310
984.000000,0.002000,0.171458,-0.760840,-0.332167,-0.901813,2.837250,-0.701192,-2.721766,9.812852,4.087173
985.000000,0.002000,-0.345459,0.376035,-0.633818,0.483539,-1.528092,1.770709,3.971311,-4.508261,7.055279
986.000000,0.002000,0.001591,-0.483568,-0.332680,-0.804395,3.366143,-2.140570,-0.153892,9.106172,6.208545
987.000000,0.002000,-0.142811,0.606854,-0.557323,0.165964,-0.816319,2.644308,1.602581,-7.286508,6.382223
988.000000,0.002000,-0.270945,0.423112,0.637604,-1.455398,-0.447532,-0.826810,3.276011,-5.014987,-7.420337
989.000000,0.002000,-0.349687,0.011033,0.852030,-1.238427,0.500192,-2.227119,2.838299,-2.104542,-6.847955
990.000000,0.002000,-0.150043,-0.247840,-0.177007,0.503286,2.185384,0.269530,3.599077,6.749853,3.620473
991.000000,0.002000,-0.296234,-0.979621,-0.130096,2.075192,0.235063,0.277528,2.107088,7.729224,0.583535
992.000000,0.002000,-0.153815,0.573265,2.439328,0.505843,0.613606,0.201700,0.235591,-0.742408,-2.906293
993.000000,0.002000,0.082864,0.161270,-0.185138,-1.552560,-2.793565,1.678797,-1.969094,-2.188425,6.387836
994.000000,0.002000,-0.753136,-0.630789,1.343190,0.251307,0.003293,0.063485,3.059786,4.105968,-4.638235
995.000000,0.002000,-1.547930,-0.600416,-0.184185,2.098805,1.293034,-0.495357,4.280011,1.771947,0.713499
996.000000,0.002000,-0.211632,1.573607,-0.076327,0.169365,-1.942066,-1.057614,0.672135,-5.273062,0.625489
997.000000,0.002000,0.069672,-1.518755,-1.378815,1.613215,0.930779,-1.496599,-0.127421,2.952216,2.647756
998.000000,0.002000,0.302333,0.270210,-0.284071,3.539321,-1.340421,-0.352314,-5.294338,-4.077498,5.488421
999.000000,0.002000,0.239766,2.323800,-1.458072,-0.225559,-0.071738,-0.763305,-0.230280,-2.035518,1.319407
1000.000000,0.002000,-0.083688,-0.548531,0.542045,0.455961,2.570647,0.444002,0.242174,6.591330,-7.177767
1001.000000,0.002000,0.445098,0.974199,-0.157376,-3.247516,-0.204072,0.165132,-3.201469,-6.378189,1.342492
1002.000000,0.002000,0.344078,-1.070003,-0.654371,-0.263672,1.586081,-0.032055,-2.313069,5.952677,3.466000
1003.000000,0.002000,0.037733,0.477202,-0.406304,-0.130557,-0.048982,3.621915,-0.406136,-7.963850,5.876593
1004.000000,0.002000,-0.373721,0.418916,-0.298020,-0.871881,-0.719332,1.220256,7.154876,-6.219424,8.030603
1005.000000,0.002000,-0.349236,-1.944484,-1.753093,-0.627788,-0.400382,-0.043460,0.360500,1.999507,1.792114
1006.000000,0.002000,0.403708,-0.542104,-0.001244,-0.249559,1.765517,-0.066637,-7.043864,16.041246,-2.284776
1007.000000,0.002000,1.616602,0.520481,-2.706131,1.333259,1.344342,0.654336,-0.953778,-0.323414,1.620857
1008.000000,0.002000,-0.056123,-0.983281,-0.884921,0.325352,0.172531,-0.439963,0.536024,4.724160,4.788731
1009.000000,0.002000,0.501863,-1.365738,0.011203,-1.336886,1.463578,-0.546002,-2.191702,5.729078,-0.260633
1010.000000,0.002000,1.783534,-0.326905,0.706601,-0.453600,0.788179,0.164606,-3.577659,0.873611,-1.540142
1011.000000,0.002000,0.410650,0.094817,-0.954985,-1.993177,-0.385081,0.826030,-5.583473,-2.629765,7.618220
1012.000000,0.002000,-0.868517,1.606789,0.178015,0.281296,0.790934,-1.092744,2.216145,-3.808753,-3.204235
1013.000000,0.002000,-0.708757,-0.943172,-0.148320,0.934230,1.522144,2.730685,4.129619,6.037847,0.801130
1014.000000,0.002000,1.320706,-0.261746,1.307552,-1.232954,-0.300394,-2.743689,-3.132020,0.704346,-3.060759
1015.000000,0.002000,0.359340,-0.237667,-0.031487,-1.714928,-1.127393,-0.958561,-7.067084,4.274050,0.709894
1016.000000,0.002000,0.976602,-0.427756,2.313479,-0.312084,1.234093,-0.269034,-1.087550,0.460169,-2.489678
1017.000000,0.002000,0.116731,0.205990,0.774672,0.349306,1.947547,-0.487666,-1.177454,-2.019138,-8.635633
1018.000000,0.002000,0.952635,-0.295535,0.645860,-1.261901,2.015211,-0.462536,-5.941126,2.227469,-3.647451
1019.000000,0.002000,-0.217030,-0.114982,-0.414913,1.878915,1.201978,1.371339,4.858397,2.250863,8.254673
1020.000000,0.002000,0.531857,-0.795682,-0.339153,-1.355796,1.931174,-0.808973,-4.955604,7.077743,2.680311
1021.000000,0.002000,-0.171618,-0.876077,-0.541045,0.644770,1.094056,2.173722,1.859160,6.473157,4.039458
1022.000000,0.002000,-1.824848,-1.526356,0.470520,-0.688882,0.732954,-1.080161,2.476550,2.134691,-0.617488
1023.000000,0.002000,0.116303,-0.033711,0.856933,0.644856,-0.377529,-2.089540,-0.881659,0.439669,-8.294299
1024.000000,0.002000,-1.174078,-1.053762,0.490843,0.895565,0.460734,0.181979,3.613518,3.422514,-1.699597
1025.000000,0.002000,-1.547533,-0.725275,-1.246589,1.256943,-0.011234,-0.162673,2.847279,1.298111,2.299021
1026.000000,0.002000,-0.126712,-0.397440,0.735143,-0.962367,0.592436,-3.868359,0.921671,4.069128,-7.951346
1027.000000,0.002000,0.134403,-0.084604,-0.241624,-2.695925,2.250802,1.122833,-2.285173,3.062911,5.205604
1028.000000,0.002000,-0.083006,3.707175,-1.338479,0.544847,0.491085,0.467040,0.024085,-1.205694,0.441486
1029.000000,0.002000,0.221924,-2.399530,-0.229979,-0.029313,0.143716,-0.382526,-0.226414,3.024437,0.326994
1030.000000,0.002000,1.665475,-0.465067,1.352842,-1.132524,0.085158,0.021881,-2.647313,0.860987,-2.127221
1031.000000,0.002000,-0.184848,0.085363,-0.312602,0.159206,1.002484,1.196498,4.960080,-2.487566,7.735448
1032.000000,0.002000,-1.234932,-0.637034,-1.420113,-0.716459,0.327048,0.546033,2.461571,1.321319,2.958954
1033.000000,0.002000,0.729489,-0.978717,0.447671,-2.459288,-0.382311,-0.056462,-3.429965,5.155045,-2.409409
1034.000000,0.002000,0.272853,0.479976,-0.742255,2.447555,-2.336180,0.189726,-2.279352,-4.523461,7.446269
1035.000000,0.002000,0.156070,-1.676896,0.206223,0.446560,1.316994,-0.471685,-0.093289,4.533624,-0.791490
1036.000000,0.002000,1.761586,-0.384006,-0.229538,-1.046047,1.230369,0.592899,-4.051940,1.160077,0.548132
1037.000000,0.002000,-0.441056,-0.251855,-0.008342,2.879433,-0.262317,-0.043294,7.761216,4.069837,-0.515963
1038.000000,0.002000,-0.033279,0.740647,-1.256952,-1.613959,-0.261699,0.146628,-0.130235,-2.999047,4.661226
1039.000000,0.002000,0.252020,-0.444530,-0.418176,-0.431584,0.482749,2.753403,-5.974498,3.120401,6.985249
1040.000000,0.002000,-0.284590,3.769778,3.094832,-0.304724,-0.240306,1.427228,0.048375,-0.644521,-0.530084
1041.000000,0.002000,0.041517,1.015981,-0.667641,-0.208536,-2.693000,-0.692800,0.015905,-6.089457,4.156746
1042.000000,0.002000,1.045194,-1.627269,-1.325879,1.928009,1.300049,-0.307129,-1.508755,2.371316,1.858275
1043.000000,0.002000,-0.370899,-0.032090,0.198442,2.134522,-0.259779,-0.108952,8.739550,-0.319025,-5.627717
1044.000000,0.002000,-0.730166,-0.680264,-0.404437,0.727839,0.717387,-0.008164,7.114180,4.794695,3.727961
1045.000000,0.002000,-1.639399,-0.359387,-0.219131,0.540704,0.793255,0.526310,5.069790,0.846185,0.570246
1046.000000,0.002000,0.011623,-0.367445,-0.931378,2.990945,0.350345,1.086529,-0.324700,2.141238,7.119824
1047.000000,0.002000,1.209770,-0.200083,-0.358964,-1.333321,0.408230,0.002504,-6.204720,1.341232,1.771824
1048.000000,0.002000,0.565290,0.505407,-0.574395,-0.329222,-0.801284,3.466087,-4.678588,-5.235361,5.254465
1049.000000,0.002000,-0.738933,-0.281408,-0.065260,0.494047,2.085351,0.302983,8.933157,4.098906,0.936651
1050.000000,0.002000,-0.176111,0.130154,-1.059785,1.128941,-0.366434,1.231622,1.440773,-0.952735,7.442728
1051.000000,0.002000,-0.958201,0.831517,0.424163,0.196930,2.373118,-2.079840,4.671968,-4.119497,-1.824265
1052.000000,0.002000,0.278202,0.263617,0.289235,-1.051652,-1.186414,0.745653,-4.797824,-4.579682,-7.786107
1053.000000,0.002000,-0.257293,-0.061774,0.574600,0.792405,-1.490137,-1.811517,3.175949,1.827475,-8.738665
1054.000000,0.002000,0.061714,1.739889,0.300537,0.051013,0.143139,-2.370199,-0.239321,-4.826433,-0.813278
1055.000000,0.002000,-0.046924,0.276097,0.056720,4.376446,-1.114749,0.165682,1.655613,-8.090683,-2.823484
1056.000000,0.002000,-0.025098,0.645397,0.104059,-0.912412,-2.404091,2.468517,0.343572,-8.822805,-0.891192
1057.000000,0.002000,-1.181543,0.646416,-0.470492,1.721224,-1.446641,1.476239,4.151361,-2.817213,1.732805
1058.000000,0.002000,-0.794704,-0.247850,0.304355,1.349720,-0.493801,1.909655,7.102015,2.522925,-3.315320
1059.000000,0.002000,-0.454447,-0.177569,-0.506459,3.453718,-0.305839,1.419621,5.717984,1.189724,6.773608
1060.000000,0.002000,-0.259302,-0.586027,-0.388067,-1.653918,0.994878,1.503149,4.206068,5.730741,4.531113
1061.000000,0.002000,0.244953,0.642896,0.226149,0.597852,-2.142940,-2.204535,-3.316344,-9.601587,-2.064155
1062.000000,0.002000,-0.551390,2.298722,-0.286356,1.263192,-1.627727,0.170675,0.730441,-2.993860,0.391232
1063.000000,0.002000,-0.659065,0.363363,-0.052692,2.274413,-1.856435,1.005910,9.313222,-7.212331,2.308168
1064.000000,0.002000,2.987951,0.985174,0.036363,1.123598,0.084103,0.482072,-1.876306,-0.607658,-0.020362
1065.000000,0.002000,0.156864,1.022086,-0.405798,-3.393659,-0.695888,2.351777,-0.764886,-7.922555,3.133176
1066.000000,0.002000,0.370875,0.202024,-0.060611,-2.444235,1.428921,0.263431,-6.791465,-3.474500,0.059396
1067.000000,0.002000,-0.167190,0.168165,-1.151778,-0.516421,2.184879,1.737282,0.852326,-1.506273,7.200580
1068.000000,0.002000,0.405099,-1.509981,-2.289860,-0.011581,0.052039,1.060719,-0.371618,1.300443,2.042511
1069.000000,0.002000,-1.359341,0.494917,-0.393447,0.095998,-0.094377,0.134881,5.185474,-1.913708,1.348417
1070.000000,0.002000,0.618647,0.258337,-0.541473,-2.553800,-0.166065,1.309261,-4.885079,-2.159229,6.993443
1071.000000,0.002000,-0.325429,-0.567947,0.725520,0.559882,2.680084,-1.666327,1.915248,4.898495,-6.229367
1072.000000,0.002000,-1.335889,-0.814895,0.427849,1.015337,0.853665,1.004623,3.918028,2.676824,-1.410924
1073.000000,0.002000,0.444495,-1.263888,0.202741,0.581434,1.727803,2.319040,-1.804732,5.150290,-0.839104
1074.000000,0.002000,0.605470,0.580885,-0.318855,-0.309213,-2.308527,-1.092291,-6.502510,-5.113749,3.943361
1075.000000,0.002000,0.591756,0.244434,-0.661881,0.470762,4.049666,1.044992,-4.395494,-2.387155,5.937510
1076.000000,0.002000,0.277233,0.300278,0.388477,-1.177566,-2.586437,-2.086261,-3.598549,-4.138020,-6.327089
1077.000000,0.002000,0.930675,0.803537,3.091524,1.488809,-0.938143,-0.003985,-0.511085,-0.437708,-1.635530
1078.000000,0.002000,-0.370722,-0.377098,1.169743,0.679931,1.260769,-1.828752,1.506770,1.839552,-6.380617
1079.000000,0.002000,0.405067,0.516564,0.103891,-0.603354,-0.205286,-1.005653,-6.165326,-7.928508,-2.442189
1080.000000,0.002000,-0.370559,-0.539781,-0.489484,1.351733,1.992087,1.375354,5.142075,5.223464,5.788936
1081.000000,0.002000,0.460103,-0.760062,1.023348,-2.214468,2.064445,0.367827,-2.057333,3.307832,-4.987342
1082.000000,0.002000,-0.610496,-0.265964,0.417233,1.068910,0.670684,-1.581644,7.167838,2.972602,-4.113536
1083.000000,0.002000,0.729795,0.256916,-0.941512,-0.893039,-0.430425,2.941079,-5.106714,-2.169419,4.928837
1084.000000,0.002000,1.086616,0.205209,0.240725,-2.141270,-2.714410,0.052585,-7.182824,-1.538503,-1.918976
1085.000000,0.002000,-0.205860,1.854683,0.266710,-0.342574,-0.902478,-1.601508,0.544343,-4.416208,-0.597627
1086.000000,0.002000,0.685507,-0.184757,0.054525,0.145146,0.885708,0.564975,-9.358662,3.149598,-0.774137
1087.000000,0.002000,1.007575,0.428817,-1.540820,-0.840705,-1.509937,0.869729,-2.320395,-1.016858,3.467062
1088.000000,0.002000,0.913514,1.576216,-0.721321,0.491941,0.717801,2.092682,-1.925696,-3.184896,1.524940
1089.000000,0.002000,0.081514,-1.437649,0.375807,0.131102,1.790837,0.292023,-0.300245,5.504253,-1.396236
1090.000000,0.002000,-1.066114,-0.654409,0.404457,3.077106,0.563613,1.925186,4.994706,3.327190,-2.137759
1091.000000,0.002000,-0.195880,0.734555,0.419393,1.482895,-2.850482,-0.817015,3.451242,-12.522377,-2.597736
1092.000000,0.002000,-0.457052,-0.594975,-0.549106,0.791889,1.685276,0.092528,5.178202,5.401942,4.450628
1093.000000,0.002000,-0.627279,1.535732,1.978716,1.022762,0.751265,-0.588785,0.840303,-1.619389,-2.164712
1094.000000,0.002000,1.167285,1.393414,0.372424,-0.627169,1.352707,0.998389,-2.895037,-3.507573,-0.762677
1095.000000,0.002000,-0.444933,1.317186,-0.510976,0.181742,-1.872656,0.503781,1.627184,-5.212990,1.958392
1096.000000,0.002000,0.873371,-0.278485,-0.448149,-2.567689,2.335129,0.116212,-6.770221,2.471014,3.829121
1097.000000,0.002000,-1.004039,0.397390,-0.893463,2.267449,0.197703,1.506664,4.154151,-1.969594,4.312896
1098.000000,0.002000,1.132018,0.460247,-0.319599,-2.213877,-0.331611,-1.619774,-6.055694,-2.469289,1.945433
1099.000000,0.002000,0.349817,-1.783243,0.085262,-0.135533,-0.291560,-0.159141,-0.940655,4.517798,-0.114628
1100.000000,0.002000,1.643445,1.113109,-0.434300,-1.169051,1.843871,1.487064,-3.142745,-2.211980,0.864549
1101.000000,0.002000,-2.240681,-0.899703,-1.431188,-0.305444,-0.188101,1.015674,1.959970,0.775290,1.246174
1102.000000,0.002000,0.688830,0.919165,-0.105240,-1.205559,-0.701631,2.002984,-4.670943,-5.436568,1.093808
1103.000000,0.002000,-0.193941,-0.236331,0.397174,-1.571335,1.709642,-0.150704,3.353804,4.154820,-12.225524
1104.000000,0.002000,0.062912,0.081231,0.260429,-1.053269,1.184075,-1.440049,-2.599803,-0.411342,-10.686424
1105.000000,0.002000,-0.855912,0.341585,-0.063759,3.088109,0.067932,0.033922,8.146351,-2.237998,0.542313
1106.000000,0.002000,-2.324740,-1.673664,-2.172554,-0.316491,0.475608,-0.385851,0.955490,0.717456,0.936474
1107.000000,0.002000,0.123342,0.048023,0.070005,-1.389843,-0.244245,-0.907426,-4.220749,-0.394231,-3.479879
1108.000000,0.002000,-1.237151,0.882296,0.727100,0.940655,-1.098604,-0.992173,3.517327,-2.710194,-2.014011
1109.000000,0.002000,-0.224089,0.207161,0.556357,1.934675,-2.921028,0.771133,2.822369,-2.095676,-8.901791
1110.000000,0.002000,-1.473796,-0.569944,1.107657,1.295825,2.541500,0.319876,3.361074,1.395656,-2.576693
1111.000000,0.002000,-0.099765,0.177035,0.208265,0.243572,-2.404381,0.125907,3.018552,-3.880080,-7.971951
1112.000000,0.002000,-0.147832,1.626361,1.122394,-0.809941,-1.733800,-1.045146,0.340655,-3.623076,-2.535023
1113.000000,0.002000,0.297154,0.208580,0.738735,1.312655,-0.915789,-0.948740,-1.921361,-2.827686,-7.613423
1114.000000,0.002000,1.145000,-0.223215,-1.317886,-0.059099,-0.551994,-0.766848,-2.964551,0.699111,3.536136
1115.000000,0.002000,0.209011,-0.204024,0.951288,0.276188,0.891970,-2.786687,-2.194215,2.075463,-7.238964
1116.000000,0.002000,1.544289,-0.990143,0.494945,-0.285720,-1.092754,-0.181196,-3.359680,2.331427,-1.099771
1117.000000,0.002000,-0.570598,1.080484,0.428053,-0.333983,-1.334406,-1.891661,3.356935,-5.825977,-2.520917
1118.000000,0.002000,1.017024,0.018068,0.084239,-0.442963,-2.163975,-1.465944,-8.361531,0.154702,-0.842189
1119.000000,0.002000,-0.130627,0.481658,0.463836,-3.187658,-1.160013,-0.289140,1.981811,-6.636560,-7.874003
1120.000000,0.002000,-0.824833,-0.709336,0.075323,0.351281,2.876017,0.111554,4.926409,5.939755,0.720573
1121.000000,0.002000,-0.350825,0.193553,0.620986,1.466121,-0.080472,-2.313474,4.098768,-1.748298,-7.628049
1122.000000,0.002000,-0.064625,-0.169357,-0.267630,-0.354303,0.973227,2.449597,1.346162,3.396136,7.377910
1123.000000,0.002000,-1.393731,1.321997,-1.667151,0.431146,-0.375494,0.676972,1.483348,-1.473396,1.921211
1124.000000,0.002000,-0.826399,-2.334270,-0.625982,0.447183,0.584037,-0.477427,0.895366,2.574090,0.667422
1125.000000,0.002000,-0.002398,-0.343965,0.113041,0.893709,1.258037,-0.091313,-1.000511,8.797284,-2.253812
1126.000000,0.002000,-0.184235,-0.945247,1.997351,1.411178,0.298199,-0.398489,0.215571,1.529084,-3.274294
1127.000000,0.002000,0.144521,1.264756,-0.062057,1.013418,-0.612888,1.946757,-0.859341,-7.468284,0.816508
1128.000000,0.002000,1.791498,0.981591,0.550176,-0.351799,-1.598726,0.415337,-3.242007,-1.760783,-1.048791
1129.000000,0.002000,-0.881953,0.097141,0.139630,1.947522,-0.087859,0.096929,9.319156,-0.971684,-1.600148
1130.000000,0.002000,-0.688773,-1.010743,-1.211409,-1.608352,0.590398,1.522941,2.242597,3.214168,3.340980
1131.000000,0.002000,-0.290202,-0.058504,0.394880,-0.588109,0.123976,-0.228766,4.787639,1.003726,-7.685323
1132.000000,0.002000,0.333478,-0.590198,0.144132,-2.138165,2.904550,-2.322294,-3.985140,7.847709,-2.852117
1133.000000,0.002000,-0.737188,-0.051603,-0.890735,0.882335,0.825988,0.933323,4.335898,-0.383285,5.365489
1134.000000,0.002000,-0.457212,-1.476431,-0.482792,-0.877072,1.944316,0.423336,1.685973,5.042328,1.306379
1135.000000,0.002000,0.280190,0.531711,-0.051134,1.583826,-3.039939,-0.351353,-3.746345,-7.756264,-0.014297
1136.000000,0.002000,1.300566,0.489895,-0.103884,0.035598,0.638997,2.371059,-5.787013,-2.382036,0.792936
