# 
#                 columns are tag, mass, x, y, z, vx, vy, vz, ax, ay, az
#                 Time=0.100000
# 
1.000000,0.002000,1.785123,0.427396,1.020031,0.050228,0.239801,0.320912,-3.185175,-0.643969,-1.876839
2.000000,0.002000,2.247063,1.926723,-0.983962,-0.011025,0.529681,-0.033855,-1.438252,-1.237722,0.653463
3.000000,0.002000,0.847210,-0.226188,-0.186359,-1.194712,-0.710648,-0.780358,-3.374863,0.790521,1.129438
4.000000,0.002000,0.404699,-0.013231,1.243338,-0.139328,-1.544873,-2.318860,-1.673659,0.561582,-4.149020
5.000000,0.002000,0.790024,0.189078,0.390181,0.096288,0.633335,-0.655686,-3.804477,-2.109521,-1.452732
6.000000,0.002000,0.268614,1.466250,-0.134444,-0.680154,-0.496242,0.733409,-0.559749,-4.293729,0.472942
7.000000,0.002000,0.181614,-0.774279,-2.529308,-1.326232,0.833200,0.362529,-0.192415,0.719343,2.566381
8.000000,0.002000,0.680784,0.941797,-0.721837,0.191164,0.641112,0.323594,-1.647436,-2.817685,2.422077
9.000000,0.002000,2.425792,-1.401076,0.116288,1.456752,0.597574,0.698452,-2.038991,1.231488,-0.160985
10.000000,0.002000,-0.398598,1.613397,1.597222,-2.089079,0.690999,1.162228,0.558439,-2.218041,-2.259923
11.000000,0.002000,0.003017,0.401959,-0.742671,-1.562696,0.144897,1.633873,-0.721805,0.026757,3.807125
12.000000,0.002000,-1.972014,-0.491828,-0.066706,0.270749,-1.391923,-2.232104,3.548811,1.028035,0.162911
13.000000,0.002000,1.114801,1.186561,-0.337635,-1.295265,-0.302950,0.546301,-2.824087,-2.955581,0.902622
14.000000,0.002000,-0.304688,-0.827026,-1.531340,0.020961,2.327051,-0.933357,0.892433,2.104872,3.709285
15.000000,0.002000,-1.730806,1.956468,-0.608967,-0.160520,-0.035749,-0.963525,1.678281,-1.833892,0.614004
16.000000,0.002000,-0.372061,-1.267586,0.704009,0.717425,0.028509,-0.830191,1.211415,3.570432,-1.942263
17.000000,0.002000,-1.670050,-0.151676,-0.879770,-0.386412,0.622947,0.259145,3.491954,0.153048,2.023395
18.000000,0.002000,0.345684,-0.473237,-1.400285,-0.472475,0.443962,-1.995080,-1.235985,1.315441,4.079259
19.000000,0.002000,0.167533,0.552966,0.034701,1.902885,1.159569,-0.336958,-2.169450,-2.293922,0.464357
20.000000,0.002000,0.258221,-0.617177,-0.313787,-0.507479,0.311289,0.549348,-1.356816,2.652822,1.191905
21.000000,0.002000,-0.801879,-0.428809,-0.894159,-1.156292,-0.582455,-0.643603,2.658565,1.606127,3.336890
22.000000,0.002000,-1.717170,0.144066,-0.607503,0.274716,-0.349409,-1.995440,3.667486,-0.289325,1.401347
23.000000,0.002000,-1.663790,0.394141,-0.944628,-0.188355,-0.737259,-0.275634,2.913946,-0.703319,1.993019
24.000000,0.002000,0.147698,0.697023,0.274968,0.940658,-0.480919,1.366387,-0.482637,-3.621640,-2.128844
25.000000,0.002000,1.190408,-1.250208,0.324736,0.384851,-0.011247,-0.815798,-2.591832,3.119348,-0.742889
26.000000,0.002000,-0.637230,-0.841281,-0.567589,0.595646,0.444121,0.217781,2.467435,2.898428,2.149430
27.000000,0.002000,-0.075685,0.116022,-1.090981,2.375293,0.575152,0.967534,0.735933,-0.708141,4.176600
28.000000,0.002000,0.911541,0.377147,-1.575439,0.012335,-0.923411,-0.225756,-1.901430,-0.665648,3.325771
29.000000,0.002000,1.520275,1.979346,1.197406,0.253939,0.745898,0.132532,-1.305017,-1.773294,-1.064797
30.000000,0.002000,-0.079133,-1.000495,1.069473,1.014771,0.840475,-0.015110,0.084388,2.896911,-3.293044
31.000000,0.002000,-0.401018,1.116047,0.247022,0.110352,-1.269435,0.329007,1.859505,-4.016716,-0.878938
32.000000,0.002000,1.016852,0.362899,0.670505,0.230023,-0.017317,-0.464797,-3.689959,-1.494730,-2.141732
33.000000,0.002000,0.124005,1.663964,0.022600,1.141488,-1.446650,-1.043289,0.016978,-4.591964,0.103442
34.000000,0.002000,0.509364,1.791627,-1.169380,1.039139,-1.045124,1.874592,-0.742104,-2.684003,1.878907
35.000000,0.002000,-1.244431,0.967571,-1.015337,0.376137,-0.113618,1.690836,2.330870,-1.991455,2.260658
36.000000,0.002000,1.995602,-0.404575,-0.529141,0.357633,0.121552,2.227679,-3.512231,0.609969,0.740468
37.000000,0.002000,1.876970,1.583740,1.891619,-0.521102,0.982000,0.177116,-1.204888,-1.016467,-1.265616
38.000000,0.002000,1.049581,-0.785934,1.947869,1.374027,0.800323,0.246365,-1.409536,0.811540,-2.500948
39.000000,0.002000,-0.337640,0.992263,1.133595,-0.701810,1.772384,1.673530,-0.125839,-2.687157,-3.675833
40.000000,0.002000,-0.203193,0.560638,0.913466,-0.439737,-0.633118,-0.274723,0.953778,-2.015803,-3.672989
41.000000,0.002000,0.439838,-0.963909,0.386790,0.555077,1.551046,0.821669,-0.627159,1.269575,-1.587322
42.000000,0.002000,1.273162,-0.647923,-0.206258,-0.737056,0.568998,-0.563882,-4.496724,2.162235,0.453986
43.000000,0.002000,-0.375998,1.706783,0.757610,0.634928,-1.596535,0.782511,0.874201,-3.517555,-1.493850
44.000000,0.002000,0.438609,-0.716769,0.612695,0.253234,0.648289,0.563781,-1.330897,2.669502,-3.566007
45.000000,0.002000,-0.569600,0.166663,-0.602074,1.190135,1.313575,0.529363,2.450270,-1.193297,3.772511
46.000000,0.002000,0.878202,0.457580,-0.249243,1.823969,-1.301187,-0.349193,-3.790477,-1.940679,1.113625
47.000000,0.002000,0.311096,-1.134235,-1.330716,-0.884332,-0.276936,1.769996,-0.598272,2.881364,3.295734
48.000000,0.002000,0.325058,0.131377,0.548009,-1.230611,-0.366473,-1.014324,-1.584366,-0.356847,-3.171273
49.000000,0.002000,2.317737,0.910741,-0.658954,-0.773771,-0.384337,2.581011,-2.493389,-0.966300,0.852911
50.000000,0.002000,1.279176,-1.261450,-0.513632,1.484433,0.682433,-0.477268,-2.902908,2.680989,0.938808
51.000000,0.002000,-0.209761,1.701174,-0.604345,-1.391981,-0.314578,1.473569,0.340823,-3.885024,1.257462
52.000000,0.002000,-0.900771,-0.216103,-0.557867,-0.582828,-1.164410,1.188216,3.909084,0.018982,2.136138
53.000000,0.002000,1.056199,-1.171004,-1.199789,-0.819544,-0.771026,-0.408490,-1.959525,2.705435,2.350650
54.000000,0.002000,-0.398921,-0.451779,1.894389,0.424860,0.501694,-0.520748,0.701101,0.781100,-3.448901
55.000000,0.002000,0.875291,0.310123,-1.138971,-0.868090,2.174632,1.004580,-2.532799,-1.094577,3.176749
56.000000,0.002000,0.781434,-1.076183,-1.554155,-0.706738,-0.639310,0.065430,-1.499756,2.620839,3.039265
57.000000,0.002000,1.075131,0.356199,0.807144,-1.277517,0.312749,-1.272290,-3.438768,-1.123193,-3.007069
58.000000,0.002000,0.389945,0.847840,-0.654670,0.643541,-0.231942,0.086810,-1.625537,-2.890475,2.485691
59.000000,0.002000,-1.044777,0.778352,-0.819304,0.015668,0.866417,-0.038332,1.567722,-2.479165,2.193842
60.000000,0.002000,-0.587487,-0.534464,0.076113,1.184524,-0.648517,0.559534,2.828985,2.902103,-0.473991
61.000000,0.002000,-0.462808,-1.296332,-0.713433,-0.999232,0.965200,-0.597681,1.366968,3.605100,2.123509
62.000000,0.002000,-2.213757,0.714274,-1.595541,0.189752,0.863767,0.131578,1.858517,-0.582980,1.314113
63.000000,0.002000,-1.121304,0.028134,-0.752032,-0.004255,-0.240211,0.008430,3.082893,0.154553,2.575741
64.000000,0.002000,1.588015,-1.252562,0.066167,0.316309,0.515790,-2.019449,-2.683818,2.296404,-0.062044
65.000000,0.002000,-0.090557,-1.254246,0.376756,-0.521669,-0.659629,-1.531705,-0.329053,4.357781,-1.002768
66.000000,0.002000,-0.251421,0.936720,0.960068,-0.747304,1.501259,1.224891,0.861212,-2.816051,-2.532871
67.000000,0.002000,2.266593,0.971800,-0.460892,0.907256,-3.709379,-0.887776,-2.555726,-1.147609,0.603424
68.000000,0.002000,-0.299343,0.880027,0.601844,-0.528039,-2.372536,-0.666229,1.247668,-2.428216,-3.141726
69.000000,0.002000,0.433240,-1.492156,0.114581,-2.133590,1.447738,1.374985,-1.705154,4.559220,-0.402894
70.000000,0.002000,-0.804031,0.248295,-0.007121,-0.469489,-0.405799,0.945276,4.140779,-0.217538,0.491836
71.000000,0.002000,0.937610,0.219120,0.823733,0.095718,-1.025694,0.214085,-3.760576,-0.462043,-3.678443
72.000000,0.002000,-0.495210,-0.954493,-0.382510,-0.107637,0.110996,0.378719,4.006251,4.827735,1.445681
73.000000,0.002000,-0.012078,0.448462,2.006106,0.056118,0.659713,-2.699902,0.097980,-0.813474,-3.557534
74.000000,0.002000,-0.054512,-0.961754,-0.509683,-0.145805,0.123740,-1.545352,-0.154512,3.655167,2.369582
75.000000,0.002000,-0.686181,0.573090,-1.612842,-2.160575,0.854799,-0.539530,1.744376,-1.360767,3.109900
76.000000,0.002000,0.117275,0.299886,0.141385,0.534499,1.363442,-0.933127,-0.390324,-1.706599,-0.546352
77.000000,0.002000,-0.546327,-0.194450,-1.295930,0.605889,0.451469,1.476037,1.872092,0.472332,3.808571
78.000000,0.002000,-0.405033,-0.440312,0.228804,0.983318,1.136376,-1.946404,2.230432,2.291728,-1.313871
79.000000,0.002000,-1.314886,0.882738,1.772927,-1.489442,0.955011,2.665906,1.873422,-1.084243,-2.159853
80.000000,0.002000,-2.115425,0.316090,0.563257,-0.277949,-1.134860,-1.177262,3.522707,-0.687807,-0.759145
81.000000,0.002000,-0.492984,-0.397589,-0.083802,1.634105,0.060367,0.470735,3.060915,1.210481,-1.029329
82.000000,0.002000,-0.316858,-0.475891,-1.668739,-0.161382,-1.631923,0.276731,0.367031,1.036188,4.263065
83.000000,0.002000,1.278034,0.980232,-0.857899,1.122940,-1.098473,-0.351911,-2.662413,-1.954418,1.849800
84.000000,0.002000,-1.727000,0.614304,-0.566398,-2.433632,0.862132,0.153786,3.377793,-1.381217,1.126194
85.000000,0.002000,0.148448,-0.294646,0.719317,0.015230,0.332045,0.136890,-1.097394,1.366766,-2.562441
86.000000,0.002000,0.680515,-0.739605,-1.495193,-0.228380,-0.059313,-0.943934,-1.667476,1.626220,3.469802
87.000000,0.002000,-1.365866,0.672658,-1.324372,2.278320,0.566708,-1.232644,2.183505,-1.299721,2.406702
88.000000,0.002000,-0.545694,-0.495675,-0.124138,-0.252883,1.148550,-0.690704,3.265226,2.981157,0.482587
89.000000,0.002000,-1.742738,0.261383,0.629176,2.117928,0.706047,0.989057,3.669526,-0.502365,-1.389145
90.000000,0.002000,-0.008419,-0.334367,-0.082276,-0.999066,-0.181418,-1.780716,-0.536001,0.975364,0.911706
91.000000,0.002000,0.361355,-2.727992,1.914655,-0.387332,0.515524,-0.461940,-0.206660,1.410370,-1.000116
92.000000,0.002000,0.486639,-0.544550,-0.285731,0.886449,1.227493,1.106077,-2.015969,2.293807,0.989139
93.000000,0.002000,0.534780,-0.293526,-1.902199,0.358502,-1.757883,1.467733,-1.112019,0.353700,3.658546
94.000000,0.002000,2.004909,-0.128895,1.084582,-0.734240,-0.175461,0.560364,-2.786657,0.145521,-1.597021
95.000000,0.002000,-0.698653,1.529902,0.239510,0.021695,-0.258723,-0.500329,1.708874,-3.897678,-0.736907
96.000000,0.002000,0.780829,-0.989839,1.080721,1.635007,0.672668,-1.452312,-2.048531,2.173235,-2.687928
97.000000,0.002000,0.693744,1.309914,-0.907976,-0.055491,-0.087808,-2.683081,-1.380948,-3.014595,2.745775
98.000000,0.002000,-0.451978,2.268505,-0.909877,0.316252,-0.480323,1.558974,0.493646,-2.603222,1.105814
99.000000,0.002000,-0.054650,1.184655,0.079400,0.835854,0.229038,-0.218896,-0.328045,-5.594891,-1.083981
100.000000,0.002000,0.457205,-0.308209,0.312973,-1.356071,0.978807,-0.645044,-2.231934,1.288413,-2.251273
101.000000,0.002000,-1.355020,1.540439,-0.225797,-0.360805,-1.308171,-1.054713,2.583873,-2.578371,0.502889
102.000000,0.002000,-0.659839,0.654799,-0.395451,0.328099,-0.225176,0.768304,2.487802,-2.105862,2.312787
103.000000,0.002000,-1.360775,-1.310741,0.583878,-0.149080,0.507695,-1.116266,2.753288,2.495725,-0.903921
104.000000,0.002000,-0.186277,-0.053646,0.991730,-0.208449,0.795680,-1.097988,1.144543,-0.358716,-4.499330
105.000000,0.002000,-1.091662,-0.712047,-0.358484,0.550612,0.308399,0.345761,3.891546,2.835317,2.036612
106.000000,0.002000,0.085120,-0.050583,0.047843,-0.145970,-0.057086,3.369686,-1.872672,-0.020623,-0.375343
107.000000,0.002000,0.013332,-0.181658,-0.772065,0.748438,-0.706250,-0.393512,0.206666,1.111735,2.258345
108.000000,0.002000,-0.733475,0.351815,-0.857566,0.922220,0.697648,0.501978,2.399538,-1.492292,3.338873
109.000000,0.002000,-1.118073,-0.252147,-0.249976,0.559905,0.633380,-0.887699,3.667587,1.106483,1.031335
110.000000,0.002000,2.203340,-0.619509,1.172194,-0.654952,0.891554,2.226427,-2.389762,0.748603,-1.309893
111.000000,0.002000,0.738207,-1.162179,0.812881,-0.187031,0.417296,0.303571,-2.027173,3.181281,-1.895673
112.000000,0.002000,-1.199194,-2.511630,0.699435,-0.106899,1.576134,0.903800,0.946094,2.032857,-0.593658
113.000000,0.002000,-1.770651,0.254782,-0.681825,0.030963,-1.996312,0.087560,3.630015,-0.597960,1.429353
114.000000,0.002000,1.765758,1.109269,-0.244002,0.917344,0.312279,2.126318,-2.886942,-1.870857,0.520171
115.000000,0.002000,-0.778505,-1.318528,-0.598116,-0.810543,-0.865260,-1.506103,1.975368,3.072878,1.257017
116.000000,0.002000,-0.456000,-0.581116,0.297803,-1.691737,-2.044583,1.332676,1.538126,2.594900,-0.766072
117.000000,0.002000,0.619183,0.357584,-0.776564,0.304727,-0.003400,0.040150,-1.915169,-1.703459,3.100697
118.000000,0.002000,-1.396052,1.376684,-0.768403,0.535999,0.004393,-0.726639,2.361760,-2.342355,1.293115
119.000000,0.002000,-0.575853,-0.490188,-1.868289,0.815161,0.355115,-0.077433,1.007133,0.865251,3.514396
120.000000,0.002000,-0.592577,-0.459367,0.525981,-1.034507,0.283925,-1.072584,2.642853,1.408668,-2.236659
121.000000,0.002000,0.696206,-0.033179,0.939435,-0.142726,-0.344827,-0.106726,-2.489167,0.433921,-3.668080
122.000000,0.002000,0.255313,0.112361,0.067038,-0.934859,1.279732,-0.966402,-1.616202,-0.237664,-1.153499
123.000000,0.002000,-0.079501,-0.361425,-0.128075,1.149118,0.418684,1.436043,0.337224,0.358786,1.532739
124.000000,0.002000,-1.206651,0.334364,-0.917033,-0.645030,0.489103,0.898761,3.012251,-0.974363,2.564223
125.000000,0.002000,0.873423,-0.373317,-0.051616,0.122602,-1.156620,-1.022637,-3.891018,1.236437,-1.130698
126.000000,0.002000,0.449543,0.603937,-1.543640,-0.488246,-0.469791,0.438073,-0.598168,-1.614683,3.268049
127.000000,0.002000,-0.275762,0.653796,-1.706185,-0.667352,-2.342294,0.094374,0.393559,-1.482857,3.692951
128.000000,0.002000,0.437566,-2.178837,-1.303205,0.482500,0.888293,-2.740716,-0.487735,2.336561,1.439951
129.000000,0.002000,0.040558,-1.632435,-0.921001,0.020157,0.411701,0.748051,-0.063105,3.317815,2.090610
130.000000,0.002000,-1.545413,1.529794,0.380680,-0.619010,-1.299979,2.139318,2.345196,-2.260348,-0.557972
131.000000,0.002000,0.632770,-0.049253,-0.253220,0.527160,1.742109,1.081944,-2.765603,-0.433644,1.350841
132.000000,0.002000,-1.724787,-0.422743,-0.783007,-0.923816,-1.259892,-0.104703,3.236894,1.089486,1.645247
133.000000,0.002000,0.792127,1.248683,1.423377,-0.733282,0.975804,-0.543870,-1.380798,-2.137903,-2.222079
134.000000,0.002000,0.758918,-0.371586,-1.103353,-1.055245,2.318312,0.312154,-2.318528,0.947646,3.806466
135.000000,0.002000,0.631798,0.423755,-1.683086,-1.415610,0.632510,1.037573,-1.126320,-1.056592,3.900442
136.000000,0.002000,0.245249,0.820193,0.197175,-1.192015,-0.135394,1.315071,-1.025914,-3.684776,-1.326228
137.000000,0.002000,-0.094547,-0.807297,-1.463004,0.925920,0.108343,0.021228,0.266540,2.083931,3.727289
138.000000,0.002000,0.651931,-0.296977,-0.482141,-1.612016,0.181265,-2.424408,-2.313322,-0.855738,0.861736
139.000000,0.002000,1.767749,0.564168,0.385161,0.172383,-1.266601,0.120116,-3.621166,-1.010443,-0.479111
140.000000,0.002000,0.374890,1.408291,1.616178,2.297713,-1.216390,-1.167030,-0.739087,-2.050761,-2.620001
141.000000,0.002000,1.051301,0.595977,-2.053297,1.106167,0.068293,0.522666,-2.434918,-0.413039,2.939768
142.000000,0.002000,0.029579,0.014299,0.129397,-0.960193,1.454327,0.303712,-0.657183,-1.200094,-1.034596
143.000000,0.002000,0.916556,-2.731615,-0.516702,-0.302619,0.183670,0.545539,-0.754078,2.071100,0.381349
144.000000,0.002000,0.189124,-0.497843,-1.467884,-0.852062,-0.250245,-0.323840,-0.134478,1.121814,3.574752
145.000000,0.002000,0.911165,0.263243,-0.854603,0.256051,-0.170390,1.312884,-3.117838,-0.984227,3.255747
146.000000,0.002000,0.266279,0.841092,0.117436,-0.553800,-0.039045,1.054278,-0.505793,-5.783311,-1.808030
147.000000,0.002000,0.798826,0.083243,-0.370604,-0.164818,0.032360,0.343168,-3.600467,-0.014559,1.886045
148.000000,0.002000,-1.063580,0.060235,0.280718,1.153494,1.465753,0.786029,3.967449,-0.159467,-1.582875
149.000000,0.002000,0.836407,-0.316393,0.408322,-0.578298,-1.939273,-0.594519,-3.782195,1.763417,-2.265711
150.000000,0.002000,-0.975366,-0.767590,-0.048008,0.073716,0.297024,0.620270,3.913377,2.937891,0.104233
151.000000,0.002000,-1.180740,0.688172,0.232990,-1.083098,-1.447217,-2.327925,3.696510,-2.449717,-0.613415
152.000000,0.002000,0.293954,0.437471,2.169694,0.130564,0.945565,1.314222,-0.318337,-0.773026,-3.267487
153.000000,0.002000,-0.413012,-2.203218,0.379385,0.590614,0.143274,1.776152,0.620569,3.171702,-0.561098
154.000000,0.002000,-0.192110,-0.606574,-1.014413,-1.389500,-0.790639,-0.167298,0.584666,2.002214,3.956340
155.000000,0.002000,-0.400808,0.011605,-0.454585,0.466135,-1.742655,0.609948,1.565024,-0.095653,2.680968
156.000000,0.002000,2.307815,-0.836428,-0.957360,-1.161609,1.281141,-1.601538,-2.300708,0.819615,0.940413
157.000000,0.002000,-2.361721,0.166692,-1.763271,-0.645838,-0.853163,2.599045,1.785155,-0.091882,1.323949
158.000000,0.002000,-0.497553,-0.413229,-0.627976,0.529655,-1.315284,0.983014,1.909341,1.727145,3.276726
159.000000,0.002000,1.953359,1.054695,1.407995,2.038589,0.546123,0.810155,-2.000431,-1.072509,-1.469189
160.000000,0.002000,-0.954675,1.050358,0.590832,-0.593977,-0.931125,0.872284,2.637445,-2.921584,-1.553096
161.000000,0.002000,0.944059,0.937717,-0.955457,1.602766,-1.039604,-0.347251,-2.599224,-2.133284,2.406870
162.000000,0.002000,-0.322522,0.684986,-2.588039,1.032449,-1.818344,0.798005,0.194772,-0.842777,2.507320
163.000000,0.002000,1.398142,0.653511,-0.020019,-1.346620,0.903824,0.251519,-4.036475,-2.059843,0.013048
164.000000,0.002000,0.113010,-1.082412,-0.380723,-1.117853,-0.317634,-0.243175,-0.784656,4.182314,1.384919
165.000000,0.002000,1.197029,1.472276,2.713490,0.934774,1.703077,0.097163,-0.650489,-0.792528,-1.461202
166.000000,0.002000,-0.073720,-0.563093,-0.457555,0.069394,1.064614,0.681100,0.648355,2.370264,2.209668
167.000000,0.002000,-1.276152,-0.042243,0.255612,-2.345663,0.402977,-1.355909,4.441793,0.469954,-0.816411
168.000000,0.002000,-0.105553,0.908226,-0.449469,-0.681916,-2.084261,-2.059171,0.570069,-3.834893,2.274241
169.000000,0.002000,-0.500753,-0.791065,-1.549300,-1.474809,-2.015658,1.018567,1.149818,1.848689,3.616675
170.000000,0.002000,-1.581556,-1.299662,1.450697,-0.040898,-1.131555,1.414919,1.873165,1.404508,-1.490626
171.000000,0.002000,0.879832,1.399584,-1.475953,-0.220305,0.138829,-1.320292,-1.290496,-2.102437,2.321560
172.000000,0.002000,-1.728013,-0.660714,0.077131,2.581847,0.057569,-0.986989,3.693831,1.258087,0.024391
173.000000,0.002000,0.438989,1.085776,0.148004,-0.698102,0.200966,-1.403285,-1.997944,-3.312785,-0.166636
174.000000,0.002000,1.655919,-0.244629,-0.991511,-1.037829,-0.195435,-0.691023,-3.419304,0.535795,1.827063
175.000000,0.002000,-1.699887,-0.800897,0.266621,-0.023313,0.955687,0.217616,3.295352,1.467177,-0.649651
176.000000,0.002000,-0.734276,1.007816,1.459795,1.619493,0.597356,0.341638,1.340046,-2.421484,-2.804576
177.000000,0.002000,-2.289049,0.761836,-2.199597,0.867957,-1.044658,0.461815,1.277048,-0.442814,1.268903
178.000000,0.002000,0.664984,1.098634,0.075629,2.526150,-1.452723,0.087828,-2.465756,-3.828839,-0.006681
179.000000,0.002000,-1.229015,-0.642274,-0.220589,0.694633,-0.472473,0.469821,3.980596,1.958540,0.748082
180.000000,0.002000,-0.255111,-0.297594,-0.071911,-0.664462,-0.886463,0.384639,1.487115,1.285620,0.617477
181.000000,0.002000,0.298509,-1.365788,-0.210107,0.810245,-1.365349,0.339888,-0.921746,4.264215,0.362320
182.000000,0.002000,1.410458,-0.200186,-0.342114,-1.256209,1.892716,1.060270,-4.223141,0.856315,1.372117
183.000000,0.002000,1.044598,-2.484140,1.181933,-0.372211,0.852124,-0.046089,-0.683252,1.829560,-1.019318
184.000000,0.002000,-0.564379,0.030046,0.114040,0.774584,-1.287688,0.160788,1.596869,0.623744,-1.115417
185.000000,0.002000,0.781326,-0.378326,-0.561970,-1.773857,-1.017178,1.277326,-3.292774,1.642443,2.343551
186.000000,0.002000,1.389754,-2.172213,-0.185219,0.848190,2.032859,-2.050443,-1.502006,2.287566,0.166518
187.000000,0.002000,-1.403721,-0.777411,1.909109,-0.480850,-0.111980,-1.135264,1.582888,0.954370,-2.207577
188.000000,0.002000,-0.178077,0.171363,-1.821113,-1.320663,-0.255003,-0.196725,0.276211,-0.368838,3.905859
189.000000,0.002000,-0.807122,0.269041,0.280740,-0.617986,0.671491,-0.834804,3.738921,-1.022202,-1.818124
190.000000,0.002000,0.605844,0.049852,0.568315,-0.216500,0.418658,0.294985,-2.088482,-0.082548,-2.425586
191.000000,0.002000,0.385906,-1.791432,0.048159,-0.726189,0.580166,0.104265,-0.911911,4.048608,-0.169845
192.000000,0.002000,0.814661,0.598495,-0.390030,0.312431,-0.034381,-0.185479,-3.104478,-2.459789,1.408301
193.000000,0.002000,-0.798226,-1.074383,0.055858,0.218956,0.587776,1.854150,2.783198,3.595208,-0.340618
194.000000,0.002000,1.083953,-1.975750,-0.739908,-0.569132,-0.110418,-0.757356,-1.527930,2.568739,0.872221
195.000000,0.002000,-1.020284,0.617263,-0.412948,1.361425,-1.784035,1.505505,3.510529,-2.161406,1.780603
196.000000,0.002000,-0.601519,-0.228048,0.454918,-1.189722,-0.062933,-0.011223,2.842238,1.394914,-2.346125
197.000000,0.002000,-0.396409,-3.136168,0.598187,-0.029925,-0.805022,0.530424,0.210301,1.870202,-0.371671
198.000000,0.002000,0.353017,-0.006867,-0.962905,-0.931121,2.129326,1.406054,-1.140363,-0.161637,3.760999
199.000000,0.002000,0.320163,0.118157,-0.475228,-0.353113,-2.715796,0.095418,2.926111,-3.606812,8.126023
200.000000,0.002000,-0.270463,-1.120708,-0.329507,-0.539198,-1.682407,-1.445906,1.250265,5.062794,1.537210
201.000000,0.002000,-1.734391,0.378015,-0.827963,-1.687022,-0.426597,1.237346,3.268175,-0.998935,1.583169
202.000000,0.002000,0.172785,-1.404021,-0.436416,-0.665212,0.222030,1.600372,-0.609519,4.212404,1.048140
203.000000,0.002000,-0.129681,-1.605553,-0.011457,-0.181267,0.751950,-1.282527,0.481974,3.813842,-0.411810
204.000000,0.002000,-0.423488,-1.784660,-1.358331,-0.406072,-0.298087,-0.451373,0.758769,2.483861,1.955493
205.000000,0.002000,0.597980,0.739573,0.029116,-0.232814,-1.719744,1.625641,-3.147944,-3.266371,-0.130307
206.000000,0.002000,0.489393,0.298419,0.229096,0.703113,0.684021,-1.078197,-2.795258,-2.014668,-1.186544
207.000000,0.002000,1.339216,-1.450574,0.561860,0.404261,0.688191,-1.199754,-2.489693,2.548176,-1.033092
208.000000,0.002000,-0.210759,-0.237896,-0.095004,1.780415,-0.087725,2.115814,1.109859,1.654161,0.436833
209.000000,0.002000,-0.277397,-1.283056,0.235448,1.037397,-0.363823,0.467797,1.018826,4.315458,-1.107061
210.000000,0.002000,1.747080,0.011751,0.000855,0.536693,0.754935,0.112854,-6.085716,0.178095,0.782979
211.000000,0.002000,-0.659053,-0.186788,0.531800,0.472339,-0.725315,0.503363,6.800967,2.059417,-2.984663
212.000000,0.002000,-0.479296,-0.468261,0.436655,-0.938108,0.040414,0.220770,2.603035,2.784359,-3.185858
213.000000,0.002000,-0.847462,0.178913,0.652690,0.872765,-0.783717,-1.817381,1.351715,-0.856138,2.075003
214.000000,0.002000,1.148033,-0.251096,1.352198,-2.253728,-1.561506,-0.298792,-2.525409,-0.073793,-2.831689
215.000000,0.002000,0.970894,-0.754465,-1.163617,-0.751485,2.535062,0.688029,-2.438525,2.632585,3.433826
216.000000,0.002000,-0.336154,0.865685,-0.113041,-0.233797,-1.843143,-0.363983,1.612687,-4.207587,0.886825
217.000000,0.002000,-0.587947,1.463138,0.445226,0.201651,-1.091969,1.531798,1.712966,-3.959091,-1.046853
218.000000,0.002000,-2.438261,0.218425,0.429680,-1.030867,-1.002651,-0.936972,2.874279,-0.280217,-0.618096
219.000000,0.002000,0.026567,0.513111,-0.055101,-2.055708,0.481675,0.218162,1.687573,-3.127482,1.554560
220.000000,0.002000,-1.427811,-0.335972,-0.901730,-0.942743,0.392309,0.551712,2.978963,0.886654,2.073788
221.000000,0.002000,-0.922683,-1.295944,0.534898,0.217970,-0.164938,0.767643,2.371591,3.246077,-1.229607
222.000000,0.002000,-0.083268,-0.574971,-0.651398,-1.793747,-1.159281,0.183469,2.213119,5.979943,3.950034
223.000000,0.002000,-0.003299,1.070371,-1.969224,0.201348,-0.166229,0.492504,0.002637,-1.584860,2.850324
224.000000,0.002000,0.371962,-0.410003,-1.881309,-0.093317,1.387509,0.211731,-0.702942,0.533941,3.670700
225.000000,0.002000,-1.774593,-0.848164,0.111907,1.875448,0.715942,-1.076107,3.488561,1.639254,0.033338
226.000000,0.002000,0.481001,-1.164547,0.831990,0.816492,-2.106807,-1.985541,-1.381655,2.963074,-2.381676
227.000000,0.002000,1.368362,0.324372,-0.627858,-0.749032,-0.761337,-0.276293,-4.217167,-0.999469,1.901038
228.000000,0.002000,1.097019,0.968255,0.791197,-0.412012,2.012518,-0.867262,-2.735338,-2.351390,-1.971092
229.000000,0.002000,-0.724635,-2.801627,2.119764,-0.667355,0.389395,-0.016152,0.296733,1.200981,-0.920345
230.000000,0.002000,-1.628908,0.009895,2.210741,-0.109327,0.457497,-1.801948,1.484641,-0.004847,-2.093489
231.000000,0.002000,0.625377,1.052383,-1.469583,2.890320,0.931262,0.509801,-1.424978,-1.879729,3.311096
232.000000,0.002000,-1.743426,-0.586876,1.103522,0.491576,-0.496647,0.030809,2.974189,1.091687,-1.908455
233.000000,0.002000,-0.364044,-0.904050,-0.025274,-0.101089,-0.917094,-2.257448,1.535013,3.490061,-0.407398
234.000000,0.002000,1.059881,-1.371925,-1.244066,-0.310198,0.850655,-0.235943,-1.812189,2.454166,2.040873
235.000000,0.002000,-1.043457,1.057907,0.323563,-2.402855,-0.524539,0.837572,3.067640,-2.907137,-0.969534
236.000000,0.002000,2.019557,0.813679,-0.004473,-1.275818,-1.287893,0.302856,-3.134957,-1.236452,-0.042009
237.000000,0.002000,1.260740,0.200512,-0.684093,-0.235295,-0.143072,0.330620,-4.103692,-0.404502,2.909334
238.000000,0.002000,0.830707,-0.726262,-0.237390,1.343092,-0.119457,0.554697,-3.631530,3.525047,0.371847
239.000000,0.002000,1.322396,-0.016394,-0.839109,-0.259944,0.846870,-0.226132,-4.144643,-0.700680,2.500220
240.000000,0.002000,-0.318404,1.199758,-0.693590,1.484444,1.598753,-1.315173,1.224490,-3.918418,2.256895
241.000000,0.002000,-0.362032,-0.401291,0.195694,0.295553,1.156563,0.087633,1.208158,1.323719,-0.398224
242.000000,0.002000,-0.445405,-1.554541,-0.859526,-0.543927,0.642762,0.361387,1.106194,3.491452,1.951351
243.000000,0.002000,-0.907753,1.200061,0.761460,0.377733,-0.594840,-0.599699,2.581762,-2.960080,-1.828965
244.000000,0.002000,0.520675,-0.624477,-0.758118,-0.819493,-1.078333,0.748139,-2.783862,3.755912,3.435249
245.000000,0.002000,-0.571684,-1.135867,2.487843,-0.619898,-0.789418,-0.203189,0.445835,1.016093,-2.168247
246.000000,0.002000,-2.367521,0.414078,-1.157535,-1.106761,-1.522301,1.328819,2.334433,-0.412457,1.138946
247.000000,0.002000,-0.189319,-1.084292,-0.907019,-0.821445,-0.776357,2.858771,0.798211,3.433476,2.818329
248.000000,0.002000,-1.268185,1.649984,-0.123370,-1.175493,-1.196634,0.107930,2.202468,-2.927652,0.132823
249.000000,0.002000,-0.845161,0.347047,-0.122953,-0.621764,-2.182625,-1.340094,3.573279,-2.575160,-0.974947
250.000000,0.002000,0.709655,-1.747003,0.374001,-0.181493,0.934522,0.668513,-1.539217,3.347032,-0.767225
251.000000,0.002000,0.716752,-1.462691,0.544845,-0.640352,2.162928,0.927004,-1.401989,3.318799,-1.200042
252.000000,0.002000,1.651340,0.015929,0.779112,-0.630970,0.305557,-0.506122,-3.694143,-0.036693,-1.656664
253.000000,0.002000,0.794151,-0.703123,0.026307,1.077691,0.199843,-0.152963,-3.243038,3.114021,-0.351250
254.000000,0.002000,-1.621868,-0.411868,0.276017,-0.352280,0.440520,0.077732,3.942454,0.958491,-0.481869
255.000000,0.002000,0.623305,-0.085356,0.618149,-1.092638,-1.028221,-1.202917,-2.213174,1.109919,-2.842963
256.000000,0.002000,-0.989490,-0.024647,0.069408,1.297234,0.830057,0.487721,3.170328,0.439411,-0.403567
257.000000,0.002000,2.071343,-0.204943,-0.524943,2.046647,0.136393,-0.225863,-3.662241,0.495034,0.608273
258.000000,0.002000,0.196769,-0.835253,0.195627,1.703019,1.007133,-0.023634,-1.128870,3.540650,-0.959449
259.000000,0.002000,-0.163358,-1.674669,0.060954,2.050924,1.369299,1.186928,0.395681,4.015543,-0.296951
260.000000,0.002000,-0.046125,-1.909205,-0.089106,2.738285,-2.564167,-0.222224,0.113830,3.436812,-0.218003
261.000000,0.002000,1.560381,0.265844,0.485617,0.522846,-2.585310,-1.326063,-3.988465,-0.442109,-1.177133
262.000000,0.002000,-1.262892,0.525458,0.240567,0.943557,0.423341,0.896802,3.721309,-1.536438,-0.999335
263.000000,0.002000,0.521022,0.398977,-1.259937,-0.142592,-0.299719,1.203464,-0.990454,-1.317482,4.174209
264.000000,0.002000,-0.054206,-0.652402,-0.100611,-0.135531,1.205214,-0.491574,0.032877,3.110114,-0.108743
265.000000,0.002000,-0.819284,1.430200,-0.622888,0.877991,1.022220,2.457760,1.934319,-3.250803,1.823131
266.000000,0.002000,-0.984191,0.196671,-1.139710,-0.682032,1.215359,-0.484891,4.111065,-1.100656,2.981266
267.000000,0.002000,-0.165914,-0.815436,1.325711,2.612477,0.263081,-1.027093,0.282490,2.264627,-3.698427
268.000000,0.002000,0.814573,0.024139,-0.535530,0.126675,0.804200,-1.333710,-3.206835,-0.286331,2.307818
269.000000,0.002000,1.027149,0.493356,0.489617,0.670439,0.786885,-0.170383,-3.508570,-2.015330,-1.624936
270.000000,0.002000,-0.088670,-1.641341,-0.046300,-0.639289,0.670254,0.656138,-0.337322,4.203703,-0.025292
271.000000,0.002000,-0.632992,0.563985,1.111495,-0.920644,-0.895905,0.836713,1.642906,-1.404148,-3.077839
272.000000,0.002000,-0.548220,0.349091,1.779246,1.146411,-1.223537,0.245591,0.858648,-0.500027,-3.855699
273.000000,0.002000,-0.554036,1.397223,-0.734074,1.192893,-3.010337,1.286453,1.048067,-3.433108,2.076652
274.000000,0.002000,-0.018213,0.036711,0.043542,-0.420994,0.366621,0.283970,0.170036,-0.832282,-0.040087
275.000000,0.002000,-0.970823,-0.554889,-0.613523,-1.187958,0.476612,0.658246,3.417418,2.503984,2.301165
276.000000,0.002000,0.297837,0.254131,2.251586,-0.312905,-0.774024,0.094229,-0.428376,-0.261883,-3.218960
277.000000,0.002000,1.343710,-0.591547,0.492994,-0.466085,-0.733692,1.611935,-3.838346,1.599504,-1.480162
278.000000,0.002000,0.867835,0.156195,-0.159130,-1.488789,1.212835,-0.862934,-3.667788,-0.785497,0.543227
279.000000,0.002000,-0.005669,1.003577,-0.904594,-0.577850,1.213312,-0.440224,0.229480,-2.822421,2.373766
280.000000,0.002000,-0.167977,0.560547,0.252757,1.627043,0.782867,-0.678969,0.877224,-2.545172,-1.639926
281.000000,0.002000,-0.032398,-0.410227,0.994944,-2.743159,-0.333762,0.044395,0.024316,1.305058,-4.024476
282.000000,0.002000,2.131813,0.527344,-0.172129,-0.186578,1.176074,0.221511,-3.211788,-0.743210,0.211771
283.000000,0.002000,0.816183,-0.401011,-0.720967,0.481116,1.487926,0.416084,-2.784713,1.302959,2.629748
284.000000,0.002000,0.053232,-2.612805,-1.206987,0.200662,-0.193614,-0.482432,-0.069095,2.115314,0.957980
285.000000,0.002000,-0.672386,-1.406486,-1.104682,-3.176923,-0.377060,-0.597794,1.429349,2.986675,2.321098
286.000000,0.002000,-0.538874,-1.519707,-0.364640,-0.964621,1.415004,0.460349,1.321187,3.734638,0.900703
287.000000,0.002000,-0.523812,0.022657,1.131140,0.205678,-0.023958,-0.435901,1.844497,0.107713,-4.190713
288.000000,0.002000,0.212820,0.209134,0.269941,0.334464,1.853062,1.746652,-2.537364,-0.971332,0.992148
289.000000,0.002000,0.308660,-0.795565,-0.271163,0.749469,2.402458,-1.530477,-1.468565,3.964787,0.982575
290.000000,0.002000,0.471480,-1.272266,0.837481,1.544371,1.146189,-0.438251,-1.076556,2.888259,-2.759725
291.000000,0.002000,1.020859,-0.713024,-0.255226,-0.789680,-0.688702,-0.100938,-3.699611,2.657882,0.720193
292.000000,0.002000,-0.961855,0.586984,-1.012215,-0.716824,-1.218901,0.634749,2.514490,-1.808641,2.874576
293.000000,0.002000,-0.229508,-0.927170,0.050073,-0.004394,-0.502595,-0.033254,1.546551,3.797809,-0.264507
294.000000,0.002000,-1.737492,1.228989,-0.891623,0.679134,-1.067180,0.792349,2.191797,-2.111127,1.187300
295.000000,0.002000,0.174105,-0.054799,-0.756041,1.120690,1.592912,0.208022,-0.242102,0.164180,2.593802
296.000000,0.002000,-0.891076,0.984423,-0.551590,0.025655,0.327145,-0.239038,2.169744,-4.263029,0.908950
297.000000,0.002000,0.179308,-0.802325,-0.805144,-0.932601,0.127009,-1.429131,-0.551226,3.217771,3.141752
298.000000,0.002000,0.386451,0.865890,0.037545,-0.944448,-0.787968,2.173128,-1.950545,-2.909407,-0.133053
299.000000,0.002000,-1.537072,2.008554,-1.034345,-1.082444,0.007743,-1.743463,1.415037,-1.828277,0.580587
300.000000,0.002000,-1.517448,2.668480,-0.386791,0.294049,0.650998,0.185281,1.028095,-1.781014,0.249920
301.000000,0.002000,-1.430409,-0.623804,0.394966,0.492596,0.689197,0.226298,3.637790,1.890637,-1.091614
302.000000,0.002000,0.196085,-0.732019,1.918355,0.040309,1.265472,0.798107,-0.328721,1.246259,-3.088986
303.000000,0.002000,-0.663652,-1.355842,0.997703,-1.332335,-1.569806,0.258960,1.668509,2.688762,-2.050769
304.000000,0.002000,1.286062,-0.894937,-1.505779,-0.541079,-0.716997,-0.914964,-2.164101,1.206151,2.473374
305.000000,0.002000,1.295680,-2.122852,-1.240687,2.592861,-0.656058,-0.089813,-1.214132,1.864887,0.997176
306.000000,0.002000,0.984932,0.099340,-0.248025,-0.039539,1.499689,0.190956,-4.185290,-0.927687,0.600005
307.000000,0.002000,0.320780,-0.393151,-1.403180,-0.380831,-2.359485,-0.808265,-1.124921,0.583025,4.312034
308.000000,0.002000,1.281821,1.403898,0.420300,-0.072970,0.647728,2.110971,-2.604965,-2.758773,-0.746454
309.000000,0.002000,0.150459,2.377340,-0.319175,1.054692,0.225042,-0.408825,-0.039851,-2.983114,0.395674
310.000000,0.002000,-0.252161,0.313999,1.365278,0.117918,-0.526947,-1.261907,0.504170,-0.716713,-4.043573
311.000000,0.002000,1.610923,-0.236962,0.447951,-0.004640,0.267015,1.335534,-3.165167,1.498001,-1.485282
312.000000,0.002000,-1.299358,-0.316269,-0.756011,0.955484,-0.007973,0.952885,3.547002,0.757113,2.305466
313.000000,0.002000,-0.958026,1.698796,-0.658628,0.573530,0.023156,1.403681,1.763122,-3.081565,1.278821
314.000000,0.002000,-0.373487,0.346509,1.216567,1.638676,-0.240309,-1.014814,1.247358,-0.978121,-4.222013
315.000000,0.002000,0.557104,2.628091,-0.243832,0.737103,-1.438903,-1.682257,-0.518184,-2.571960,0.297277
316.000000,0.002000,0.360544,0.343246,1.413305,0.965726,0.621815,-0.425778,-1.203344,-1.073887,-4.066358
317.000000,0.002000,0.475605,-0.235647,-0.988701,-0.422697,-1.186201,-0.223305,-2.983519,-0.293120,3.657341
318.000000,0.002000,0.294283,1.445586,-0.379081,0.475665,0.240862,0.374420,-0.661396,-4.161515,1.273854
319.000000,0.002000,0.441284,0.255039,0.836652,-0.995146,0.066054,-0.460235,-2.730531,0.098236,-4.082559
320.000000,0.002000,-1.097155,2.330918,-1.272290,-2.885457,-0.252977,0.128006,0.885673,-1.886617,1.203665
321.000000,0.002000,-0.426894,0.980944,0.379092,-0.522823,0.230120,0.747761,1.739840,-3.669974,-1.591797
322.000000,0.002000,0.703371,-0.520509,-0.103460,-1.437224,-0.117108,-0.293402,-3.348725,2.712865,0.002442
323.000000,0.002000,-0.056304,1.715340,0.781198,-0.694493,1.271263,0.822016,0.096342,-3.562641,-1.644382
324.000000,0.002000,0.857616,-0.650265,0.744813,0.473248,0.180434,-2.366108,-2.723362,2.058571,-2.560017
325.000000,0.002000,0.308613,1.389164,1.997329,0.814070,-0.079606,-0.289026,-0.355417,-1.607829,-2.419047
326.000000,0.002000,-0.429082,-0.434395,-0.774086,-1.105117,-0.198609,1.071877,2.033604,1.513322,3.440443
327.000000,0.002000,0.045816,-0.321742,0.479812,1.886408,0.700417,1.076017,-0.393463,1.938946,-2.802666
328.000000,0.002000,-0.299401,-0.349693,1.150225,-1.502126,0.174269,0.668237,1.024507,1.073955,-3.837944
329.000000,0.002000,-1.038115,0.500754,-0.337210,-0.816605,0.604684,0.782267,4.132635,-1.969659,1.639168
330.000000,0.002000,0.663660,1.133903,-0.276434,-0.723675,-2.692693,0.298408,-2.254708,-3.652499,1.255182
331.000000,0.002000,0.432791,0.146238,-0.835233,-0.159204,-0.385169,-0.200568,-1.569028,-0.920724,3.369153
332.000000,0.002000,0.141920,0.396829,0.370684,-1.000457,1.005545,-0.524260,0.319263,-1.624053,-2.065079
333.000000,0.002000,-0.256908,0.180227,-1.059774,-0.535271,0.772056,1.072928,1.258373,-0.874644,3.911534
334.000000,0.002000,-0.563721,0.459256,1.053897,-1.975943,-1.059353,1.414049,1.784982,-1.644339,-3.838631
335.000000,0.002000,-0.283542,0.173867,0.311688,1.487880,0.638235,0.761323,1.409162,-1.289900,-1.758790
336.000000,0.002000,0.242904,0.555155,-1.867415,0.388644,0.088918,-0.316147,-0.501963,-1.100823,3.517546
337.000000,0.002000,-0.104718,0.247737,-0.929485,-0.560321,0.032189,0.870363,-0.008004,-0.978227,3.587189
338.000000,0.002000,1.606343,0.136792,1.581943,-0.797594,-0.260443,0.062071,-2.465933,-0.282107,-2.436201
339.000000,0.002000,-0.752718,-0.913014,0.025137,0.530880,0.103851,-2.017673,3.155326,3.270095,-0.085827
340.000000,0.002000,-1.621507,0.116086,0.046277,0.780668,-1.017050,-0.515644,4.285726,-0.548654,-0.128948
341.000000,0.002000,1.114168,0.669521,-0.417896,0.806211,-0.432353,0.076843,-3.774410,-2.372000,2.182481
342.000000,0.002000,-1.245379,1.718322,-0.693965,-1.390568,-0.072044,1.037864,1.822639,-2.626959,1.050775
343.000000,0.002000,-1.106276,-1.254283,1.145541,-0.503672,-1.588599,0.184742,2.062235,2.091697,-1.869476
344.000000,0.002000,-0.416742,-0.894107,0.182591,1.106364,-1.220631,0.405056,1.477224,3.729685,-1.087098
345.000000,0.002000,-0.076208,-0.631829,0.810979,1.330089,0.579330,0.416219,0.231990,2.416078,-3.182139
346.000000,0.002000,0.928230,0.915377,0.796517,-1.509508,-0.819003,0.186282,-2.584346,-2.510195,-2.355181
347.000000,0.002000,0.561125,-1.682985,1.615652,1.553339,1.029821,-0.636958,-0.731952,2.034927,-2.048312
348.000000,0.002000,0.241400,0.786180,1.246472,-0.653247,1.675041,1.140239,-0.727531,-2.281105,-3.255122
349.000000,0.002000,1.367695,0.349623,0.410367,-0.851135,-0.732874,-0.307399,-4.029697,-0.967751,-1.152063
350.000000,0.002000,-0.413853,0.106798,-0.789575,1.986958,0.722427,0.819854,3.261752,0.105301,3.271900
351.000000,0.002000,-0.810944,-0.815773,0.094995,-0.753928,0.927204,2.502949,3.171824,2.830119,-0.523455
352.000000,0.002000,1.020823,3.162340,0.157625,-0.310673,-0.170885,-0.324406,-0.558797,-1.699339,-0.107131
353.000000,0.002000,-1.359197,1.535448,-0.408895,0.030164,2.570176,-1.051540,2.454080,-2.710869,0.900505
354.000000,0.002000,-0.832974,0.177407,-1.163606,-1.615769,-0.361753,0.937972,2.234392,-0.623925,3.371777
355.000000,0.002000,0.207460,0.129902,-0.020364,-0.180089,2.211273,-1.132023,-0.434744,-0.416595,2.218593
356.000000,0.002000,0.264668,0.252386,0.170201,-1.288143,1.787710,1.547748,-1.685924,-1.393915,-0.554637
357.000000,0.002000,0.303775,0.335868,-0.950305,0.129557,-0.872389,0.999529,-1.510585,-1.516402,3.700680
358.000000,0.002000,-1.391629,-0.027823,-1.392161,0.517628,0.327669,0.533645,2.758110,-0.160275,2.601212
359.000000,0.002000,0.153996,0.808538,0.918811,0.631143,-1.475232,2.941853,-0.736500,-2.959294,-3.164679
360.000000,0.002000,-0.962013,-0.813752,0.326527,1.020994,0.595962,-0.085644,3.121697,3.028167,-1.620058
361.000000,0.002000,-0.390431,-0.210736,0.685757,0.195270,1.110892,0.728629,2.085488,1.197397,-2.926831
362.000000,0.002000,-1.026715,-0.257518,-0.873157,-0.234205,1.449111,-0.598215,3.119667,0.311406,2.814425
363.000000,0.002000,-1.058966,-0.808058,0.702932,0.005672,0.637596,0.179521,1.416979,4.162723,1.003258
364.000000,0.002000,0.091135,-0.929150,-0.251175,0.376477,-0.304734,-0.162144,-0.551579,3.575041,0.741103
365.000000,0.002000,-1.618725,-0.564623,2.271383,0.270972,1.714016,1.120995,1.369277,0.503441,-1.949554
366.000000,0.002000,0.055885,0.511010,-0.002452,1.428337,-2.343370,0.626627,-0.244354,-1.608657,-0.006304
367.000000,0.002000,0.235943,0.503807,-1.123661,-1.127960,-1.701290,0.006745,-0.521186,-1.502750,3.841382
368.000000,0.002000,-0.210085,1.599851,-0.730953,-1.775370,0.029380,0.744432,0.503710,-3.681005,2.108386
369.000000,0.002000,-0.589011,-0.215599,0.406941,-0.083635,0.960324,1.311207,2.517582,0.682901,-0.976123
370.000000,0.002000,0.545076,1.285314,0.370517,0.110063,-0.005268,-1.354122,-1.864005,-3.722348,-1.355485
371.000000,0.002000,-0.149895,1.248779,0.811819,-0.858187,-0.298361,0.963112,0.432622,-3.829072,-2.275962
372.000000,0.002000,-1.555674,2.453860,1.744909,-0.562438,-0.787777,-0.294509,0.764994,-1.252496,-0.896625
373.000000,0.002000,-0.219009,0.222467,1.336350,-0.490440,-1.578759,-0.084571,0.393025,-0.357811,-4.189447
374.000000,0.002000,-0.179204,0.644099,1.216401,-0.051495,-0.979968,0.907312,0.239919,-1.648976,-4.632276
375.000000,0.002000,-1.009737,-0.612821,0.805814,0.181742,-0.023867,-1.291717,2.785459,1.531685,-2.594341
376.000000,0.002000,0.544473,1.060954,-0.118126,0.722973,1.189242,0.193007,-2.278568,-3.876794,0.298874
377.000000,0.002000,-0.214622,-1.964401,-1.283512,0.761659,0.481631,-1.290928,0.304630,2.702212,1.692222
378.000000,0.002000,-0.121114,0.846649,0.552589,-1.675218,0.043022,0.088002,0.380029,-3.676248,-2.735637
379.000000,0.002000,-0.019104,-0.094376,0.295444,1.123898,1.808270,0.694812,0.803209,0.496913,-2.018928
380.000000,0.002000,-0.081936,1.330950,0.217291,-1.584760,-0.987470,0.684088,0.374718,-5.044808,-1.282372
381.000000,0.002000,-1.540439,-1.341186,1.547239,-0.511134,-0.614365,0.196907,1.633994,1.507996,-1.762016
382.000000,0.002000,-0.992904,0.659796,-0.182011,1.982865,-1.166997,0.898581,4.683491,-2.604457,0.713575
383.000000,0.002000,-0.172521,-0.120625,1.179780,0.020816,0.155786,-0.637029,0.977656,0.305670,-4.320644
384.000000,0.002000,-0.228181,-0.023088,-1.460691,-0.321173,0.099599,0.920637,0.699424,-0.083954,4.400762
385.000000,0.002000,0.318851,0.482629,0.079901,1.058672,-0.604749,-1.607478,-1.018589,-2.664578,0.013642
386.000000,0.002000,1.390673,0.075642,0.402145,-0.296636,0.200127,0.970710,-4.546939,-0.123202,-1.465390
387.000000,0.002000,1.625232,-1.569132,-0.469549,-0.347563,-0.084542,-0.100625,-2.289662,2.108858,0.799968
388.000000,0.002000,1.394316,0.868735,0.552380,-0.467345,-0.778932,-1.329982,-3.078516,-2.124840,-1.381179
389.000000,0.002000,0.721357,0.460901,1.555236,-1.199024,1.286634,-0.941369,-1.667506,-1.153235,-3.666923
390.000000,0.002000,0.237092,0.192250,0.199358,-1.508433,-0.551048,0.371133,-2.863379,-1.840936,1.331967
391.000000,0.002000,0.142988,-0.952806,0.869432,-0.549298,2.172971,0.817876,-0.538852,2.977986,-2.976403
392.000000,0.002000,-0.191779,1.757636,-0.037660,-0.592209,-0.846922,0.386392,0.428158,-4.180257,0.099475
393.000000,0.002000,0.440298,0.373991,-0.666795,0.105316,1.223624,-0.264188,-1.865806,-1.172268,3.047270
394.000000,0.002000,0.976578,1.927372,0.027835,-0.235414,0.067687,0.427811,-1.534589,-3.162220,0.005506
395.000000,0.002000,-0.352326,-0.241041,-1.639482,-0.479520,1.164238,2.726611,0.771271,0.449189,4.025531
396.000000,0.002000,-0.135225,0.191043,1.064422,0.442687,-0.640197,-0.117425,0.435708,-0.699230,-4.334227
397.000000,0.002000,0.943900,-0.251865,-0.392773,-0.348052,1.711207,-1.092272,-3.452521,0.839466,1.504856
398.000000,0.002000,1.150137,-0.067402,-0.529080,0.081525,1.070486,-0.100725,-3.431021,-0.155706,1.934198
399.000000,0.002000,1.308533,1.016341,0.011906,-1.017188,-0.334832,-0.056923,-3.595320,-2.504278,0.181271
400.000000,0.002000,-0.668411,-1.881652,0.526323,-0.692085,1.464302,-0.684103,1.165752,3.317367,-1.014722
401.000000,0.002000,-0.965144,-1.871536,1.379038,-0.636799,1.014418,-2.137031,1.095495,2.126685,-1.513168
402.000000,0.002000,0.745205,-1.140708,-1.249991,0.875674,0.105097,-0.225157,-1.979206,2.288610,2.865614
403.000000,0.002000,0.710832,-0.864249,1.088992,-1.702049,0.228816,-2.221757,-2.014978,2.010465,-2.996826
404.000000,0.002000,0.531389,0.520811,0.104793,-1.008628,-0.268828,-3.025281,-3.077474,-2.362801,-0.171100
405.000000,0.002000,0.052891,0.788551,-0.429175,-1.413493,-1.081375,0.389057,-0.486566,-3.026712,3.815019
406.000000,0.002000,-0.096836,0.651863,0.554042,-1.811862,-1.158861,-0.199462,0.632206,-3.042722,-2.543743
407.000000,0.002000,-1.098641,-0.604915,0.354414,1.163986,-0.972520,0.968927,4.015369,1.065487,-1.100518
408.000000,0.002000,-0.247218,1.734706,-0.425261,1.642563,-0.598434,-0.277625,0.649926,-3.951521,0.921664
409.000000,0.002000,-0.267017,0.791900,0.327659,-0.982784,0.079989,-0.095497,1.118955,-1.917225,0.192675
410.000000,0.002000,-0.043596,-0.687315,0.377111,1.033527,0.830487,0.686352,0.376697,1.198586,-0.578813
411.000000,0.002000,0.941687,0.348187,-0.779916,-1.135595,-1.392489,0.107430,-3.475164,-1.835256,2.371639
412.000000,0.002000,1.647545,-1.312307,-1.487305,-0.977574,1.411825,1.028259,-1.778344,1.439890,1.547258
413.000000,0.002000,1.028099,0.394033,-0.560667,0.481107,1.637620,0.017674,-4.098009,-2.522258,3.342105
414.000000,0.002000,-1.139021,2.107546,-0.014229,-0.338986,-2.265713,-1.314985,1.416444,-2.718517,0.031340
415.000000,0.002000,0.556625,0.340957,0.522717,0.070411,0.172569,0.778877,-3.812398,-1.612262,-2.151087
416.000000,0.002000,0.308805,0.535398,-0.447913,-2.368472,-2.089891,-0.638251,-1.279790,-1.948424,2.840764
417.000000,0.002000,-0.299132,-1.748602,-0.763810,-0.042284,0.101460,0.243307,0.673044,3.611083,1.526718
418.000000,0.002000,0.091410,1.023687,0.591236,-1.837983,-0.393755,-0.199862,-0.490268,-3.843021,-2.548729
419.000000,0.002000,-0.512906,-1.154738,-2.669210,-1.689484,1.138494,1.155452,0.402443,0.742754,1.875884
420.000000,0.002000,1.218179,-0.536952,-0.532606,0.477508,0.598897,-0.763312,-4.008463,1.626495,1.734315
421.000000,0.002000,0.147420,-1.199126,-0.316545,0.177078,2.244297,0.405096,-0.629718,2.888669,1.344677
422.000000,0.002000,1.962091,0.627685,0.405327,-0.827892,1.166523,0.436141,-5.030647,-3.013277,-0.487238
423.000000,0.002000,-1.606735,2.201084,-1.320308,-0.187269,-0.501911,1.073493,1.132215,-1.573204,0.985937
424.000000,0.002000,1.855858,-2.146676,1.378854,-0.721988,-0.252201,-0.307517,-1.145725,1.296873,-0.851097
425.000000,0.002000,1.676088,-0.954156,0.610677,0.426804,-1.205351,1.825664,-2.934291,1.939057,-1.128026
426.000000,0.002000,0.442188,-0.967999,-1.299683,-1.122958,-1.427868,1.656814,-1.504391,2.543940,3.186859
427.000000,0.002000,-1.339177,0.470869,-0.005033,-0.020183,-0.783944,0.800687,3.737674,-1.678612,0.091102
428.000000,0.002000,-0.522380,0.995384,0.542437,0.532307,0.122344,0.218601,1.656889,-3.258193,-2.357673
429.000000,0.002000,-0.858354,-1.095683,0.559630,-0.921075,1.218247,0.295400,2.283136,3.263553,-1.612606
430.000000,0.002000,-0.590645,0.108047,1.497991,-0.425237,0.057040,-0.998181,1.601715,-0.363979,-4.201566
431.000000,0.002000,0.489716,-0.749898,0.217269,-0.209895,1.284581,0.528876,-1.118722,3.587056,-0.692043
432.000000,0.002000,-0.829234,1.554136,-0.645612,1.328471,-0.711557,-0.764938,1.861750,-3.548598,1.811714
433.000000,0.002000,0.155171,0.270430,0.225338,-0.547355,-0.474102,0.617862,0.020741,-2.226448,-0.745561
434.000000,0.002000,-2.045128,-1.492929,-0.486927,-0.756506,-0.383644,-0.321649,2.146168,1.600083,0.480732
435.000000,0.002000,0.286504,-0.008984,-0.852418,-0.382070,1.291471,1.245207,-1.281140,-0.365510,4.180381
436.000000,0.002000,-1.351601,-0.495074,-0.421715,0.155650,-0.862784,0.534604,3.799369,1.589213,1.211706
437.000000,0.002000,0.369688,-0.451800,0.550160,-1.495521,-1.165852,-0.693538,-0.969332,1.709242,-2.961019
438.000000,0.002000,-0.560915,-0.210825,-0.378266,0.478238,0.519380,-0.216251,2.828032,1.335251,1.744856
439.000000,0.002000,-0.785171,0.701455,-0.852493,0.103122,0.674924,-0.243691,3.508633,-1.682288,3.154821
440.000000,0.002000,-0.420319,-0.010938,-1.189229,1.055873,0.632129,1.282989,1.137661,0.305194,4.037255
441.000000,0.002000,-0.485628,-0.605174,-0.298602,-1.497889,1.190481,0.965294,2.282402,2.885549,1.287951
442.000000,0.002000,-0.142332,-0.796252,-0.207420,-0.801632,0.224108,0.159361,0.644587,3.806576,0.868344
443.000000,0.002000,1.047590,-0.222189,1.149351,-2.741937,-1.944823,-0.112344,-2.554942,0.549187,-2.998541
444.000000,0.002000,0.421397,0.932885,-0.878502,0.697718,1.437850,-0.897827,-0.550510,-3.580867,3.044049
445.000000,0.002000,0.196344,0.152708,-0.649184,0.845766,0.147572,-0.195665,-0.967496,-0.622385,3.067437
446.000000,0.002000,-0.955345,-1.363123,1.365660,-1.254251,1.386418,-1.415026,1.488941,2.232155,-2.260702
447.000000,0.002000,-0.964583,1.438776,-0.526125,0.180153,0.761436,-0.526050,2.231612,-3.427551,1.281826
448.000000,0.002000,-1.022419,0.607729,-0.519347,-1.441738,-0.246067,1.230109,3.325842,-2.161270,2.223084
449.000000,0.002000,0.594946,-0.424454,0.471261,0.139442,-0.844768,-0.212593,-2.551791,1.655723,-2.354077
450.000000,0.002000,-1.004580,0.783067,0.369073,-0.186723,-0.615193,-1.254013,3.665907,-2.450356,-1.332761
451.000000,0.002000,-0.913095,2.681726,0.515218,0.102112,0.280797,-0.270925,0.723911,-2.133277,-0.429829
452.000000,0.002000,2.145334,1.634813,-0.170266,-1.552890,0.268634,0.200683,-2.039762,-1.623496,0.315840
453.000000,0.002000,-0.327957,-0.386944,-1.783474,0.885178,0.203649,0.664677,0.739736,0.724164,4.009482
454.000000,0.002000,-0.709970,0.175160,1.528391,-0.063578,-0.726963,-0.176573,1.810917,-0.222286,-3.927074
455.000000,0.002000,-0.817683,0.883470,-1.264592,-0.362194,-0.082673,0.020632,1.745722,-1.986154,2.824747
456.000000,0.002000,-0.696176,-0.379081,0.212446,-0.947109,0.863687,-1.641201,3.299437,1.315997,-0.713644
457.000000,0.002000,0.500075,0.956531,0.888938,0.362076,-0.207986,1.032109,-1.519711,-3.090217,-3.613119
458.000000,0.002000,0.142757,0.558676,1.640683,-1.030584,1.616035,0.328758,-0.474617,-1.413982,-3.884684
459.000000,0.002000,-0.461533,0.731822,-1.807502,0.524934,-0.493074,0.169590,0.523677,-1.110300,3.411236
460.000000,0.002000,0.574949,-0.319056,-0.018993,1.549203,1.711776,-0.218370,-2.170774,0.841405,-0.019735
461.000000,0.002000,0.992833,0.226043,1.068444,-0.629279,0.603986,1.657455,-2.743793,-0.418536,-3.401542
462.000000,0.002000,1.506899,0.473648,1.141650,0.176912,0.804373,-0.414264,-3.047987,-0.899455,-2.273566
463.000000,0.002000,-0.440886,-0.061091,-0.590316,-1.040812,-0.501342,-0.512398,2.157383,0.625720,3.468376
464.000000,0.002000,1.021928,0.386128,-0.513471,-0.367502,-0.334728,-0.016638,-3.528431,-1.618911,0.397916
465.000000,0.002000,0.020624,0.960629,-0.078967,-1.334279,-1.037866,-0.369257,0.856932,-4.423578,0.900925
466.000000,0.002000,-0.933961,0.201537,-2.042353,0.235896,0.674293,-0.476295,1.906533,-1.130399,3.121454
467.000000,0.002000,0.690680,-0.448677,-0.468620,-0.929179,-0.162060,0.105315,-2.966824,1.915116,2.084872
468.000000,0.002000,0.764234,-1.192904,1.823831,-1.163043,1.802075,-1.350416,-0.998786,1.659143,-2.484315
469.000000,0.002000,-0.552660,-0.503398,1.004374,-0.652611,0.275694,-0.336269,1.834854,1.225379,-2.980423
470.000000,0.002000,0.657726,2.410436,-0.152328,-0.545543,-0.536372,0.598969,-0.696357,-2.633594,0.154848
471.000000,0.002000,-0.021837,-1.429108,-0.382531,0.984561,0.713207,-0.432929,0.011060,4.138581,1.091083
472.000000,0.002000,-0.763075,-0.469922,-1.922168,-0.354342,-0.173622,-1.610778,1.152430,0.744928,3.321503
473.000000,0.002000,1.592209,-1.439794,-2.873263,-0.719611,-0.200918,-0.647854,-0.697195,0.621072,1.257131
474.000000,0.002000,-1.091026,-0.344686,-1.170206,1.115143,2.642452,-0.072173,2.977593,0.818752,2.791814
475.000000,0.002000,1.136241,-0.030505,-0.092542,0.189387,1.088707,-1.166858,-3.992289,0.236813,0.996605
476.000000,0.002000,0.606046,0.182772,0.930429,-0.155136,-1.088046,-0.755657,-2.556590,-0.465084,-4.310788
477.000000,0.002000,-1.087887,-0.638375,0.901380,0.371888,-0.835603,2.225279,2.944215,1.472637,-2.841708
478.000000,0.002000,-2.320249,-1.490465,0.489517,2.236777,-1.093764,-0.140152,1.918068,1.296704,-0.463786
479.000000,0.002000,-0.377440,1.012662,0.593249,1.102849,0.566996,-2.300368,0.606963,-5.331506,-2.679171
480.000000,0.002000,-1.161979,0.209894,1.304158,0.508722,-2.015694,0.867472,2.735364,-0.702705,-3.183064
481.000000,0.002000,0.195404,-0.783016,0.710976,0.449194,2.086174,-1.829014,-0.877291,2.998175,-2.910676
482.000000,0.002000,0.598280,0.482281,0.633812,-0.500301,-0.711002,-0.990876,-3.692431,-2.056375,-2.078901
483.000000,0.002000,-2.904707,0.914993,1.757441,0.964717,0.320230,-0.545957,1.336582,-0.421787,-0.793590
484.000000,0.002000,0.555079,0.411673,0.578818,1.063459,2.140351,-1.337405,-3.082409,-1.662257,-2.732678
485.000000,0.002000,0.324731,0.714162,0.150424,-0.238700,0.480799,1.473592,-2.297102,-3.155018,-0.802911
486.000000,0.002000,-0.849515,-0.915277,-1.217867,-0.722164,1.005074,-2.067125,2.056567,2.043508,2.451699
487.000000,0.002000,-1.338368,-1.032893,1.655319,0.424066,0.437242,-1.155156,1.722973,1.296248,-1.904751
488.000000,0.002000,0.760430,-0.701520,-0.240283,-0.072467,-0.616669,1.556932,-2.617952,3.248238,0.503598
489.000000,0.002000,0.005204,-0.469361,0.185987,-1.065912,2.001720,1.156606,0.345157,2.341299,-0.687548
490.000000,0.002000,0.784675,-0.087366,0.307761,-0.079058,-0.511002,-0.347759,-3.659587,0.464016,-1.279880
491.000000,0.002000,0.847560,-0.319114,0.207069,-0.565660,-0.384548,-0.855550,-3.562058,1.638563,-1.435354
492.000000,0.002000,-0.354859,0.002840,-0.204797,-0.379076,0.316318,1.234747,1.511876,0.021458,0.724113
493.000000,0.002000,-0.576878,0.200797,0.659197,-0.335529,0.220074,0.805617,2.696501,-1.106494,-2.893829
494.000000,0.002000,0.185854,0.352602,-0.749867,0.362807,-1.534578,0.068169,0.061851,-1.437845,3.460543
495.000000,0.002000,-1.183063,0.485168,0.731585,0.372787,0.606497,0.332043,3.320972,-1.502006,-2.219374
496.000000,0.002000,0.089623,1.323478,0.913065,0.363215,-0.416851,-0.058842,-0.740120,-3.162857,-1.993740
497.000000,0.002000,2.526541,-0.248998,-1.061012,-1.654026,-0.469071,-0.578485,-2.298338,0.337722,0.899703
498.000000,0.002000,-0.784964,-0.438943,0.341536,-0.263705,1.357966,-1.418761,4.088604,1.486155,-2.012690
499.000000,0.002000,-2.091834,1.154826,-0.298433,0.793104,-1.707934,-0.571359,2.651826,-1.404109,0.399632
500.000000,0.002000,-0.048518,-0.892727,0.008249,1.983896,2.078710,1.256787,-0.330514,4.533031,0.064521
501.000000,0.002000,-0.047339,-0.094389,0.483925,-0.602264,0.296002,1.314779,0.202426,0.597399,-2.800341
502.000000,0.002000,-0.588721,-0.832035,0.583871,0.111035,0.801686,0.243215,2.024127,3.422989,-2.360884
503.000000,0.002000,0.136004,0.114467,1.171920,0.341260,-0.861431,0.912106,-0.431700,-0.598993,-4.258827
504.000000,0.002000,-0.767867,-0.871279,1.194008,2.640267,-0.070201,-0.793583,1.593726,2.110867,-2.971498
505.000000,0.002000,-1.567264,-1.401741,0.734884,-0.726759,-0.822885,-0.891244,2.303063,1.979662,-1.163669
506.000000,0.002000,0.498363,0.070407,-0.106163,2.504201,-0.411568,-0.110208,-2.128315,-0.928981,0.275358
507.000000,0.002000,-0.035537,-0.043681,1.213090,-0.655680,0.478862,-1.649801,0.161108,-0.215109,-4.296981
508.000000,0.002000,-0.304410,0.101846,1.788350,0.970889,2.635299,-0.251923,0.677692,-0.090563,-3.843287
509.000000,0.002000,0.122852,2.323032,-0.027519,0.950210,0.752886,0.775309,-0.091522,-3.075061,-0.018595
510.000000,0.002000,1.175140,-1.848981,0.177923,-2.026134,-1.793516,0.225372,-1.812739,2.878516,-0.347121
511.000000,0.002000,-1.506939,0.978822,-1.149386,0.900786,1.263970,0.735738,2.419503,-1.650692,2.020656
512.000000,0.002000,0.324196,-0.394103,-1.017146,0.301635,-1.067928,1.604397,-1.931733,1.270198,3.596205
513.000000,0.002000,-1.546971,-0.357867,1.983910,0.817952,1.549231,2.324760,1.747314,0.346496,-2.208866
514.000000,0.002000,-0.392068,0.783534,-0.012672,-0.883464,-1.520924,0.451492,2.004846,-3.456521,-0.087449
515.000000,0.002000,0.748049,-1.656003,-0.577470,-1.361738,1.880145,-1.694126,-1.574602,3.503456,1.101246
516.000000,0.002000,0.955657,-0.333024,-0.155683,-0.173251,-1.628237,-0.697207,-5.418015,1.044428,0.732903
517.000000,0.002000,-0.397942,1.108954,0.360360,0.429817,-0.609187,0.565616,1.865530,-4.451458,-1.662237
518.000000,0.002000,0.090975,0.670213,0.548115,0.445093,0.099847,-0.511248,-0.249362,-4.020445,-2.310230
519.000000,0.002000,0.197824,1.608165,-0.176080,-0.149462,0.400006,-1.127250,-0.219080,-4.319330,0.634240
520.000000,0.002000,0.445081,-0.394250,0.162803,1.573432,2.629616,0.081707,-2.463471,2.267285,-1.446284
521.000000,0.002000,1.690125,-0.713853,-1.010014,0.897923,-0.650916,1.279576,-3.172318,1.771037,0.694224
522.000000,0.002000,0.756455,-0.049368,0.171548,-2.580303,0.997414,0.698671,-3.080236,0.195641,-1.256694
523.000000,0.002000,0.076198,0.047476,0.833202,1.172550,-0.316019,-0.366724,-0.512094,-0.018170,-4.252308
524.000000,0.002000,-0.814147,-1.053079,0.143245,0.386945,-0.241888,0.543717,2.799489,3.441723,-0.978713
525.000000,0.002000,-1.737571,-1.402606,1.802271,-1.237588,-0.239776,-0.722008,1.556763,1.102210,-1.492161
526.000000,0.002000,0.630025,0.071856,1.182116,-1.382422,0.825419,-0.735605,-2.123564,-0.011337,-3.472567
527.000000,0.002000,-1.092821,-0.473484,0.481806,-0.332420,-1.521196,-1.505235,3.857245,0.958205,-1.392641
528.000000,0.002000,0.967151,0.412631,-2.381986,0.720733,-1.026969,1.711261,-0.953781,-0.455668,2.434082
529.000000,0.002000,-1.000973,0.496626,-0.459948,-0.154118,0.094120,-0.920180,3.275891,-1.730894,1.932384
530.000000,0.002000,2.605481,0.923331,0.557698,0.540461,-0.070126,-0.026704,-2.228647,-0.727174,-0.421371
531.000000,0.002000,-1.043183,-0.041736,0.080930,0.920748,-0.017883,-1.661740,4.155031,1.169591,-0.732228
532.000000,0.002000,1.128925,0.965618,1.083173,-0.105053,0.736894,0.380679,-2.270546,-2.153932,-2.323304
533.000000,0.002000,-0.947559,1.445474,-1.424808,-0.176705,0.237798,-0.335947,1.218998,-1.879877,2.084188
534.000000,0.002000,-0.433018,0.537580,-0.017411,1.129866,0.938495,1.334509,2.247917,-2.456633,-0.026227
535.000000,0.002000,-1.145842,-0.807425,-1.479451,-1.295258,0.210915,0.838290,2.176422,1.754651,2.574291
536.000000,0.002000,0.500869,1.096355,-0.079772,-0.403818,-1.845491,0.235466,-1.577572,-4.070953,0.240330
537.000000,0.002000,-0.427172,-1.465989,0.949796,-0.243778,0.223943,0.298156,0.862648,3.050056,-1.147758
538.000000,0.002000,2.188349,-2.053070,-1.027107,-0.298530,-2.492828,0.394923,-1.318544,1.266320,0.599991
539.000000,0.002000,-0.736496,-0.605787,0.292683,-0.417177,-0.294214,0.597223,3.338740,2.691302,-0.982570
540.000000,0.002000,1.699723,1.035721,0.517103,0.706366,0.172209,-0.155609,-3.018685,-1.969319,-0.984872
541.000000,0.002000,-0.661818,-1.006552,-0.814465,0.741760,1.313540,-0.024742,2.335667,3.712868,3.835344
542.000000,0.002000,1.587864,0.046082,-0.459560,0.212794,1.035108,-0.075276,-4.068953,-0.289479,1.376758
543.000000,0.002000,-0.301697,0.749710,-1.299186,-1.127097,-0.852713,0.317788,1.213370,-2.111667,3.638637
544.000000,0.002000,1.631357,0.117588,-0.296247,1.946150,-0.396321,-0.749964,-4.338782,-0.080427,0.838190
545.000000,0.002000,0.549657,0.014259,-0.361810,0.909418,-2.107394,-0.090184,-2.573004,-0.223861,2.245419
546.000000,0.002000,-0.275348,-0.780636,0.616162,-0.141635,1.031520,-0.516035,1.344193,3.174067,-2.211213
547.000000,0.002000,-0.629829,-0.903188,0.068896,-0.865080,0.703909,-0.999024,2.259436,3.202228,-0.924728
548.000000,0.002000,1.365522,-0.084444,-0.586860,0.156510,-0.358876,0.294414,-4.204553,0.053846,1.689912
549.000000,0.002000,0.270453,1.883533,-1.528196,-1.352672,-0.645383,-0.666695,-0.276501,-2.245364,1.927833
550.000000,0.002000,0.370344,0.100829,1.157750,-0.209673,-1.080997,-0.212385,-2.035016,-0.319822,-3.506037
551.000000,0.002000,0.854141,-0.138685,-1.697915,-1.458047,0.488369,0.044792,-1.575287,0.006823,3.657911
552.000000,0.002000,0.786164,-0.800268,-0.938525,-0.318338,0.464437,0.216410,-2.346444,2.246792,2.693375
553.000000,0.002000,1.242920,-1.032596,1.304201,0.843850,-1.131005,-1.099243,-2.059065,1.770142,-2.180726
554.000000,0.002000,0.319258,0.400046,0.384232,-0.219398,0.737239,0.701943,-1.599950,-1.920775,-1.304976
555.000000,0.002000,-1.438371,-1.553007,0.181221,2.113036,2.356695,-0.352271,2.295333,2.669370,-0.182216
556.000000,0.002000,0.634433,0.066096,-0.879717,0.562672,-0.180300,-0.400479,-2.300643,-0.271301,3.806434
557.000000,0.002000,0.063428,-0.083799,-0.901352,0.418276,-0.071105,0.713467,-0.847794,-0.670729,3.266053
558.000000,0.002000,1.069998,-1.809429,0.356902,0.467673,-0.644582,-2.357110,-1.857368,2.930191,-0.612482
559.000000,0.002000,0.431527,0.857859,-0.919439,0.417943,-1.666179,1.016888,-1.055387,-2.568661,3.260705
560.000000,0.002000,0.190144,2.265039,0.536025,0.878946,0.781167,-1.299534,-0.195368,-3.126562,-0.678792
561.000000,0.002000,0.237068,0.657727,0.156303,1.252558,1.074597,0.673013,-1.902797,-2.853224,-0.646119
562.000000,0.002000,2.034440,0.933728,-0.213363,-1.704577,-0.568406,-1.262627,-2.904439,-1.377338,0.349755
563.000000,0.002000,0.441323,-0.317995,1.032342,1.797131,0.778660,-1.988647,-1.978731,1.169444,-3.884129
564.000000,0.002000,-1.353485,-1.677978,1.406677,0.597628,-0.637914,-0.595991,1.394362,1.876142,-1.519529
565.000000,0.002000,2.269055,0.436191,0.134377,1.000164,-0.351398,0.203062,-3.103504,-0.590545,-0.294173
566.000000,0.002000,0.538908,-0.582850,0.137371,-1.309118,0.802596,-0.430539,-2.411393,2.697612,-2.040931
567.000000,0.002000,-0.004854,0.507480,-1.448665,-0.442231,-1.256723,1.291111,-0.065648,-1.445176,4.003692
568.000000,0.002000,-0.647622,0.736517,-0.418677,-1.312960,-1.173350,2.680359,2.340648,-2.519511,2.302008
569.000000,0.002000,-0.960089,2.110300,0.070823,0.394902,0.537322,0.323111,1.219583,-2.912761,-0.106364
570.000000,0.002000,-0.590803,-1.611779,0.724738,-0.049697,0.972703,-0.117345,1.381667,3.395510,-1.428937
571.000000,0.002000,0.635127,-0.523413,-0.989893,-0.744961,-2.183542,1.306715,-2.150510,1.531380,3.507746
572.000000,0.002000,-0.037324,-0.896324,-0.965277,-0.148618,-0.441199,-0.056589,-0.582005,3.537287,3.095077
573.000000,0.002000,0.005875,-0.990338,0.239598,1.103158,0.817589,-0.104629,0.227607,4.310909,-1.092813
574.000000,0.002000,0.711478,-0.927466,-1.357734,0.950581,-0.773256,0.262061,-1.775401,2.082863,3.055346
575.000000,0.002000,1.662181,-0.982659,-0.793723,0.861496,-0.331100,-1.277504,-2.863732,1.805694,1.153718
576.000000,0.002000,0.236914,0.702791,-0.270107,0.171048,0.903478,-0.068384,-1.359173,-2.748214,1.261421
577.000000,0.002000,0.493880,-0.319883,-0.855084,0.231790,0.858891,1.339427,-2.114598,1.602194,2.805260
578.000000,0.002000,1.487079,2.612295,1.697210,0.572055,1.174904,-0.030295,-0.698568,-1.249412,-0.826585
579.000000,0.002000,0.129241,1.842141,0.351356,-0.137003,-0.122031,-0.078010,-0.239721,-4.172465,-0.682949
580.000000,0.002000,-0.697029,0.385877,-0.105934,-2.048501,-0.897400,-0.098226,2.836979,-1.726327,0.614698
581.000000,0.002000,-0.806044,-1.002118,0.744069,1.875098,-0.919392,-0.699430,2.000773,2.801913,-2.396693
582.000000,0.002000,-1.835131,0.726938,-1.578131,0.212257,1.188253,0.604730,1.978659,-0.811864,1.782556
583.000000,0.002000,-2.097720,-1.791025,2.007006,0.287028,0.523131,0.352529,1.051698,0.896847,-1.010923
584.000000,0.002000,-0.118071,0.244743,1.499544,0.791180,1.560055,0.589818,0.141863,-0.539841,-4.217007
585.000000,0.002000,0.899486,-1.481667,0.699838,-0.440258,-0.751293,-1.767590,-1.896561,3.155711,-1.507690
586.000000,0.002000,0.196340,-0.424612,-0.055711,0.058612,-0.707720,-0.801567,-1.409928,2.170140,-0.054631
587.000000,0.002000,1.261121,-0.813090,0.265575,-0.352358,0.853554,-1.392987,-3.398963,2.559555,-0.787928
588.000000,0.002000,-0.101129,-1.726945,-0.816372,-0.867657,0.902822,-0.081369,0.917628,3.872275,1.378690
589.000000,0.002000,0.069948,1.184014,0.898236,-1.264129,-1.300826,-1.158084,-0.688019,-3.650960,-2.542897
590.000000,0.002000,0.682514,-0.917583,1.783703,0.795811,-0.952666,-0.312107,-1.189866,1.447770,-2.716755
591.000000,0.002000,0.067025,-0.889886,-0.115229,-1.521263,1.370280,0.689416,-0.842344,4.121725,0.348690
592.000000,0.002000,1.017304,-0.092832,0.789741,1.041118,-0.984711,-1.123381,-3.393933,0.498843,-2.991362
593.000000,0.002000,0.981812,0.425227,-0.893366,-1.387897,0.167561,-0.216068,-3.319428,-1.879850,2.698967
594.000000,0.002000,0.284325,-0.089590,1.804994,1.466482,-1.330954,-0.737207,-0.647966,0.371490,-3.756365
595.000000,0.002000,-1.736027,-0.080017,-0.588138,-0.912932,0.556275,0.015645,3.561333,0.195230,1.148878
596.000000,0.002000,0.079323,-2.340589,1.028376,-2.566949,1.094546,-0.922303,-0.107247,2.585963,-1.162748
597.000000,0.002000,0.049323,-1.724195,-0.277621,0.348854,1.409702,0.864153,-0.142827,4.177249,0.549002
598.000000,0.002000,0.628740,-1.651919,-0.098435,0.112414,-0.404391,-1.000020,-1.655312,3.829225,0.155419
599.000000,0.002000,-0.941584,-0.642086,0.049536,1.370273,-0.753060,0.218188,3.768360,2.677932,-0.208359
600.000000,0.002000,0.352035,-0.350584,0.241750,1.628073,1.280962,-0.412881,-1.389749,1.687597,-2.020313
601.000000,0.002000,0.867800,-0.245529,1.321820,0.402614,0.365310,-1.273695,-2.000373,0.603304,-3.631463
602.000000,0.002000,1.370154,-0.354773,-0.742379,-1.085907,0.795257,-0.961197,-3.660376,0.973107,2.004836
603.000000,0.002000,-1.419497,-0.094163,-0.347516,2.646251,0.338740,0.205018,4.187826,0.240031,0.968944
604.000000,0.002000,0.691255,-1.399624,-0.304845,-0.964806,1.281618,-0.251412,-1.842322,3.644341,0.596112
605.000000,0.002000,0.972323,-0.726300,-0.653284,-0.126943,0.174827,1.199094,-3.330909,2.713387,2.007026
606.000000,0.002000,-1.354480,2.508946,-0.674902,0.975597,-1.209438,0.752604,1.042506,-1.921358,0.541701
607.000000,0.002000,-1.234835,-0.817895,-0.880629,0.805013,-0.024774,-0.968349,2.772981,2.786175,1.943907
608.000000,0.002000,-0.415978,0.754412,-0.217292,-1.388742,-0.889211,0.867550,1.506862,-3.595779,1.396633
609.000000,0.002000,-0.859097,-1.205394,0.082275,0.758087,2.642812,0.577957,2.261038,3.850495,-0.387632
610.000000,0.002000,0.061310,1.426367,-0.010673,0.192679,-1.258540,-1.015881,0.103076,-4.260306,0.881182
611.000000,0.002000,-0.092751,-0.964955,-0.197200,0.072853,1.054612,1.137151,0.134508,3.905780,0.496082
612.000000,0.002000,-0.300412,-0.400638,-1.022683,1.480095,-0.284964,-0.435715,1.394013,1.009479,3.275533
613.000000,0.002000,0.543377,-0.058458,-0.134372,-0.034189,0.797970,0.721861,-0.959765,-0.031319,2.109929
614.000000,0.002000,-1.750509,0.462448,0.376749,-0.187305,-0.367043,-1.153788,3.626344,-1.073600,-1.118299
615.000000,0.002000,-0.965929,1.152045,-1.324112,-1.188351,1.515952,0.528487,1.564251,-2.022693,2.353584
616.000000,0.002000,0.082800,-0.229297,-1.116745,1.074912,0.437927,2.201768,0.262021,-0.506363,2.642067
617.000000,0.002000,0.198256,1.614783,-0.001748,0.060484,-1.089471,-0.699250,-0.497059,-4.305573,0.113915
618.000000,0.002000,-0.485908,0.415243,0.273356,-0.078845,-0.453946,1.637464,3.591955,-1.487358,-0.138231
619.000000,0.002000,0.119927,-0.407344,1.509455,0.911368,0.238448,0.665526,-0.627175,1.482750,-4.275616
620.000000,0.002000,0.414280,-0.596943,-0.067929,-0.486385,-0.548704,0.427682,-1.742598,2.789167,0.588846
621.000000,0.002000,-0.601778,-0.457965,-0.538502,1.520755,1.619087,1.143435,2.439642,2.294762,2.114302
622.000000,0.002000,-1.216880,0.900519,-0.316689,-0.644446,1.110135,-0.220828,3.397481,-2.618030,1.068815
623.000000,0.002000,0.658926,-0.466900,-0.231527,0.919716,2.163366,-1.673604,-3.174516,3.786730,3.206604
624.000000,0.002000,-0.712197,0.763647,-0.227196,0.122933,0.332059,0.317564,3.071774,-1.513721,5.202224
625.000000,0.002000,-0.876967,-1.703223,0.160308,-1.375921,-0.447389,-1.173213,1.675327,3.326723,-0.278492
626.000000,0.002000,-0.748993,-0.055095,-0.584150,-0.227547,-0.388271,-0.773252,3.425868,0.237766,3.060777
627.000000,0.002000,0.893242,0.371257,0.578554,-0.757280,-1.877777,1.207309,-1.623443,-0.868979,-3.681404
628.000000,0.002000,-0.478372,0.209461,1.592594,1.435355,-2.582490,-1.425910,1.010461,-0.168390,-4.152442
629.000000,0.002000,-0.790160,-0.086829,-1.628407,0.489821,-2.597013,0.386959,1.629137,0.114869,3.641333
630.000000,0.002000,1.357147,-0.460856,0.881497,-0.585933,-0.554213,0.888347,-3.353550,1.408188,-2.214535
631.000000,0.002000,-1.829952,1.923654,-0.381373,-0.974732,1.165338,-0.226945,1.792990,-1.863331,0.342710
632.000000,0.002000,0.547338,0.105182,-0.128790,-0.108487,-0.522065,1.312785,-2.823311,-1.458912,0.842246
633.000000,0.002000,1.771694,-1.798324,0.341814,0.764063,-1.400218,0.420877,-1.910051,1.969918,-0.382494
634.000000,0.002000,0.921009,-0.038093,0.055272,-0.123337,-0.084002,1.733461,-4.660400,0.097159,-0.242463
635.000000,0.002000,0.035366,-1.014931,0.062379,1.770566,2.350491,0.227416,-0.103668,4.739705,-0.343319
636.000000,0.002000,0.402249,-0.080698,-0.206840,-1.186135,-1.505657,0.726179,-1.474175,0.112850,1.451493
637.000000,0.002000,-0.593192,-0.158118,1.241733,-0.956327,1.233561,-0.342571,1.749422,0.409907,-3.739500
638.000000,0.002000,-2.025347,-0.075899,-0.392978,0.793167,-1.157830,-0.616225,3.623069,0.118265,0.722073
639.000000,0.002000,1.410321,0.086926,1.548438,-0.561386,0.310765,0.503027,-2.037069,-0.087902,-2.650024
640.000000,0.002000,-2.287263,0.321646,0.137252,-1.475164,-1.407016,-1.445434,3.163441,-0.546175,-0.306203
641.000000,0.002000,1.390326,-1.610889,0.040757,-0.109671,0.429476,1.955860,-2.140331,2.515974,-0.167219
642.000000,0.002000,0.011199,-0.429462,1.261944,-0.546368,0.771513,0.255206,-0.047477,1.916470,-4.518637
643.000000,0.002000,-0.240802,2.129290,1.167188,0.999771,0.811386,1.059438,0.372377,-2.627057,-1.403984
644.000000,0.002000,1.010575,0.495840,-1.221549,0.457184,-0.712847,-1.420412,-2.777241,-1.414825,3.147315
645.000000,0.002000,-0.360186,0.426383,0.615557,0.800818,-1.578403,-0.739673,2.021671,-2.617841,-2.159856
646.000000,0.002000,1.434910,-0.517777,-0.893761,1.104650,-0.438665,-0.224875,-3.316171,1.338051,1.979395
647.000000,0.002000,1.000163,-0.842720,0.687132,1.280206,-0.207279,-1.974505,-2.654098,2.660984,-2.118072
648.000000,0.002000,1.294764,0.364985,-0.269638,0.704238,-1.011368,0.932916,-4.645811,-1.725405,0.901655
649.000000,0.002000,-0.019252,0.686452,-0.013284,-0.601911,0.765019,-0.209627,1.247955,-2.986989,1.800918
650.000000,0.002000,2.424718,-0.969971,-0.937385,2.154215,0.256039,0.697247,-2.183764,0.890080,0.779136
651.000000,0.002000,-0.953472,-0.459264,-2.167166,0.292981,1.329938,0.253571,1.157454,0.520323,2.738309
652.000000,0.002000,-0.503246,-0.688260,0.045035,1.399272,-0.203230,-0.336866,2.457800,3.003469,-0.071996
653.000000,0.002000,0.547250,-1.108722,0.955066,1.235257,1.466187,0.410013,-0.928470,2.856876,-3.068823
654.000000,0.002000,1.769667,-0.237007,1.626761,-0.433574,-0.270830,0.409168,-2.195913,0.389838,-2.284916
655.000000,0.002000,0.093498,2.056360,1.080420,-1.072825,0.541849,-0.445364,-0.633123,-2.561070,-1.580817
656.000000,0.002000,-1.521489,0.060167,1.245555,0.575542,0.404660,1.796896,2.988763,-0.130032,-2.281066
657.000000,0.002000,0.180955,-0.011641,1.241232,1.488588,0.200643,-0.556416,-0.272369,0.096658,-4.632966
658.000000,0.002000,-0.689842,-0.017677,0.313107,0.368209,-0.352005,-0.186051,3.553952,0.100608,-1.689919
659.000000,0.002000,-0.353582,0.124333,0.933072,-0.125703,1.447267,1.390939,1.036469,-1.145663,-4.760606
660.000000,0.002000,0.495652,-0.648851,-1.208797,0.553308,1.696136,-0.891460,-1.047188,1.003123,2.638930
661.000000,0.002000,-0.681190,-0.036336,-0.356670,1.253865,-0.337078,-1.908739,2.942057,1.251218,2.066629
662.000000,0.002000,-0.812304,-0.621661,-1.483956,0.300227,-0.174194,0.521000,2.032827,0.924543,3.668335
663.000000,0.002000,0.425665,0.064088,-1.300177,0.015279,1.004623,-0.226196,-1.050185,-0.492729,3.899056
664.000000,0.002000,0.075176,1.314705,-0.890351,0.463505,-0.464720,-1.377106,-0.172729,-3.805639,2.631972
665.000000,0.002000,1.222986,-0.411503,0.169405,-1.120983,-0.814603,-0.312088,-4.060803,1.407913,-0.527769
666.000000,0.002000,0.121050,1.312042,0.180059,0.215834,-1.105361,0.185478,-0.057557,-4.068340,-0.856906
667.000000,0.002000,-1.152465,-1.357534,-1.480619,-0.025080,-0.371288,0.625785,1.619174,1.916613,2.051479
668.000000,0.002000,-1.531548,-0.076123,-0.876808,1.976830,-1.228483,0.914662,3.384263,-0.027343,2.272166
669.000000,0.002000,-0.312450,-0.762238,-0.692432,-2.243692,-0.461645,0.914396,1.965990,2.867412,2.683984
670.000000,0.002000,-0.381243,0.716544,0.984543,1.068384,0.022651,0.398257,1.120683,-2.160693,-2.857461
671.000000,0.002000,0.378381,-0.948313,0.720878,0.005581,0.588317,0.644279,-1.323378,3.372901,-2.688988
672.000000,0.002000,0.758383,0.306632,-0.672762,0.584170,0.271880,-0.523698,-1.537764,-1.024524,3.191581
673.000000,0.002000,0.581573,0.486261,-2.942000,-1.290553,0.616840,1.847458,-0.350098,-0.378680,2.020115
674.000000,0.002000,0.564849,-1.923980,0.783227,-0.859261,0.094425,1.140932,-0.532274,4.654750,-3.228621
675.000000,0.002000,-0.224560,1.190911,-0.145411,-0.676366,-0.250893,-0.439555,0.133769,-4.382089,0.583782
676.000000,0.002000,-0.891283,-0.191708,1.048025,0.076656,-0.440008,-0.289340,2.012532,-1.689906,-3.830451
677.000000,0.002000,0.149050,-0.044362,0.699197,1.212604,0.712591,-0.611399,-0.779908,0.110043,-3.335841
678.000000,0.002000,0.044149,-0.083036,1.302761,-1.691843,-0.775904,-0.871293,-0.349486,-0.144468,-4.773538
679.000000,0.002000,1.641975,0.672099,-0.235519,0.691596,0.506232,0.532167,-3.525789,-1.605312,0.345303
680.000000,0.002000,1.453089,1.217044,0.674787,-0.565402,0.222633,-0.505566,-2.516962,-2.320834,-1.270799
681.000000,0.002000,-1.168889,0.065155,-0.768868,0.651762,-0.780264,-0.120525,3.697702,-0.513573,2.763675
682.000000,0.002000,-0.158659,0.286760,0.160259,0.073387,0.404080,0.558924,1.111186,-1.162871,-1.106827
683.000000,0.002000,-0.416894,1.146829,-1.568618,0.624247,-1.369015,1.402201,0.824235,-2.216779,2.657673
684.000000,0.002000,0.647779,-1.883631,0.293398,-0.891478,-0.092555,-0.923653,-1.305985,3.230751,-0.513339
685.000000,0.002000,-0.896366,0.818499,0.070278,0.088802,-0.731775,-0.188985,3.657610,-2.620586,-0.244585
686.000000,0.002000,0.224091,-1.171518,-0.670676,-0.294255,-1.337859,-0.065906,-1.042940,3.723681,1.987095
687.000000,0.002000,0.157713,0.560892,3.013657,-0.505766,-0.243930,0.741879,-0.210234,-0.294078,-2.038735
688.000000,0.002000,0.204723,1.137250,-1.546080,-0.173591,1.497804,0.271425,0.209029,-2.972170,2.879219
689.000000,0.002000,-1.447840,-0.349607,-1.030046,-1.037676,0.096976,1.791559,2.874263,0.881743,2.437296
690.000000,0.002000,1.589732,-0.312044,1.455170,0.916304,1.017012,0.610736,-2.224618,0.678133,-2.299320
691.000000,0.002000,1.433495,-0.128151,0.578156,-0.734995,-1.710815,0.700291,-3.991757,0.270406,-1.118299
692.000000,0.002000,0.000805,0.543690,0.514293,0.555664,-0.114604,0.241872,-0.119805,-2.649391,-0.324554
693.000000,0.002000,-0.169385,0.583806,1.743704,-0.448350,0.720954,0.012452,0.325665,-0.840077,-3.348968
694.000000,0.002000,0.647326,0.368250,-0.033911,-0.806357,0.331452,-1.578895,-3.211481,-1.655739,0.160266
695.000000,0.002000,-0.914201,-0.893721,0.200050,1.140336,1.458520,-1.249944,2.662046,2.874930,-0.137258
696.000000,0.002000,-1.364678,-0.869293,1.458267,0.154830,-0.960381,1.657104,2.039311,1.375317,-2.184628
697.000000,0.002000,1.909704,-1.761678,1.719952,-0.107968,-0.900186,0.876438,-1.209921,1.120328,-1.111643
698.000000,0.002000,-0.178875,-0.074754,0.054481,0.363570,-0.589884,1.668805,0.832203,0.542950,-0.411205
699.000000,0.002000,1.291272,-1.469052,0.338391,1.990074,1.528464,-1.208388,-2.460390,2.780502,-0.563916
700.000000,0.002000,-1.066559,0.581666,1.685273,-1.122293,0.063964,1.270209,1.966222,-0.917380,-2.895957
701.000000,0.002000,-0.223457,0.409625,0.637989,-2.208177,0.297874,2.155362,0.118468,-2.358114,-2.564797
702.000000,0.002000,-0.953856,1.474757,1.766519,-1.490918,-0.454832,0.499608,1.053203,-1.361905,-1.995713
703.000000,0.002000,0.474092,0.224670,-0.447747,-2.400921,1.486510,0.243649,-2.194463,1.235029,0.868472
704.000000,0.002000,-0.685156,1.714792,1.449867,-0.533598,-0.075854,0.260839,1.077533,-2.294023,-1.871720
705.000000,0.002000,-0.353183,-1.596377,-2.697172,-2.887572,-0.114850,1.432709,0.202622,1.024558,1.699685
706.000000,0.002000,-0.974870,-0.116846,1.321454,1.215967,0.154541,-0.967676,3.069692,0.443205,-3.619923
707.000000,0.002000,-0.624539,0.372806,1.197552,0.365897,-1.380528,-1.236356,1.898608,-1.112691,-3.824758
708.000000,0.002000,0.127393,-0.049559,-1.251606,-0.050249,0.874096,0.792520,-0.133888,-1.608312,4.051825
709.000000,0.002000,-1.492142,0.442689,-0.417189,-2.706653,0.187302,-2.125636,2.947370,-0.848887,1.595480
710.000000,0.002000,0.274660,-0.043231,0.525960,1.433878,0.028912,-1.533084,-1.737787,0.264935,-2.526167
711.000000,0.002000,-0.831720,-0.421048,2.014915,-0.409593,-0.824433,1.034525,1.189429,0.608536,-3.030009
712.000000,0.002000,-0.767980,-0.349528,-0.671207,0.479765,-0.632964,-0.641550,3.300770,1.586309,3.058465
713.000000,0.002000,0.401984,0.808040,-0.346031,-0.522029,-2.323815,1.634327,-2.566657,-2.129968,3.958221
714.000000,0.002000,-0.238986,-0.343253,0.518407,1.970887,-0.585544,-0.237452,0.970413,1.538058,-2.663141
715.000000,0.002000,-0.594606,-0.461935,-2.444245,1.480589,-0.840491,-0.590342,0.573911,0.432941,2.568671
716.000000,0.002000,-1.387126,-0.032945,0.921856,0.117542,0.824786,0.122802,3.559216,0.577500,-2.286830
717.000000,0.002000,0.208750,-1.004796,-1.355096,-0.881569,1.069822,0.608103,-0.233453,2.603659,3.213373
718.000000,0.002000,0.190466,-1.571934,1.214746,0.139065,0.956569,1.382951,-0.513777,2.990312,-2.053479
719.000000,0.002000,0.095203,-1.625294,-1.069715,0.299988,-0.025521,-0.919971,-0.180625,3.117806,2.260044
720.000000,0.002000,-0.635049,-0.767551,-1.479314,0.917519,0.097268,0.327271,0.399551,2.450688,3.965558
721.000000,0.002000,-0.764095,-0.766594,-0.681396,1.245970,-0.706393,0.416490,2.841547,2.343026,2.177840
722.000000,0.002000,1.002536,0.228113,-0.914679,-1.429088,1.204862,0.918002,-3.768586,-0.504006,3.084085
723.000000,0.002000,-0.350018,-1.019040,-0.301463,-0.130004,-1.186692,0.041122,1.335272,4.465454,0.300478
724.000000,0.002000,0.808200,0.283006,2.158180,-0.726119,0.294052,-1.407012,-1.164564,-0.326946,-2.854566
725.000000,0.002000,0.410412,-0.822463,0.735562,0.269992,1.070149,-0.906542,-1.395401,3.105290,-3.339952
726.000000,0.002000,1.035203,1.225658,-1.249765,-0.549336,1.205997,-1.444152,-1.899813,-2.218041,2.153072
727.000000,0.002000,-0.165063,1.157585,-1.628335,-0.174985,0.158105,0.717002,0.327277,-1.995898,3.094542
728.000000,0.002000,-0.622462,-1.315019,-0.877854,-1.159796,1.275422,0.650998,1.526723,3.181132,2.126772
729.000000,0.002000,-1.022406,1.228514,-0.251749,0.031528,-0.373710,-0.145930,2.684343,-3.146873,0.399617
730.000000,0.002000,-0.925215,-0.928358,0.254032,-0.506427,1.244406,1.088124,2.270724,2.567202,-0.855585
731.000000,0.002000,-0.102292,1.250255,0.421611,-0.882632,-1.160956,-0.858447,0.961834,-4.767341,-1.640019
732.000000,0.002000,-1.496954,-0.547706,0.986877,-0.522613,0.886043,-0.929261,2.653301,1.353679,-1.884616
733.000000,0.002000,-0.561326,1.643429,-1.039012,0.644781,-1.042137,0.693657,0.912095,-2.714218,2.043429
734.000000,0.002000,0.469777,-0.814086,-0.613978,-1.116186,0.628945,-0.987744,-1.696107,2.647173,1.500684
735.000000,0.002000,1.124344,-0.199041,0.854714,0.109859,-0.683752,0.280355,-3.014587,0.823957,-2.555385
736.000000,0.002000,0.259934,0.757842,-0.751761,-2.185019,-0.088420,1.522004,-0.343235,-2.533975,3.910023
737.000000,0.002000,-0.274381,0.204174,-0.869725,-0.475520,-2.291245,-0.012169,0.405572,-2.155262,4.685675
738.000000,0.002000,1.673795,-0.640086,-0.440164,0.237237,1.415119,-1.381633,-3.367938,1.498401,0.455336
739.000000,0.002000,-1.010701,-2.010376,1.665875,-0.001236,1.414752,-1.383651,0.855168,1.772106,-1.525202
740.000000,0.002000,-0.262051,-0.376162,-0.389133,-0.485686,0.826946,-1.736474,1.948896,0.497846,2.946045
741.000000,0.002000,1.497249,-0.966386,0.504029,0.613490,0.091748,-1.830491,-3.697373,2.339470,-2.019146
742.000000,0.002000,-0.383825,-0.649979,0.590722,0.465687,-0.390524,0.102441,1.211692,2.885828,-2.718599
743.000000,0.002000,1.134975,-0.321785,-0.741789,1.293309,1.970733,0.399067,-3.253251,0.215362,2.789455
744.000000,0.002000,-1.152211,1.017010,-0.780405,0.294884,-0.954524,-1.962431,2.560695,-2.148705,2.031114
745.000000,0.002000,-1.822000,1.344569,-1.478059,0.357237,-0.719624,-1.012679,1.706232,-1.292483,1.410932
746.000000,0.002000,0.742839,0.202659,0.260954,-0.545326,0.146708,-0.320999,-3.716173,-0.654285,-0.933836
747.000000,0.002000,-0.475075,0.362753,-1.735719,1.147598,-0.059935,-0.494691,0.974920,-0.731286,3.673071
748.000000,0.002000,0.507897,1.416493,0.925686,-0.866891,-1.559896,0.313993,-1.239561,-2.992302,-2.267475
749.000000,0.002000,-1.885176,-1.071909,-0.155035,1.489365,-0.795927,0.344853,2.963483,1.696530,0.374210
750.000000,0.002000,0.368180,-0.105130,-0.555776,-1.250683,0.043084,-0.501872,-1.595168,0.470205,2.741780
751.000000,0.002000,0.562459,1.245084,-0.159830,-0.437808,0.611156,0.755554,-2.050655,-4.092514,0.555149
752.000000,0.002000,0.843985,-2.636346,-1.007210,1.117970,-0.469931,-0.660499,-0.659599,2.002406,0.724749
753.000000,0.002000,-0.355658,-0.356025,0.338921,-0.302461,1.415512,-0.025229,0.538401,1.799645,-1.260163
754.000000,0.002000,0.808373,0.481292,-0.607797,-2.192215,-0.368801,0.268811,-2.700645,-2.436369,2.468250
755.000000,0.002000,-1.636104,0.642566,-1.747259,-1.041718,0.819785,1.015589,1.839649,-0.745045,2.084954
756.000000,0.002000,0.580724,-0.383263,-1.193728,-0.826456,-1.915861,0.012408,-2.072837,0.788146,3.814367
757.000000,0.002000,0.216949,0.138357,0.008434,-0.788917,1.332699,0.468211,-1.225983,-1.327434,-1.027641
758.000000,0.002000,-0.101927,0.395990,0.867263,-0.141118,-0.275586,-0.773306,0.265950,-1.187406,-3.751536
759.000000,0.002000,0.588250,0.936308,0.036941,0.781545,-0.918126,0.804232,-2.700581,-3.109081,0.007639
760.000000,0.002000,1.620136,0.616958,-0.543707,-0.160011,0.387079,0.070036,-3.435419,-1.381245,1.402307
761.000000,0.002000,-1.014422,0.148023,-1.392010,0.911629,-0.608880,-0.697454,2.242247,-0.606417,3.293500
762.000000,0.002000,-0.915097,0.145338,-0.528862,0.765183,-0.985695,0.891468,3.235375,-0.429191,2.192112
763.000000,0.002000,-1.082683,0.048502,0.111051,-1.326967,0.843063,0.357338,4.241142,-0.566660,0.865661
764.000000,0.002000,-0.147174,-0.458702,0.800489,0.622819,-0.730531,-0.708126,0.745188,2.126861,-3.122388
765.000000,0.002000,0.263896,-0.247710,2.449452,-0.805776,-0.227013,-0.287854,-0.388973,0.327483,-2.795329
766.000000,0.002000,0.207422,0.979538,-0.604663,0.143506,-1.661897,-0.293507,-0.633752,-2.845360,2.592318
767.000000,0.002000,-1.344098,-0.807829,-0.231135,0.375299,-0.046606,0.408295,3.784128,2.305688,0.671728
768.000000,0.002000,-0.387198,1.338588,-0.231192,1.182645,-0.195444,-1.061748,1.215252,-4.274481,1.027129
769.000000,0.002000,0.486542,0.032744,-0.328063,0.179408,0.808156,1.140327,-1.985165,0.634362,1.247621
770.000000,0.002000,0.187715,1.837482,-0.834572,1.483662,1.068688,-0.588343,-0.305662,-3.147522,1.474199
771.000000,0.002000,0.894308,-1.030433,-0.558338,1.152496,0.127146,-0.910984,-2.385931,3.369851,1.770944
772.000000,0.002000,0.029172,0.330950,1.485920,0.249625,0.007251,-0.175409,-0.172511,-0.827936,-4.101769
773.000000,0.002000,0.063965,-0.889881,0.559198,1.110969,-0.274974,-1.055706,-0.840683,3.628875,-2.849275
774.000000,0.002000,-0.329694,0.310173,-0.009641,0.385577,0.632326,1.041515,1.092279,-1.402156,-0.332354
775.000000,0.002000,-1.809848,0.598415,0.495014,1.500944,0.838597,-0.940785,3.402469,-1.380968,-1.132449
776.000000,0.002000,0.969989,1.611065,-1.259530,0.368443,-2.007831,-0.552126,-1.407283,-2.289400,1.890405
777.000000,0.002000,0.341388,0.411203,-0.363620,-1.832974,-0.085877,0.656166,-1.467574,-2.053485,2.193047
778.000000,0.002000,0.388228,0.558183,-1.133661,-0.171905,0.503443,1.045422,-1.388200,-1.530359,3.714404
779.000000,0.002000,0.277968,-0.875203,-0.588251,0.270210,0.628006,0.699133,-1.958943,3.594466,1.990028
780.000000,0.002000,-1.692506,-0.358546,-0.116457,1.006275,1.200320,0.888973,3.960905,1.034169,0.250410
781.000000,0.002000,0.665870,0.098988,-1.504077,1.086713,0.966702,0.583441,-1.483276,-0.311659,4.015406
782.000000,0.002000,0.855025,-0.196912,0.665649,-0.238091,-0.750561,1.630778,-3.414093,1.447714,-3.815822
783.000000,0.002000,0.900494,1.369974,2.001660,-0.700762,-0.598907,0.302552,-0.932338,-1.452922,-2.063610
784.000000,0.002000,-0.082077,0.388011,-0.963873,-0.097475,0.673464,1.343874,0.302702,-2.523669,4.037790
785.000000,0.002000,1.034345,-0.921685,-1.701405,-0.352446,2.703723,1.171856,-1.724393,1.409273,2.770464
786.000000,0.002000,0.692596,-0.466544,0.887416,-1.512591,0.643677,0.932566,-2.640469,1.928979,-3.474574
787.000000,0.002000,0.466835,-1.666944,-2.742174,0.573698,-0.320243,-0.143123,-0.279518,0.976302,1.616747
788.000000,0.002000,-1.076408,0.149893,-1.072750,0.339464,1.311810,1.652412,2.605378,-0.704128,3.086763
789.000000,0.002000,-0.562827,-1.307197,0.160107,0.993691,1.721823,-0.118242,2.115494,3.998345,-0.701059
790.000000,0.002000,0.018203,-0.388577,1.220184,-0.749242,0.972937,-1.974891,-0.118649,1.242650,-4.008388
791.000000,0.002000,1.465018,0.438377,-1.738545,-0.426125,-1.300335,0.727911,-2.027696,-0.610102,2.357614
792.000000,0.002000,-1.258514,0.290479,-0.613001,-1.365577,-1.218125,0.255560,3.652142,-0.925688,2.016032
793.000000,0.002000,-0.527576,1.056080,0.508135,-0.334779,1.375057,-0.108593,1.602420,-4.133411,-1.715129
794.000000,0.002000,1.135753,-0.320828,1.402749,-1.905034,1.132233,0.123438,-1.855244,1.219294,-3.934862
795.000000,0.002000,-0.641326,1.447388,0.101561,-0.799180,-0.736022,-0.065956,1.535877,-3.929812,-0.615191
796.000000,0.002000,-1.084542,-1.744581,-0.286915,-2.146113,-0.975977,0.172941,1.849436,3.019599,0.528045
797.000000,0.002000,-0.418690,0.754410,-0.124705,-1.536560,-1.207258,-0.095113,1.748228,-3.342334,0.617009
798.000000,0.002000,-0.690544,1.042955,-0.034169,-2.476585,-0.552465,1.922613,2.402025,-3.746839,-0.266785
799.000000,0.002000,-0.523585,0.463443,-0.402671,0.625744,-1.222621,1.005982,1.878870,-1.804718,2.873308
800.000000,0.002000,0.579582,-0.645994,-0.245961,-0.932479,-0.312151,-0.137580,-3.187202,3.891760,1.179834
801.000000,0.002000,-0.027696,-0.346082,0.041552,-1.817933,0.416127,0.528015,2.648996,3.889160,-0.192193
802.000000,0.002000,0.957094,0.404050,0.582479,1.207807,-0.134456,0.923480,-3.989742,-1.975240,-1.367346
803.000000,0.002000,-0.527235,0.799235,0.521014,1.191991,-0.697085,-1.579062,1.946068,-2.926783,-1.864987
804.000000,0.002000,0.863668,-0.577855,-0.344727,-1.607167,1.614256,-1.682856,-3.669122,1.870077,1.318712
805.000000,0.002000,0.585200,-0.614578,-0.196736,-0.566242,0.082419,0.284966,-2.562381,2.856364,0.044612
806.000000,0.002000,1.767493,1.939275,1.130441,-1.654154,-0.201923,-1.139645,-1.435093,-1.597760,-0.914523
807.000000,0.002000,1.017367,-1.056273,0.568794,0.656222,-0.225645,0.478807,-2.687949,2.866965,-1.604704
808.000000,0.002000,-0.218337,-1.038556,-0.593577,1.477723,0.391804,-0.745373,0.910877,3.404301,1.650591
809.000000,0.002000,0.198071,-0.408273,-0.622623,0.774361,1.490557,-0.583191,-1.727548,1.954291,2.546240
810.000000,0.002000,0.700716,0.057935,0.256671,-1.080729,-0.862041,0.171560,-3.190062,0.169741,-1.359893
811.000000,0.002000,-0.028349,-0.909361,-1.375056,-1.386089,-2.218730,0.136275,0.156872,2.543773,3.303471
812.000000,0.002000,0.290291,-0.497271,-1.908132,-0.238458,0.129924,1.204435,-0.642752,0.542760,3.516642
813.000000,0.002000,-0.418120,-1.079244,0.775503,-0.180115,0.297726,0.653477,1.435361,3.298797,-2.404373
814.000000,0.002000,0.305483,0.679528,-0.699434,-2.224532,1.713841,-0.206788,-1.099816,-2.238974,2.762831
815.000000,0.002000,0.810881,0.297054,-0.506322,0.630176,-0.289801,-0.872531,-3.052438,-1.347111,2.006482
816.000000,0.002000,-0.547563,0.777923,-0.545675,-0.868050,-1.292616,-0.614110,1.840751,-2.708733,2.383247
817.000000,0.002000,0.434008,0.995964,1.858856,1.272751,-0.459928,-0.647973,-0.706266,-1.612278,-2.885310
818.000000,0.002000,1.536231,0.898527,-1.490534,-1.387235,-0.079448,0.251459,-2.262629,-1.102048,2.016342
819.000000,0.002000,-0.625667,-0.685848,1.572278,0.708798,-1.316769,-0.985671,1.710190,1.206860,-3.683010
820.000000,0.002000,-0.626418,0.303239,0.145406,0.904302,-0.914788,0.407165,3.548809,-1.071199,-0.650769
821.000000,0.002000,-0.999733,0.286045,0.352613,-0.449738,-1.015293,-0.510418,4.416247,-1.192730,-0.936153
822.000000,0.002000,-1.229457,1.342532,-1.905236,0.325338,1.132225,1.907947,1.218126,-1.344164,1.915830
823.000000,0.002000,-0.516080,1.053992,-1.120199,0.819085,0.693734,0.851501,1.269841,-2.582412,2.873316
824.000000,0.002000,0.358379,-1.264554,-0.051800,0.043806,0.540770,0.429031,-0.612082,4.227316,0.449402
825.000000,0.002000,-2.251076,-0.689150,-1.604400,0.720893,1.564166,-0.548352,1.908687,0.557369,1.365350
826.000000,0.002000,-0.273740,-0.375790,-0.854332,1.296996,0.401806,-1.699652,-0.374466,0.621487,4.111906
827.000000,0.002000,0.731462,-0.834258,0.604911,-0.796620,0.665669,-0.406615,-2.638088,2.779188,-2.348132
828.000000,0.002000,1.821065,0.072032,-0.943621,1.761518,-0.682048,-0.773648,-3.042731,-0.133933,1.635673
829.000000,0.002000,-1.243646,-0.571248,0.603185,0.240661,1.482430,-1.105288,3.665315,1.930050,-1.450524
830.000000,0.002000,0.143095,0.996577,0.763495,-0.158789,0.427315,-0.201441,-0.730672,-3.389407,-2.709053
831.000000,0.002000,0.048021,0.405944,1.809647,-0.933777,-0.707609,-0.625513,0.163048,-0.615817,-3.598559
832.000000,0.002000,1.446406,-0.329302,1.080271,0.148982,-0.231259,0.771879,-3.035975,0.743501,-2.589361
833.000000,0.002000,0.552089,0.929553,0.754022,-0.436731,-2.229992,0.701193,-1.943326,-3.039599,-2.475939
834.000000,0.002000,-0.945618,-1.497377,0.431885,0.389079,1.375874,-1.452798,2.219240,3.014219,-0.738491
835.000000,0.002000,2.040063,-0.773320,-0.032340,1.205134,0.086709,1.567249,-3.276887,1.178408,0.118838
836.000000,0.002000,-1.096103,1.261609,-2.417520,-0.561272,0.789832,-1.029504,0.829008,-0.928819,1.818909
837.000000,0.002000,-2.139421,0.547777,0.143313,1.388851,1.695811,2.250106,2.951559,-0.789569,-0.248632
838.000000,0.002000,-0.460608,-0.438321,0.525021,0.294107,-1.302433,-0.267502,1.692968,1.740420,-3.123903
839.000000,0.002000,-0.485656,-1.106396,-0.793619,-0.644954,0.077588,1.462388,1.514683,3.466747,2.448028
840.000000,0.002000,1.047764,-0.474385,-1.648694,1.477973,0.541286,-2.478045,-2.011855,0.793671,3.148455
841.000000,0.002000,0.300611,0.695516,1.274969,1.936221,1.823129,-0.736173,-1.085422,-1.669572,-3.841366
842.000000,0.002000,-0.037848,-0.637143,0.582136,-2.581230,0.352559,0.948578,0.149211,2.968475,-2.703207
843.000000,0.002000,0.848100,0.007074,0.024604,0.985521,0.449055,0.688896,-4.457685,-0.021510,-0.296080
844.000000,0.002000,0.113015,0.068589,0.547852,-1.526810,1.390518,2.849137,-0.599909,-0.080203,-2.636619
845.000000,0.002000,-0.980972,-1.143309,-0.734143,0.541711,0.214635,1.106962,2.686562,2.959376,1.709495
846.000000,0.002000,0.592268,0.153069,0.883572,-0.615169,-1.012225,-1.768252,-2.224013,-0.039881,-3.258897
847.000000,0.002000,-0.161076,-1.138844,1.187267,0.282298,0.194309,0.276767,0.423780,2.874672,-2.939604
848.000000,0.002000,0.122669,1.329613,0.572420,1.390507,0.259087,-0.343198,-0.516559,-4.119527,-1.780674
849.000000,0.002000,2.069653,0.067108,0.923453,-1.333385,2.862665,0.170783,-2.777663,-0.216230,-1.069713
850.000000,0.002000,0.879958,-0.613771,-0.387850,-0.303435,-0.476599,-2.056773,-3.871307,2.515632,1.949064
851.000000,0.002000,-1.466225,-1.451516,0.214609,0.076500,1.093905,0.866699,2.551858,2.435113,-0.393168
852.000000,0.002000,0.751760,0.701143,0.151421,-0.580829,0.494102,-1.920843,-3.432900,-2.926706,-0.298557
853.000000,0.002000,0.752875,-0.495743,-0.256444,-1.264631,1.016446,0.253468,-3.213935,1.819705,1.588606
854.000000,0.002000,0.795413,0.500980,-0.236013,0.428427,0.594022,-0.205948,-3.401672,-2.282671,1.343417
855.000000,0.002000,1.218075,-1.241473,-0.602177,-1.163595,0.635506,-0.769584,-2.632512,2.721635,1.347480
856.000000,0.002000,-0.345951,0.919691,0.044280,-0.537635,0.832930,0.406914,1.632524,-3.986412,-0.073258
857.000000,0.002000,-1.353942,0.400520,1.086806,-0.776820,-1.205086,-0.093671,3.506937,-2.400444,-1.007662
858.000000,0.002000,0.888917,0.561372,-1.762389,1.425946,-0.628718,1.278369,-1.557103,-0.990220,3.250474
859.000000,0.002000,-0.802201,0.433091,-0.207952,1.129466,-0.612904,-1.492360,2.967398,-2.571007,2.234582
860.000000,0.002000,0.444943,-1.253662,-0.110397,-0.870639,0.328959,-0.460845,-1.853410,3.885000,0.871040
861.000000,0.002000,-1.377209,-2.099463,0.335274,0.198486,-1.342158,0.379470,1.235982,2.068814,-0.344369
862.000000,0.002000,0.878130,0.212499,-0.184637,0.181289,-0.404318,-1.484471,-3.775545,-1.667123,0.930061
863.000000,0.002000,-1.588415,1.066344,-0.115734,-0.101698,0.495516,-0.709090,3.291199,-2.064551,0.096527
864.000000,0.002000,1.996844,0.822594,-2.170586,0.304781,-1.226551,-1.581833,-1.320615,-0.543916,1.446741
865.000000,0.002000,0.911490,-1.367644,-0.951428,1.470916,0.440830,-1.830571,-1.714887,2.833318,1.803741
866.000000,0.002000,-0.019073,-0.201312,0.214816,2.375320,-1.041706,-1.909339,0.363362,0.413726,-0.496936
867.000000,0.002000,-1.109284,-1.149012,0.443704,-0.731983,0.160468,-1.631596,2.535063,2.861719,-1.156406
868.000000,0.002000,-0.119454,0.223317,-2.196350,-1.056208,0.464075,0.142543,0.128228,-0.493895,3.399863
869.000000,0.002000,-0.068862,-0.824833,-0.877891,1.077118,0.791390,0.581111,0.127750,2.959923,2.903835
870.000000,0.002000,1.012865,-0.896454,-0.971337,0.785896,2.116805,1.346093,-2.626014,2.384188,2.480892
871.000000,0.002000,-0.306332,0.374246,-1.106362,0.307265,-0.849264,-2.046111,1.169159,-2.058248,3.705156
872.000000,0.002000,1.415966,1.430569,-0.942960,1.710513,-0.304602,-0.544242,-2.136829,-2.127286,1.396359
873.000000,0.002000,-0.424520,-0.782814,-1.626057,-1.751003,0.045216,0.783046,0.895606,1.706211,3.857337
874.000000,0.002000,0.390791,0.716642,1.876763,0.846676,-0.233555,-1.508912,-0.719320,-1.277147,-3.262975
875.000000,0.002000,-0.919302,1.401835,1.279158,-0.130363,0.531892,-0.742934,1.822040,-2.537910,-2.165608
876.000000,0.002000,-0.108656,0.631052,0.905090,-3.077321,0.155641,0.130192,0.084629,-2.000729,-3.921774
877.000000,0.002000,1.951802,0.411487,-0.093865,-0.403099,-0.702593,-0.337136,-3.714194,-0.748719,0.031399
878.000000,0.002000,-0.900660,0.221617,1.017265,-0.217830,-0.867179,-0.232920,2.719866,-0.616961,-3.256766
879.000000,0.002000,0.096315,-0.833273,0.064771,-1.569907,-0.310903,-0.300693,-6.364020,7.702310,0.817421
880.000000,0.002000,-0.253479,0.299598,-1.661429,-1.211056,0.313921,0.198677,0.696489,-0.765045,3.650004
881.000000,0.002000,0.507508,0.681814,0.522740,-0.544144,0.679978,0.683873,-2.573466,-3.578783,-2.230776
882.000000,0.002000,-0.041369,-1.955819,-0.120332,-0.379800,-1.295443,-1.000893,-0.038275,4.296214,0.487621
883.000000,0.002000,1.131857,-0.721887,-1.982406,0.639462,1.428823,0.196771,-1.482479,0.877174,2.580354
884.000000,0.002000,-1.535981,0.481689,0.421745,0.227310,1.623152,0.435763,3.658332,-1.400730,-1.103020
885.000000,0.002000,0.732326,-0.157224,-1.590601,-1.622420,-1.011513,-0.732643,-1.671641,0.158428,3.590185
886.000000,0.002000,-0.817852,0.806850,0.264505,0.159231,-0.260940,1.199075,3.107248,-2.713777,-0.733163
887.000000,0.002000,0.572597,0.272208,-0.274701,-0.903837,-1.691448,-0.658999,-2.667265,-1.037739,0.998611
888.000000,0.002000,-0.128851,1.771822,0.430399,0.467147,-1.040704,0.109852,0.367887,-3.823695,-0.956956
889.000000,0.002000,-0.049253,0.432721,0.141878,0.794099,-0.330272,-0.861342,-0.253856,-1.668884,-0.465721
890.000000,0.002000,-2.213248,0.672094,1.723913,-0.469235,0.194598,-1.037783,1.817915,-0.521152,-1.337401
891.000000,0.002000,-0.829334,1.315019,-0.336614,-0.355045,-1.586303,-0.798212,2.660333,-3.196957,0.298108
892.000000,0.002000,0.256904,1.045214,-0.514820,-0.425845,-0.426012,2.158729,-1.123597,-3.509026,2.184091
893.000000,0.002000,1.239920,-1.138768,-0.964806,-0.150945,0.878345,-0.814051,-2.696491,1.946311,1.310689
894.000000,0.002000,-0.509753,0.677427,-0.183694,0.947207,0.042550,1.629557,1.958081,-3.433233,-0.634351
895.000000,0.002000,-1.548874,-0.323025,-0.875940,-0.124627,-1.028252,-0.816143,3.347798,0.947888,1.815241
896.000000,0.002000,0.589373,-0.363853,0.184652,-1.560267,-0.126959,1.061761,-2.663339,1.722677,-1.436047
897.000000,0.002000,-0.349323,0.479242,-0.239835,0.658403,0.356416,-0.523773,0.961866,-3.114217,-0.849530
898.000000,0.002000,0.365009,-2.447493,-0.099650,0.376736,1.598953,-1.964924,-0.457861,2.887559,0.134046
899.000000,0.002000,0.295281,-0.066669,0.674724,-1.262493,1.345054,-0.106195,-1.511649,0.279013,-3.514100
900.000000,0.002000,0.659285,1.306332,0.144649,-0.884331,-0.159286,0.383656,-2.074297,-3.753500,-0.590780
901.000000,0.002000,-1.975669,-2.253318,-1.607632,-0.568929,0.379753,-0.016594,1.003304,1.145742,0.825292
902.000000,0.002000,0.121968,-0.101263,0.259178,1.567453,0.582298,-0.257288,-0.868489,1.041584,-1.611735
903.000000,0.002000,-0.632117,-0.712780,0.567441,0.110594,0.414497,0.016376,2.815594,3.905949,-2.748068
904.000000,0.002000,0.690556,-0.357748,-0.017723,0.222982,-0.970973,0.173730,-3.542426,1.416637,-0.412617
905.000000,0.002000,0.321021,0.506264,-1.207347,-0.870531,-0.029875,-0.434011,-0.958519,-1.328229,4.260371
906.000000,0.002000,-0.613830,-1.166638,-0.401653,1.150525,0.821755,1.123233,2.062701,3.996315,1.399533
907.000000,0.002000,0.800313,0.561492,-1.050336,-0.233622,0.050366,0.642484,-2.329499,-2.271839,3.286007
908.000000,0.002000,0.617804,-0.001283,-0.451039,0.932973,-0.866520,0.538069,-2.392353,0.024193,2.145963
909.000000,0.002000,-1.432081,-0.155662,0.726103,-0.079358,0.207562,0.378783,3.605123,0.444251,-1.715693
910.000000,0.002000,-2.223253,-0.295002,2.414316,-0.537278,1.020482,1.532185,1.243056,0.151137,-1.328612
911.000000,0.002000,0.778538,0.307109,-0.695701,0.912574,0.407180,0.580075,-4.085670,-1.441601,4.429482
912.000000,0.002000,-0.706071,-0.167906,1.716440,-0.217037,-0.809809,0.962365,1.297471,0.889951,-3.677440
913.000000,0.002000,0.275079,-0.906747,1.254439,-1.960618,-0.235428,0.603666,-1.091046,2.169009,-3.551265
914.000000,0.002000,-0.233746,1.277915,-0.672334,0.638772,-4.376435,-0.957007,0.711102,-3.830193,2.170015
915.000000,0.002000,-0.948093,0.101870,0.958291,0.700132,-0.736960,-0.394402,3.014920,-0.038196,-3.142778
916.000000,0.002000,1.139538,0.096955,-1.129338,0.867513,-0.650502,-1.232517,-3.214970,-0.341619,3.241398
917.000000,0.002000,-0.268786,-2.067898,-1.097434,2.395537,-0.351233,-1.772366,0.444221,2.862634,1.447362
918.000000,0.002000,-0.261860,0.435474,-0.295578,-0.768688,0.356847,0.558440,1.576831,-2.174231,2.573172
919.000000,0.002000,-0.257123,-0.329712,0.715185,-1.974768,0.738971,-0.506123,0.897432,1.827683,-2.813546
920.000000,0.002000,-0.863890,0.938080,1.873671,0.408934,0.937443,-1.009909,1.127072,-1.391789,-2.725869
921.000000,0.002000,0.515453,-0.590598,-0.443602,0.293326,-0.554262,1.008592,-3.100932,0.792920,0.866204
922.000000,0.002000,1.141575,-0.915977,-0.951114,-0.827158,2.220882,0.130568,-3.100063,2.380855,2.155035
923.000000,0.002000,-0.917354,-1.314568,-1.166636,2.570267,-0.237782,-1.113083,1.929314,2.620964,2.210160
924.000000,0.002000,0.561671,1.201090,-0.709178,-2.360427,0.827851,0.016912,-1.294929,-3.405434,2.557313
925.000000,0.002000,0.328460,0.723507,0.276849,1.109163,-0.537287,1.729987,-1.899321,-3.953221,-1.045405
926.000000,0.002000,-0.958766,-1.515671,1.160449,0.039540,-0.329774,1.407367,1.489843,2.536059,-1.729558
927.000000,0.002000,0.465959,0.654099,-1.161801,-0.384375,0.688089,-0.363384,-1.603013,-1.371374,3.601127
928.000000,0.002000,0.277909,0.682881,0.381814,0.353170,0.381564,0.582740,-1.547657,-3.449985,-2.086698
929.000000,0.002000,-0.645437,1.214320,-1.526924,1.056810,1.920442,0.129563,1.121791,-2.047765,2.409075
930.000000,0.002000,0.851591,1.262128,1.548982,-0.855675,1.720270,-0.358165,-1.692719,-2.045872,-2.377771
931.000000,0.002000,-0.254203,-1.113492,0.783875,0.938844,-0.956822,-0.251903,1.220123,4.152877,-2.868851
932.000000,0.002000,-0.867192,0.125544,-0.285031,-1.470175,0.767282,0.426559,3.986516,-0.862139,1.493416
933.000000,0.002000,-0.933152,0.345464,-1.323842,-0.197638,0.191425,0.849799,2.226096,-1.165749,3.376478
934.000000,0.002000,0.663921,-0.918945,-1.717713,0.653938,0.562705,0.309693,-1.293793,1.622033,3.370424
935.000000,0.002000,-0.098877,0.424438,0.623053,-0.461363,-0.135751,0.317685,0.288027,-1.317856,-3.240555
936.000000,0.002000,0.838293,-2.316751,-1.005636,0.157648,0.484083,0.041308,-0.838627,2.312857,0.938405
937.000000,0.002000,0.136873,1.504706,0.775657,0.282389,-0.335996,-0.160348,-0.134306,-3.830793,-0.831622
938.000000,0.002000,1.999723,-0.412128,0.290764,0.805837,1.166641,0.133822,-3.508194,0.715413,-0.592740
939.000000,0.002000,-1.009114,-0.447861,-0.743932,1.071964,-0.370228,0.029365,3.264093,1.410678,2.505818
940.000000,0.002000,-0.676994,-0.420520,0.122080,-0.269117,-0.211292,1.173198,3.376475,1.792316,-0.441082
941.000000,0.002000,-0.092559,0.168875,0.062967,-1.105351,-3.798591,-0.784221,0.983700,-0.277100,-0.055791
942.000000,0.002000,-0.126382,-0.472063,-0.203305,2.239625,0.630684,1.104585,1.132754,2.340389,1.377222
943.000000,0.002000,-0.375385,0.578492,0.906255,0.819756,0.755135,0.225500,1.372079,-2.183476,-3.516741
944.000000,0.002000,1.213282,-0.683266,0.603188,-0.778798,1.251891,1.255452,-3.191361,2.188385,-1.904068
945.000000,0.002000,-1.258526,0.485368,1.197027,1.499077,1.061619,1.015134,2.587052,-1.206177,-2.813117
946.000000,0.002000,-0.134635,1.129500,-1.288569,0.190497,0.429943,-1.352509,0.913361,-2.670572,2.902441
947.000000,0.002000,-0.983511,-0.024962,0.781856,-0.794179,1.129280,-2.545175,3.239977,0.184712,-2.687785
948.000000,0.002000,-0.282356,-0.335524,-0.934217,1.430308,1.241192,0.735980,1.525899,0.991185,3.851779
949.000000,0.002000,0.240637,1.208526,0.621034,0.345535,-0.581053,-0.931307,-0.031473,-3.632838,-3.034316
950.000000,0.002000,0.774750,-0.203012,-0.747598,0.653335,0.087812,-1.699083,-3.415774,1.779027,3.161740
951.000000,0.002000,0.461074,-0.066114,-0.233918,-2.276977,-0.359823,-0.530068,-2.068026,-0.026328,1.852239
952.000000,0.002000,0.952707,-0.109369,-0.843088,0.362307,0.833002,0.099703,-4.299250,-0.957708,2.949506
953.000000,0.002000,0.820589,-0.010869,-0.961679,-1.023608,-0.935475,0.910572,-2.830756,-0.180108,3.389579
954.000000,0.002000,-1.067220,0.244317,2.320676,0.511825,1.481873,-0.293148,1.090605,-0.181990,-2.546451
955.000000,0.002000,-0.641389,-0.308934,1.323123,-2.403422,0.317530,-2.209565,2.295820,1.134662,-3.529559
956.000000,0.002000,0.121808,-1.338955,-1.477422,1.785068,1.219731,1.094700,-0.205917,2.647345,2.854552
957.000000,0.002000,1.247793,0.610855,1.049180,0.062660,-0.646731,2.091283,-2.819834,-1.640654,-2.669833
958.000000,0.002000,0.111108,-0.579741,-0.237618,1.649144,1.599865,-0.175661,-1.242919,2.190356,0.699015
959.000000,0.002000,-0.020483,-0.868224,0.534142,-1.577868,-0.123019,-0.391720,0.132773,3.781640,-2.876622
960.000000,0.002000,-1.119676,-0.339537,-0.128102,1.602566,-0.001434,0.773588,4.102876,1.292274,0.363985
961.000000,0.002000,-0.780940,-2.299780,0.401920,-0.867839,-0.809143,-0.490283,0.383069,2.578533,-0.537522
962.000000,0.002000,-0.809881,1.353777,-0.383077,-0.428461,0.102570,-0.325879,2.436353,-3.974675,1.404211
963.000000,0.002000,-0.522110,0.183799,0.872921,0.316456,0.899076,-1.993251,2.403887,-0.351325,-3.369589
964.000000,0.002000,-0.563021,0.843319,1.450883,0.051683,-1.814826,-0.076955,1.003644,-1.748725,-3.736783
965.000000,0.002000,0.993994,1.575294,1.337527,-0.034105,-0.620708,0.353478,-1.413347,-2.176267,-1.921728
966.000000,0.002000,1.324056,1.597652,0.218530,-2.019353,-0.201827,0.084834,-2.284436,-2.779785,-0.400282
967.000000,0.002000,-0.339875,-2.240022,-1.509670,0.915702,0.330937,-1.802016,0.463279,2.150774,1.396896
968.000000,0.002000,-0.490332,-0.248968,-0.002700,-0.274416,1.394234,1.512714,3.149079,1.196892,0.583706
969.000000,0.002000,-1.042501,-1.675890,-0.044411,-0.319494,-0.645416,0.867340,1.867888,3.044903,0.148949
970.000000,0.002000,-0.239594,-0.770161,-0.719721,-0.443493,0.549427,0.359793,1.156472,3.255684,3.237477
971.000000,0.002000,-1.030769,-0.345752,-0.823255,-0.762936,0.561965,0.460658,3.176751,0.896302,2.624834
972.000000,0.002000,1.097100,0.268114,-1.091420,-1.809171,0.228549,-1.042279,-3.497528,-0.775973,3.150292
973.000000,0.002000,-0.303560,-1.345088,1.055824,-0.210921,-1.494671,0.307866,0.235235,3.071269,-2.516796
974.000000,0.002000,1.428481,0.983863,-1.043280,0.313768,-2.774790,1.103140,-2.766832,-1.775636,1.903130
975.000000,0.002000,-0.014465,-0.455762,0.507802,0.781846,-0.437034,-0.693790,0.035624,2.250866,-2.465504
976.000000,0.002000,-0.899251,-0.466933,-0.266189,1.251497,2.180958,1.524264,3.485669,1.802179,1.050858
977.000000,0.002000,0.095560,0.523245,-0.433557,-0.619092,-1.795238,-0.954417,-0.430541,-1.589781,2.676909
978.000000,0.002000,0.578115,0.702075,-0.388314,-1.005328,-1.339238,-1.658621,-2.499834,-2.433785,2.312455
979.000000,0.002000,-1.261558,-1.196268,0.557874,-0.025321,-0.127281,-0.408901,2.668801,2.506867,-1.339447
980.000000,0.002000,-0.537567,-1.796894,0.432668,-0.562100,-0.668294,-1.853469,0.937852,3.567998,-0.885665
981.000000,0.002000,0.100093,-1.400895,1.181039,-0.299456,0.189334,-0.112483,-0.250812,2.868343,-2.434645
982.000000,0.002000,0.953438,0.269588,-1.142933,1.039948,1.279054,1.499545,-3.352461,-1.963838,2.458001
983.000000,0.002000,-1.297795,-0.241017,-1.835393,1.147915,0.682718,-1.077923,1.997777,0.545534,2.792045
984.000000,0.002000,0.384582,-1.375079,0.058652,-0.267191,0.565430,-1.056986,-1.206521,4.394104,0.227443
985.000000,0.002000,-0.331298,0.703102,-0.949117,-0.386489,-0.212812,0.041235,0.873577,-2.605642,3.219129
986.000000,0.002000,0.242413,-1.306650,0.597143,-0.361358,1.062639,-2.096804,-1.065965,3.746375,-1.827045
987.000000,0.002000,-0.125290,0.566062,-1.250914,-0.069518,0.645820,0.916024,1.021455,-0.265615,4.932703
988.000000,0.002000,0.360316,0.361924,0.497627,-1.477469,0.531056,1.212268,-1.027826,-0.265156,-2.543006
989.000000,0.002000,0.188302,-0.165393,1.261254,-1.312094,0.317578,-0.017918,-1.217825,0.836102,-4.525736
990.000000,0.002000,-0.181735,-0.720620,-0.097469,-0.254075,0.347739,-0.345342,0.327397,4.594938,0.278615
991.000000,0.002000,-0.885509,-0.635101,-0.182984,0.810806,-1.622345,-0.032215,3.057300,1.893431,0.701475
992.000000,0.002000,-0.341798,0.282354,2.108284,0.404792,0.810476,1.455299,0.497265,-0.392299,-3.300865
993.000000,0.002000,0.512541,0.961564,-0.494741,-0.685040,-1.269024,0.187604,-2.048544,-3.341066,1.926969
994.000000,0.002000,-0.670848,-0.459208,1.021887,-0.699689,-0.745061,1.534539,2.823950,1.177121,-3.470861
995.000000,0.002000,-2.091439,-0.977318,0.042580,0.711041,0.629118,-0.597795,2.899660,1.439282,0.018818
996.000000,0.002000,-0.233045,1.970184,0.351004,-0.057049,-0.168264,-1.003389,0.713074,-3.845084,-0.641507
997.000000,0.002000,-0.534522,-1.635828,-0.584434,1.331677,-0.409300,-2.379070,0.836492,3.674642,1.236240
998.000000,0.002000,-1.052732,0.479360,0.065735,2.708604,0.039745,-0.976595,4.342393,-1.968864,-0.736034
999.000000,0.002000,0.310683,2.177815,-1.044710,-0.119993,0.845999,-1.306621,-0.491813,-2.817504,1.400642
1000.000000,0.002000,-0.183635,-1.165651,0.066411,0.067424,0.674808,1.459137,0.269491,4.122030,-0.217034
1001.000000,0.002000,1.439554,0.704769,-0.136093,-1.722209,1.257998,-0.199942,-3.771866,-2.082748,0.456404
1002.000000,0.002000,0.293739,-1.270397,-0.472623,0.374852,-0.410832,-0.729173,-0.883126,3.841404,1.151159
1003.000000,0.002000,0.077655,0.202650,-1.401184,-0.113092,1.013995,1.502036,-0.549032,-0.552784,4.229205
1004.000000,0.002000,0.183229,0.356095,-0.424784,-1.495328,0.692867,-0.362051,-1.016104,-1.516998,2.491016
1005.000000,0.002000,-0.071558,-1.619838,-1.578433,-0.750323,-1.241071,-0.866897,0.171230,2.362054,2.261217
1006.000000,0.002000,0.227355,-0.739165,-0.004563,0.844559,-0.519032,0.060779,-1.613740,4.357040,-0.402488
1007.000000,0.002000,1.010884,-0.034300,-2.828257,1.680838,1.401447,-0.072805,-0.704259,0.147835,2.004350
1008.000000,0.002000,-0.146552,-0.656083,-0.417770,0.095250,-1.619994,-1.740876,0.771104,2.966018,2.158180
1009.000000,0.002000,0.861851,-1.607732,0.206254,-0.477322,-0.128459,-0.403930,-1.979325,3.301033,-0.520497
1010.000000,0.002000,1.685504,-0.586870,0.539787,0.978797,0.445059,0.619857,-3.454585,0.025465,0.234023
1011.000000,0.002000,0.917804,0.198303,-0.817471,-0.632741,-0.135077,-1.185275,-3.496825,-0.114482,2.759314
1012.000000,0.002000,-0.793568,0.986543,0.538159,-0.701216,2.274872,-0.643068,2.776521,-3.209284,-1.984032
1013.000000,0.002000,-0.817255,-1.192857,-1.099127,-0.226652,-0.040491,1.942283,1.616901,2.412586,2.307582
1014.000000,0.002000,1.628261,-0.110284,2.195361,-0.404049,-0.418259,-1.747438,-1.458776,0.118303,-2.052648
1015.000000,0.002000,0.596866,0.314517,0.269138,0.252780,-1.342619,-0.428306,-3.168750,-2.252299,-2.084438
1016.000000,0.002000,1.016109,-0.874283,2.236193,0.116518,0.965675,0.646826,-1.065596,0.914860,-2.294941
1017.000000,0.002000,-0.052335,-0.559798,0.471049,0.482579,1.567355,1.576285,0.017989,2.604632,-2.250624
1018.000000,0.002000,1.128079,-0.913524,0.622967,0.212844,1.071849,0.473219,-2.960930,2.587105,-1.656930
1019.000000,0.002000,-0.680944,-0.462725,-0.538448,0.509369,0.539657,-0.388365,3.295337,2.318414,2.188380
1020.000000,0.002000,0.776012,-1.132486,0.085397,-0.021897,-0.043233,-1.103798,-2.946149,3.747891,-0.557576
1021.000000,0.002000,-0.330324,-0.921219,-1.142647,0.184482,-0.609120,0.875889,0.944696,2.717608,3.364949
1022.000000,0.002000,-1.367785,-1.655214,0.832474,-1.553576,-0.101604,-0.701261,1.960228,2.169452,-1.231225
1023.000000,0.002000,-0.172419,0.124650,1.208663,0.718707,-0.372993,0.087108,0.358556,-0.633728,-4.204710
1024.000000,0.002000,-1.273623,-1.013082,0.322378,-0.375181,-0.592716,0.628070,3.046942,2.388290,-1.028685
1025.000000,0.002000,-1.825104,-0.628990,-1.022328,0.133979,-0.452369,-0.899495,2.867165,1.025792,1.493071
1026.000000,0.002000,0.249819,-0.447424,1.836946,-0.838487,-0.175471,-1.886599,-0.707680,0.898291,-3.408270
1027.000000,0.002000,0.853589,-0.758146,-0.400452,-1.015499,1.101719,-0.073931,-3.659279,3.261394,1.521516
1028.000000,0.002000,-0.296613,3.412304,-1.486726,0.516580,0.990574,0.264757,0.125223,-1.317074,0.584137
1029.000000,0.002000,0.213721,-2.212090,-0.054689,0.080691,-1.106071,-0.474656,-0.402647,3.346160,0.067752
1030.000000,0.002000,1.913554,-0.434852,1.189424,-0.105314,-0.231338,0.764112,-2.767844,0.742602,-1.741342
1031.000000,0.002000,-0.102085,-0.337434,-0.323515,-0.333740,0.924999,-0.619288,1.185521,1.634125,2.063997
1032.000000,0.002000,-0.760047,-0.661200,-1.406485,-1.648088,-0.282888,-0.601243,1.919797,1.041042,2.929097
1033.000000,0.002000,1.425078,-0.554507,0.351658,-1.009032,-1.545202,0.523947,-3.585738,1.832193,-1.217497
1034.000000,0.002000,-0.682796,1.063025,-0.420340,2.073170,-0.702114,-1.400170,2.440944,-3.321440,1.665656
1035.000000,0.002000,-0.040158,-1.879593,0.371124,0.509366,-0.309997,-0.292314,-0.011315,3.934407,-0.851753
1036.000000,0.002000,1.873870,-0.793078,-0.424414,0.462476,0.830971,0.372130,-3.209990,1.339194,0.650919
1037.000000,0.002000,-1.090020,0.041804,0.036858,0.652702,-0.968364,-0.240124,2.273210,0.599995,2.835877
1038.000000,0.002000,0.583373,0.631894,-0.973435,-1.316448,0.702782,-1.456716,-1.740435,-2.094090,3.258049
1039.000000,0.002000,0.249537,-0.390032,-1.043978,0.224229,-0.558316,0.657547,-0.654540,1.344199,3.489445
1040.000000,0.002000,-0.159165,3.810495,2.481639,-0.321455,0.047312,1.638439,0.034186,-0.804080,-0.525539
1041.000000,0.002000,0.120598,1.683228,-0.193343,-0.193989,-0.774057,-1.449492,0.012473,-4.377499,0.574566
1042.000000,0.002000,0.180586,-1.941549,-1.063864,2.337788,0.232501,-0.961747,-0.270355,2.789903,1.273004
1043.000000,0.002000,-0.782948,0.080044,0.069131,0.188188,-0.288548,0.522369,4.028688,-0.309405,-0.561960
1044.000000,0.002000,-0.675424,-0.670247,-0.236883,-0.825421,-0.682619,-0.667714,2.809980,2.802442,0.913393
1045.000000,0.002000,-1.511180,-0.589227,-0.367558,-1.113086,0.319655,0.192700,3.302616,1.391946,1.483448
1046.000000,0.002000,-1.051616,-0.363066,-0.928093,2.129682,-0.285783,-0.796755,3.057622,0.993132,2.952374
1047.000000,0.002000,1.319544,-0.257630,-0.243333,0.624942,-0.086164,-0.505078,-4.251591,1.058968,0.660329
1048.000000,0.002000,0.485444,0.582141,-1.584884,0.527585,0.192861,1.699160,-1.233796,-1.170252,3.942467
1049.000000,0.002000,-0.510768,-0.844600,-0.141142,-1.234471,0.802588,0.075124,2.305420,3.128361,0.443387
1050.000000,0.002000,-0.502245,0.175998,-1.083496,0.453740,0.128919,-0.852995,1.896054,-1.204807,3.646174
1051.000000,0.002000,-0.707452,-0.304191,1.019068,-1.267699,2.917900,-0.829673,2.609045,0.967836,-3.342203
1052.000000,0.002000,0.405937,0.399300,-0.174936,0.293734,0.228048,1.158753,-1.873698,-1.670597,0.842374
1053.000000,0.002000,-0.395978,0.471978,0.819745,-0.034580,-0.988659,0.281606,1.616180,-1.986119,-3.244446
1054.000000,0.002000,0.025756,1.333990,1.125049,0.106767,1.775161,-1.630612,0.152774,-3.191169,-2.703158
1055.000000,0.002000,-1.430241,0.431910,-0.030460,2.553763,-0.043688,0.130775,4.413417,-1.255492,0.130018
1056.000000,0.002000,0.321068,1.105312,-0.767337,-0.729287,-0.280402,1.668327,-1.089111,-3.490446,2.753686
1057.000000,0.002000,-1.592801,1.050451,-0.923874,0.414705,-0.640616,0.826633,2.840590,-1.642658,1.490667
1058.000000,0.002000,-0.802333,0.105495,-0.520308,-1.000848,-1.030470,1.797140,3.413231,-0.601886,2.610001
1059.000000,0.002000,-1.442900,-0.010367,-0.776340,1.662017,-0.460507,0.152984,3.301073,-0.281716,2.197099
1060.000000,0.002000,0.446433,-0.587578,-0.690760,-1.608848,-0.715170,0.083593,-1.477574,2.492411,2.278222
1061.000000,0.002000,-0.115285,1.047694,0.827423,0.962645,-0.201826,-0.927703,0.268427,-3.275142,-2.549329
1062.000000,0.002000,-0.999959,2.745402,-0.323835,0.971175,-0.648833,0.031414,0.793213,-2.163616,0.246675
1063.000000,0.002000,-1.132561,0.833859,-0.328625,0.355944,-0.669321,0.399824,3.302081,-2.491154,1.191542
1064.000000,0.002000,2.370925,0.893903,-0.154770,2.020090,0.401886,0.461092,-2.813638,-1.128179,0.226871
1065.000000,0.002000,1.341796,0.933615,-1.110976,-2.460518,0.771804,1.278696,-2.518072,-1.635409,2.160587
1066.000000,0.002000,0.870649,-0.395795,-0.087925,-0.365536,1.303558,-0.038410,-3.605343,2.340596,0.603740
1067.000000,0.002000,0.075134,-0.694520,-1.387561,-0.579609,1.950495,-0.352317,-0.331196,1.932528,4.175580
1068.000000,0.002000,0.381533,-1.434591,-2.556604,0.122583,-0.411591,0.281794,-0.293716,1.047425,1.911465
1069.000000,0.002000,-1.025654,0.394820,-0.328860,-1.698822,0.562538,-0.506352,3.757302,-0.710065,2.194061
1070.000000,0.002000,1.217758,0.218238,-0.783269,-0.676964,0.310106,-0.028817,-3.748458,-0.725197,2.899457
1071.000000,0.002000,-0.438545,-1.329106,1.070931,0.046889,1.217217,-0.278862,0.844541,2.874759,-2.569695
1072.000000,0.002000,-1.438561,-0.947962,-0.035948,-0.414427,-0.155894,1.251945,3.036557,2.390482,0.208824
1073.000000,0.002000,0.103881,-1.542653,-0.707198,1.006621,-0.210001,2.075004,-0.154114,4.155658,1.753556
1074.000000,0.002000,0.374242,1.110046,0.225061,1.039219,-0.376540,-1.322083,-0.684162,-3.593590,-1.762823
1075.000000,0.002000,0.125016,-1.266900,-0.687559,1.495702,3.145186,-0.600202,-0.349411,3.866357,1.964350
1076.000000,0.002000,0.515595,0.995185,0.851660,-0.146862,-1.026233,-0.511583,-1.851212,-3.770882,-2.417194
1077.000000,0.002000,0.302180,1.137164,2.958502,1.632807,-0.711486,0.679738,-0.195615,-0.713829,-1.795199
1078.000000,0.002000,-0.572757,-0.724025,1.522447,0.279909,0.486438,-0.143396,2.064462,2.529757,-4.809930
1079.000000,0.002000,0.323996,0.233736,0.372814,0.792266,1.171681,-0.299195,-2.013407,-0.865045,-2.130050
1080.000000,0.002000,-0.641738,-1.007962,-0.768592,0.219423,0.454780,0.189333,1.601499,4.023201,1.526307
1081.000000,0.002000,1.138210,-1.356562,0.640431,-1.196856,0.933605,1.362520,-2.329153,2.688383,-1.349136
1082.000000,0.002000,-0.637717,-0.366689,0.746250,-0.658593,-0.072397,-0.133267,2.662432,1.182465,-3.322197
1083.000000,0.002000,0.859176,0.340379,-1.761452,0.072135,-0.056322,1.280035,-1.649405,-0.593230,3.318347
1084.000000,0.002000,1.547996,1.134204,0.132229,-0.377805,-1.872447,0.398643,-3.097712,-2.149412,-0.202621
1085.000000,0.002000,-0.036768,1.886837,0.836809,-0.467793,0.686059,-1.178751,0.040940,-3.421231,-1.493864
1086.000000,0.002000,0.159876,-0.318996,-0.155522,1.864595,-0.173025,0.423787,-0.734094,2.101885,0.709811
1087.000000,0.002000,1.179373,0.943967,-1.651286,-0.065908,-1.039590,-0.246424,-1.629899,-1.378918,2.585534
1088.000000,0.002000,0.582968,1.054581,-1.401265,1.113449,1.818963,1.198783,-1.172441,-2.047930,2.859170
1089.000000,0.002000,0.015911,-1.790191,0.190955,0.181015,0.066145,0.590410,-0.171602,3.976591,-0.512963
1090.000000,0.002000,-1.951771,-0.707254,-0.411971,1.468289,-0.194160,2.026791,3.202658,1.110869,0.654707
1091.000000,0.002000,-0.640236,1.394343,0.547258,0.775546,-0.754852,0.044149,1.801402,-3.710192,-1.535493
1092.000000,0.002000,-0.471995,-0.933046,-0.334894,-0.537940,0.140664,-0.958641,2.757112,3.496830,1.145024
1093.000000,0.002000,-0.969285,1.114350,2.039096,0.660740,1.335753,0.304084,1.120532,-1.356148,-2.395026
1094.000000,0.002000,1.146256,0.597681,-0.058444,0.771694,2.552245,1.083632,-3.396205,-2.300582,0.385437
1095.000000,0.002000,-0.431953,1.735201,-0.591574,-0.231771,-0.287327,-0.099294,0.762599,-3.807408,1.251000
1096.000000,0.002000,1.500844,-1.008354,-0.346854,-0.764558,1.351020,-0.472246,-3.337002,2.408850,0.733941
1097.000000,0.002000,-1.631628,0.219795,-1.239976,0.959534,0.588275,0.349088,2.691968,-0.402927,2.254540
1098.000000,0.002000,1.634063,0.443741,0.373275,-0.477415,0.293972,-1.675826,-3.421916,-0.623099,-0.716165
1099.000000,0.002000,0.315019,-1.316932,0.124939,0.310873,-2.032938,-0.018590,-0.453463,4.234075,-0.442145
1100.000000,0.002000,1.862077,0.248040,-0.931229,0.075020,2.360784,0.942812,-3.071338,-0.597919,1.573734
1101.000000,0.002000,-1.967221,-0.765270,-1.726918,-1.056139,-0.483793,0.437153,1.847679,0.719864,1.648351
1102.000000,0.002000,0.865550,0.874391,-0.760570,0.246783,0.752741,1.229876,-8.225754,-4.350793,-0.800417
1103.000000,0.002000,0.474044,-0.567254,0.081841,-1.455626,0.210044,1.263076,0.815067,2.582144,-0.620727
1104.000000,0.002000,0.345405,-0.372916,0.441862,-0.339147,0.854102,0.156696,-3.573175,3.516087,-2.752207
1105.000000,0.002000,-1.613724,0.180368,-0.044168,0.931352,0.596088,-0.078465,4.263900,-0.820967,0.241735
1106.000000,0.002000,-2.122446,-1.800021,-1.941552,-0.706234,0.143626,-0.770611,1.069551,0.918732,0.981770
1107.000000,0.002000,0.406073,0.108499,0.267539,-0.202788,-0.164651,-0.152112,-2.464416,-0.059421,-2.029022
1108.000000,0.002000,-1.364602,1.131268,0.968616,-0.252908,-0.184717,-0.231796,2.613496,-2.145369,-1.771570
1109.000000,0.002000,-0.715367,1.062950,-0.075696,0.649996,-1.324955,1.774607,3.025028,-4.226849,0.841005
1110.000000,0.002000,-1.763002,-1.455220,0.833959,0.238111,1.862969,0.954341,2.184692,1.753044,-1.013547
1111.000000,0.002000,-0.116912,0.815042,-0.013980,-0.109245,-0.871192,0.772015,0.406759,-4.374710,0.364965
1112.000000,0.002000,0.186878,2.076771,1.377848,-0.822870,-0.587524,-0.271247,-0.268356,-2.437876,-1.666130
1113.000000,0.002000,-0.294369,0.375019,0.617515,1.466592,-0.089328,1.132738,1.817834,-1.537139,-0.840107
1114.000000,0.002000,0.909608,0.014852,-0.721633,1.293591,-0.569551,-2.164942,-3.997233,0.163420,2.833803
1115.000000,0.002000,0.044232,-0.449853,1.624944,0.472137,0.369702,-0.784915,-0.239601,1.332500,-4.094867
1116.000000,0.002000,1.377401,-0.389554,0.470711,1.165949,-1.814301,0.344421,-3.954962,1.104874,-1.531638
1117.000000,0.002000,-0.268889,1.244911,0.979039,-1.007921,0.344509,-0.838561,0.652358,-3.473218,-2.876422
1118.000000,0.002000,0.730890,0.750403,0.579982,1.503783,-1.351440,-0.906803,-2.586206,-2.643144,-2.049113
1119.000000,0.002000,0.979203,0.578855,0.250991,-2.111550,0.362530,0.975675,-3.521607,-2.054259,-1.112208
1120.000000,0.002000,-0.676100,-1.481992,-0.001388,-0.894738,1.096600,0.267792,1.903838,4.058042,-0.010944
1121.000000,0.002000,-0.708027,0.096782,1.116834,0.435511,0.372911,-0.412161,2.023641,0.056794,-3.512673
1122.000000,0.002000,0.127654,-0.393599,-0.814311,-0.469532,0.255981,0.549499,-0.152919,1.026569,3.299963
1123.000000,0.002000,-1.451071,1.357603,-1.790138,-0.139708,0.181612,-0.047427,1.397022,-1.318208,1.737064
1124.000000,0.002000,-0.932607,-2.367534,-0.388410,0.075009,-0.416410,-0.697502,1.023403,2.538111,0.491093
1125.000000,0.002000,-0.302738,-0.454909,-0.008107,0.476140,-0.397330,0.531986,1.680487,2.335960,-0.584864
1126.000000,0.002000,-0.708204,-0.945466,1.912453,1.164048,-0.264258,0.792284,0.803447,1.265637,-2.862617
1127.000000,0.002000,-0.253087,1.059830,-0.725669,0.867742,1.370933,1.240244,0.990368,-3.056919,2.497429
1128.000000,0.002000,1.699089,1.454954,0.308681,0.748979,-0.713864,0.752776,-2.288674,-2.510587,-0.541820
1129.000000,0.002000,-1.158160,0.092621,0.061892,-0.289081,0.032735,0.130000,4.935989,-0.796710,-0.292231
1130.000000,0.002000,0.046171,-1.034381,-1.531817,-1.936379,-0.447293,0.089589,-0.047443,2.597466,3.347752
1131.000000,0.002000,0.074831,-0.028926,0.119090,-0.951875,-0.173080,1.137312,-1.379513,0.401224,-0.940012
1132.000000,0.002000,0.936365,-1.362894,0.878150,-1.004954,1.259407,-1.425004,-2.000226,2.830136,-1.982882
1133.000000,0.002000,-0.803359,-0.343835,-0.911255,-0.443121,0.559067,-0.676725,2.693203,0.846110,3.363148
1134.000000,0.002000,-0.027367,-1.899244,-0.571044,-1.171432,0.246271,0.027571,0.020471,3.640591,1.287288
1135.000000,0.002000,-0.375662,1.224958,0.111074,1.480286,-0.628195,-0.405344,1.262858,-4.905510,-0.187555
1136.000000,0.002000,0.895260,0.116827,-0.914198,1.862535,1.084351,1.514627,-3.178567,-0.094968,3.314787
