# 
#                 columns are tag, mass, x, y, z, vx, vy, vz, ax, ay, az
#                 Time=0.400000
# 
1.000000,0.002000,1.665469,0.469059,1.024482,-0.852701,0.037296,-0.277456,-3.417702,-0.598434,-1.932007
2.000000,0.002000,2.180574,2.029348,-0.965278,-0.428581,0.151276,0.157607,-1.376818,-1.302017,0.636035
3.000000,0.002000,0.323214,-0.401702,-0.373234,-2.340826,-0.270172,-0.307468,-4.107313,3.836609,4.606107
4.000000,0.002000,0.285504,-0.425738,0.356019,-0.682654,-1.015554,-3.634461,-2.091342,4.777536,-5.107927
5.000000,0.002000,0.628678,0.308903,0.133142,-1.299846,0.074934,-1.024452,-5.982011,-2.395130,-1.230703
6.000000,0.002000,0.048440,1.094088,0.099301,-0.739986,-2.104816,0.780304,0.216849,-6.530913,-0.312351
7.000000,0.002000,-0.219661,-0.491587,-2.298709,-1.327603,1.048665,1.198745,0.240178,0.696106,3.094808
8.000000,0.002000,0.644023,0.984468,-0.498239,-0.529316,-0.399878,1.128156,-3.295879,-4.161973,2.609145
9.000000,0.002000,2.774401,-1.173521,0.315650,0.873301,0.897096,0.626430,-1.895548,0.809992,-0.241379
10.000000,0.002000,-0.992876,1.728853,1.852251,-1.854076,0.108757,0.566645,0.941558,-1.643075,-1.721690
11.000000,0.002000,-0.409041,0.344427,-0.104952,-0.937059,-0.564535,2.532369,4.662066,-3.081539,1.098345
12.000000,0.002000,-1.736709,-0.851099,-0.719419,1.271665,-0.948857,-2.058258,3.067338,1.983580,1.276833
13.000000,0.002000,0.588341,0.945023,-0.136161,-2.263646,-1.408987,0.807222,-3.643982,-5.098626,0.963001
14.000000,0.002000,-0.260709,-0.064096,-1.618936,0.253778,2.670559,0.413101,0.743116,0.124233,4.633691
15.000000,0.002000,-1.704467,1.864109,-0.867597,0.335844,-0.577206,-0.750181,1.693600,-1.763315,0.813661
16.000000,0.002000,-0.101274,-1.085558,0.359730,1.069870,1.324573,-1.435326,0.004089,6.048634,-1.502142
17.000000,0.002000,-1.625563,0.039516,-0.713119,0.734279,0.629456,0.834698,4.217648,-0.271171,1.817420
18.000000,0.002000,0.159794,-0.305781,-1.801567,-0.712264,0.652445,-0.684911,-0.428565,0.640464,4.242287
19.000000,0.002000,0.640541,0.755528,-0.047273,1.128770,0.052041,-0.222065,-3.366893,-5.399384,0.643178
20.000000,0.002000,0.066971,-0.382002,-0.085390,-0.720317,1.383861,0.911354,-0.893345,4.786130,1.442887
21.000000,0.002000,-1.016118,-0.535748,-0.941143,-0.230960,-0.107864,0.345487,3.637545,1.917276,3.448868
22.000000,0.002000,-1.479051,0.021918,-1.120594,1.336214,-0.472825,-1.356378,3.679623,-0.847527,3.553664
23.000000,0.002000,-1.573480,0.144541,-0.930672,0.817096,-0.917510,0.380666,3.687111,-0.478256,2.359009
24.000000,0.002000,0.366134,0.387256,0.573127,0.328244,-1.571649,0.389708,-2.382890,-4.474516,-5.464229
25.000000,0.002000,1.180678,-1.117322,0.062420,-0.485835,0.925211,-0.924974,-3.403242,3.545037,-0.190917
26.000000,0.002000,-0.334167,-0.557300,-0.393404,1.484315,1.528041,1.008536,2.402253,5.775077,4.489075
27.000000,0.002000,0.596825,0.240817,-0.604435,1.904128,0.224532,2.267719,-3.244115,-0.839121,4.028213
28.000000,0.002000,0.836324,0.071270,-1.480001,-0.565158,-1.088763,0.901979,-2.343608,-0.331930,4.244700
29.000000,0.002000,1.539918,2.124946,1.190339,-0.119428,0.229854,-0.173822,-1.218152,-1.692823,-0.966470
30.000000,0.002000,0.213240,-0.607790,0.889974,0.842037,1.791737,-1.278684,-1.526958,3.455456,-5.286507
31.000000,0.002000,-0.290323,0.540679,0.294360,0.750253,-2.635693,-0.114357,4.720842,-3.872719,-2.169468
32.000000,0.002000,0.903829,0.311821,0.414221,-1.024200,-0.384072,-1.265694,-4.490118,-1.828214,-2.698237
33.000000,0.002000,0.433174,0.990236,-0.275428,0.789749,-3.049434,-0.896045,-3.167144,-6.029621,1.217849
34.000000,0.002000,0.765949,1.333516,-0.526096,0.588028,-2.087934,2.400500,-2.420667,-4.087233,1.721200
35.000000,0.002000,-1.008101,0.832353,-0.411726,1.277068,-0.857906,2.315972,4.029054,-3.534473,2.000170
36.000000,0.002000,1.940328,-0.335068,0.159579,-0.746437,0.338755,2.308285,-3.790207,0.671057,-0.311548
37.000000,0.002000,1.669431,1.830435,1.888658,-0.854752,0.655087,-0.193840,-1.051113,-1.168421,-1.218046
38.000000,0.002000,1.393988,-0.506299,1.913911,0.905857,1.061071,-0.461380,-1.787498,0.773587,-2.361692
39.000000,0.002000,-0.513825,1.384774,1.491210,-0.414048,0.891375,0.738560,1.138345,-2.564001,-2.842029
40.000000,0.002000,-0.287106,0.272838,0.650613,-0.037595,-1.286184,-1.596492,2.542156,-2.585182,-5.916944
41.000000,0.002000,0.505991,-0.344052,0.508831,-0.263347,2.575726,-0.128857,-4.534640,3.403487,-4.586142
42.000000,0.002000,0.850564,-0.381740,-0.329652,-2.188690,1.285298,-0.183883,-6.008707,3.710637,1.875049
43.000000,0.002000,-0.146646,1.056228,0.902449,0.871906,-2.773976,0.090323,0.288932,-4.077679,-3.428217
44.000000,0.002000,0.403337,-0.396757,0.623899,-0.508592,1.540428,-0.561877,-2.637245,3.891789,-5.002201
45.000000,0.002000,-0.102217,0.455594,-0.294580,1.866774,0.458734,1.597765,2.253174,-9.065131,3.472785
46.000000,0.002000,1.238585,-0.002384,-0.301435,0.436210,-1.640707,0.039667,-5.672050,0.300524,1.435028
47.000000,0.002000,0.036219,-1.064521,-0.652983,-0.946347,0.840909,2.739472,-0.323148,5.204386,3.175553
48.000000,0.002000,-0.100295,0.028995,0.110543,-1.441759,-0.338354,-1.862234,2.634413,-1.242581,-2.368424
49.000000,0.002000,1.958350,0.746294,0.140683,-1.679071,-0.729497,2.688915,-3.559742,-1.261906,-0.181394
50.000000,0.002000,1.590436,-0.944358,-0.612007,0.565265,1.410845,-0.164576,-3.764919,2.074476,1.293460
51.000000,0.002000,-0.592902,1.428181,-0.121111,-1.070215,-1.578082,1.734610,1.977180,-4.820257,0.857457
52.000000,0.002000,-0.923828,-0.491523,-0.125463,0.595195,-0.578496,1.581998,5.740285,2.878181,0.658133
53.000000,0.002000,0.732553,-1.285918,-1.219511,-1.330493,0.032672,0.290106,-1.648002,2.975591,2.604383
54.000000,0.002000,-0.240241,-0.264339,1.566540,0.626866,0.765252,-1.736591,0.587976,1.361680,-5.049407
55.000000,0.002000,0.516297,0.872742,-0.674067,-1.542745,1.385731,2.124983,-2.451828,-4.339791,3.808062
56.000000,0.002000,0.514450,-1.160446,-1.397878,-1.035767,0.134466,1.011088,-1.142872,3.141916,3.435206
57.000000,0.002000,0.538968,0.387579,0.283633,-2.369320,-0.199739,-2.185533,-5.908364,-4.036684,-2.303969
58.000000,0.002000,0.497178,0.627715,-0.505906,-0.028986,-1.307225,0.937962,-3.822941,-4.357584,3.565004
59.000000,0.002000,-0.927882,0.927015,-0.724210,0.797393,0.082337,0.705961,2.927954,-3.147384,2.657981
60.000000,0.002000,-0.121370,-0.581537,0.216096,1.833048,0.486357,0.231010,1.559558,5.147521,-2.938509
61.000000,0.002000,-0.678559,-0.839714,-0.784827,-0.308822,2.074377,0.188608,3.502399,3.659862,3.414341
62.000000,0.002000,-2.073736,0.943171,-1.494665,0.746969,0.645820,0.545937,1.940537,-0.871258,1.400245
63.000000,0.002000,-0.960992,-0.051665,-0.656122,1.195912,-0.301978,0.749012,5.020659,0.228137,3.383259
64.000000,0.002000,1.553125,-0.995002,-0.526349,-0.565480,1.193790,-1.879029,-3.168742,2.219478,1.006417
65.000000,0.002000,-0.236787,-1.231017,-0.118505,-0.369403,0.850601,-1.689299,1.479172,5.828325,0.230205
66.000000,0.002000,-0.430495,1.235709,1.208713,-0.440661,0.462907,0.377095,1.208373,-3.359601,-3.078622
67.000000,0.002000,2.415170,-0.170993,-0.696701,0.089486,-3.844029,-0.669813,-2.662538,0.333668,0.789814
68.000000,0.002000,-0.383251,0.029482,0.280637,0.080299,-3.161419,-1.522057,4.341728,-0.117879,-4.205274
69.000000,0.002000,-0.249101,-0.844632,0.473960,-2.266709,2.930285,0.863021,1.594168,5.650682,-3.396812
70.000000,0.002000,-0.752067,0.095595,0.256188,0.932855,-0.624225,0.684236,6.451974,-0.426555,-2.180789
71.000000,0.002000,0.799372,-0.087961,0.698251,-1.089527,-0.940195,-1.067552,-4.785360,0.670107,-4.351974
72.000000,0.002000,-0.397938,-0.716807,-0.198169,0.750761,1.553679,0.894733,4.530153,7.079771,2.155735
73.000000,0.002000,-0.002993,0.593527,1.012162,-0.017077,0.234124,-3.996063,-0.074290,-1.918790,-5.758287
74.000000,0.002000,-0.090598,-0.752232,-0.843569,-0.098976,1.286981,-0.541298,0.341486,3.892387,5.098122
75.000000,0.002000,-1.254894,0.769405,-1.641638,-1.618459,0.464764,0.329492,1.876133,-1.139268,2.634137
76.000000,0.002000,0.226422,0.594431,-0.147512,0.123720,0.373074,-0.927064,-2.327301,-4.833998,1.380771
77.000000,0.002000,-0.262213,-0.021647,-0.663114,1.371869,0.671631,2.810538,3.619005,-2.161478,6.789360
78.000000,0.002000,-0.029221,-0.019165,-0.367416,1.417513,1.659074,-1.676842,-1.454628,0.764082,6.572718
79.000000,0.002000,-1.694436,1.124473,2.483918,-1.083619,0.681114,2.110065,1.001212,-0.695141,-1.491217
80.000000,0.002000,-2.039002,-0.048859,0.180721,0.808510,-1.254248,-1.348253,3.982282,-0.030849,-0.434282
81.000000,0.002000,0.083852,-0.269650,0.024897,2.030070,0.880131,0.239929,-1.537196,4.396891,-1.593067
82.000000,0.002000,-0.328971,-0.895130,-1.390167,0.083195,-1.074508,1.573705,0.852346,2.938714,4.204612
83.000000,0.002000,1.477190,0.569747,-0.876210,0.157153,-1.629455,0.254026,-4.044677,-2.416008,1.899916
84.000000,0.002000,-2.313310,0.820016,-0.478973,-1.512882,0.519037,0.411417,2.733135,-1.030382,0.569721
85.000000,0.002000,0.087214,-0.088318,0.596851,-0.311425,0.950027,-1.140894,-1.108215,1.293704,-7.349701
86.000000,0.002000,0.542868,-0.685864,-1.611399,-0.672790,0.407521,0.203895,-1.390595,1.460555,4.153846
87.000000,0.002000,-0.591631,0.775934,-1.571897,2.848330,0.102158,-0.389266,1.523644,-0.836145,2.839847
88.000000,0.002000,-0.441885,-0.047561,-0.275970,1.048921,1.679953,-0.200076,3.808448,-0.164789,2.620076
89.000000,0.002000,-0.937062,0.436873,0.841165,3.304677,0.380878,0.293793,3.505424,-1.786748,-3.636465
90.000000,0.002000,-0.295816,-0.308365,-0.533538,-0.790987,0.497934,-0.991825,2.383226,3.352465,5.040357
91.000000,0.002000,0.236308,-2.506353,1.728610,-0.443998,0.975684,-0.787774,-0.165751,1.678765,-1.188071
92.000000,0.002000,0.605608,-0.082725,0.085934,-0.360712,1.816410,1.238268,-7.052904,1.617546,-1.966719
93.000000,0.002000,0.580891,-0.773011,-1.288608,-0.089129,-1.350904,2.634572,-2.060585,2.478343,3.983764
94.000000,0.002000,1.654935,-0.173399,1.176077,-1.605641,-0.110431,0.017070,-3.038638,0.370572,-2.169127
95.000000,0.002000,-0.612756,1.269868,0.062305,0.588381,-1.520097,-0.635315,2.391674,-4.597551,0.343897
96.000000,0.002000,1.153777,-0.674389,0.531547,0.738016,1.455117,-2.164400,-4.218533,1.939201,-2.339693
97.000000,0.002000,0.616863,1.151533,-1.597671,-0.430882,-0.882821,-1.880780,-1.012002,-1.954240,2.766907
98.000000,0.002000,-0.334259,1.992616,-0.397377,0.475808,-1.411242,1.842610,0.541646,-3.620043,0.737973
99.000000,0.002000,0.207654,1.009656,0.008868,0.774277,-1.547176,-0.091917,1.604969,-2.972594,-4.371539
100.000000,0.002000,-0.039512,0.041010,0.030302,-1.800550,1.355883,-1.170215,-0.406987,-0.579888,-1.756460
101.000000,0.002000,-1.340999,1.031063,-0.508388,0.498382,-2.093252,-0.792864,3.494249,-2.696765,1.336141
102.000000,0.002000,-0.437739,0.467921,-0.055455,1.262029,-1.073205,1.405637,4.498468,-3.346828,-1.472574
103.000000,0.002000,-1.269937,-1.036783,0.205124,0.805131,1.350685,-1.364583,3.748291,3.146584,-0.540747
104.000000,0.002000,-0.228637,0.187972,0.456847,-0.004465,0.731756,-2.502347,1.855793,-1.341468,-5.306782
105.000000,0.002000,-0.777376,-0.477663,-0.195130,1.683165,1.218979,0.742729,4.579828,3.826146,1.503584
106.000000,0.002000,-0.017979,-0.039752,0.942649,-0.406637,0.098791,2.236835,-0.020956,0.220641,-6.364879
107.000000,0.002000,0.239445,-0.322926,-0.741874,0.647143,-0.251523,0.799781,-1.254065,1.934971,5.712197
108.000000,0.002000,-0.332905,0.474437,-0.543231,1.745433,0.016583,1.682460,2.623401,-3.969676,5.272370
109.000000,0.002000,-0.753902,-0.020329,-0.449240,1.998901,0.835574,-0.269753,6.247701,-0.038736,4.238866
110.000000,0.002000,1.905521,-0.322095,1.773506,-1.302971,1.068767,1.754246,-1.943109,0.361210,-1.833966
111.000000,0.002000,0.585917,-0.895065,0.802997,-0.856641,1.378332,-0.463430,-2.526751,3.638045,-3.426361
112.000000,0.002000,-1.183882,-1.943269,0.937013,0.231762,2.229412,0.655399,1.397822,2.373869,-1.086979
113.000000,0.002000,-1.582096,-0.357377,-0.589912,1.262857,-1.986736,0.522138,4.136211,0.842897,1.922264
114.000000,0.002000,1.907251,1.125580,0.402794,0.008906,-0.200559,2.126556,-3.048416,-1.775449,-0.634876
115.000000,0.002000,-0.922866,-1.447392,-0.972213,-0.173356,0.028984,-0.964625,1.832218,3.095634,1.907031
116.000000,0.002000,-0.838723,-1.027073,0.605440,-0.807569,-0.883205,0.695676,2.994077,3.882937,-2.374269
117.000000,0.002000,0.607426,0.282990,-0.613095,-0.483647,-0.533070,1.089148,-3.398493,-3.112099,4.421423
118.000000,0.002000,-1.125801,1.267176,-0.932021,1.245059,-0.772716,-0.309881,1.983815,-2.579885,2.291953
119.000000,0.002000,-0.287762,-0.345137,-1.724262,1.106428,0.630043,1.094956,0.821785,1.446571,5.053801
120.000000,0.002000,-0.719300,-0.305654,0.115877,0.335689,0.837755,-1.589059,6.088616,3.767373,-1.026149
121.000000,0.002000,0.543902,-0.119560,0.720952,-0.932529,-0.229202,-1.465867,-3.982777,0.969698,-6.168679
122.000000,0.002000,-0.085530,0.433010,-0.200284,-1.161235,0.605179,-0.719932,0.510398,-5.365297,1.567504
123.000000,0.002000,0.242341,-0.184119,0.277286,0.901097,0.870252,1.056287,-2.638200,2.265987,-3.930623
124.000000,0.002000,-1.246916,0.426512,-0.534802,0.434890,0.082333,1.595303,4.966946,-1.820919,1.831309
125.000000,0.002000,0.729547,-0.610529,-0.355455,-1.111660,-0.387910,-0.816226,-3.870553,4.640683,2.370456
126.000000,0.002000,0.270451,0.399534,-1.236479,-0.743883,-0.893559,1.719940,-1.892718,-1.016220,6.699462
127.000000,0.002000,-0.442814,-0.096504,-1.504494,-0.387720,-2.588749,1.297142,1.670024,-0.356575,4.789355
128.000000,0.002000,0.559693,-1.818773,-2.054860,0.333449,1.472014,-2.253676,-0.501198,1.562282,1.769053
129.000000,0.002000,0.039065,-1.339875,-0.609767,-0.032117,1.625130,1.342095,0.041487,4.965941,2.155605
130.000000,0.002000,-1.615956,1.041526,0.981410,0.154137,-1.923550,1.805344,2.626401,-1.865935,-1.771097
131.000000,0.002000,0.615489,0.421387,0.110658,-0.774963,1.217119,1.265685,-4.699073,-4.315512,-1.215787
132.000000,0.002000,-1.860804,-0.754526,-0.756147,0.031058,-0.937169,0.281114,3.355197,1.272701,1.439049
133.000000,0.002000,0.513132,1.435055,1.153050,-1.119345,0.211093,-1.266122,-1.125158,-3.245728,-2.436783
134.000000,0.002000,0.336118,0.340545,-0.810382,-1.757837,2.253387,1.787796,-2.368659,-2.721531,6.311104
135.000000,0.002000,0.162847,0.551274,-1.190023,-1.682454,0.156789,2.339891,-0.536599,-2.433815,5.216623
136.000000,0.002000,-0.133394,0.594042,0.487480,-1.249353,-1.462061,0.477808,0.947249,-5.058331,-4.812589
137.000000,0.002000,0.179252,-0.683626,-1.278036,0.846961,0.706284,1.282789,-0.640735,2.235170,5.115319
138.000000,0.002000,0.068705,-0.207096,-1.053841,-2.165458,0.399732,-1.199130,2.601760,-4.052046,3.957162
139.000000,0.002000,1.645623,0.162829,0.385301,-1.042473,-1.370591,-0.150993,-4.571189,-0.235335,-1.292173
140.000000,0.002000,1.015320,0.945164,1.148423,1.895030,-1.886800,-1.976193,-2.104453,-2.173714,-3.184020
141.000000,0.002000,1.310215,0.588790,-1.778697,0.605996,-0.128347,1.292879,-1.880544,-0.799424,2.474484
142.000000,0.002000,-0.229605,0.394041,0.148744,-0.658697,0.942815,-0.192155,2.953621,-3.471826,-0.923298
143.000000,0.002000,0.790936,-2.580102,-0.336361,-0.538812,0.841349,0.656407,-0.827189,2.378983,0.394561
144.000000,0.002000,-0.074079,-0.516714,-1.371493,-0.912151,0.151595,1.034872,-0.245000,1.568241,4.786420
145.000000,0.002000,0.807570,0.170192,-0.334788,-1.065862,-0.519684,2.101174,-5.983201,-1.204380,2.124047
146.000000,0.002000,0.049159,0.603789,0.387965,-0.862727,-1.605780,0.546813,-0.221279,-5.516193,-3.516392
147.000000,0.002000,0.576631,0.058598,-0.180461,-1.468570,-0.215705,1.038617,-6.558885,-0.403827,2.337641
148.000000,0.002000,-0.535376,0.473691,0.425366,2.440429,1.090819,0.048234,5.380890,-5.094312,-4.429204
149.000000,0.002000,0.500709,-0.783203,0.124752,-1.740010,-1.045996,-1.162803,-4.094070,8.079753,-1.039422
150.000000,0.002000,-0.793511,-0.544839,0.140864,1.237844,1.208881,0.574154,5.291402,3.320439,-0.839084
151.000000,0.002000,-1.312279,0.174818,-0.461215,0.272643,-1.916021,-2.161342,5.083954,-1.066287,1.988124
152.000000,0.002000,0.314702,0.687892,2.429005,-0.024462,0.728239,0.416500,-0.279622,-0.723502,-3.030776
153.000000,0.002000,-0.214481,-2.021937,0.879211,0.708442,1.055353,1.511829,0.437298,3.215161,-1.280964
154.000000,0.002000,-0.555853,-0.725515,-0.898612,-0.901373,0.014283,1.006822,3.037077,3.123741,4.298543
155.000000,0.002000,-0.171643,-0.468022,-0.158519,1.045305,-1.138528,1.376555,1.679760,6.269626,1.035203
156.000000,0.002000,1.852751,-0.418436,-1.382863,-1.877972,1.492869,-1.187079,-2.488907,0.562927,1.882420
157.000000,0.002000,-2.464669,-0.092843,-0.927659,-0.002427,-0.869911,2.955283,2.519773,0.076402,1.002867
158.000000,0.002000,-0.236285,-0.684380,-0.215169,1.241384,-0.275353,1.711704,2.948034,7.569423,1.611312
159.000000,0.002000,2.484031,1.176805,1.593371,1.524590,0.284915,0.450428,-1.491921,-0.720549,-0.977668
160.000000,0.002000,-1.011637,0.652780,0.768082,0.280865,-1.668207,0.242474,4.105791,-2.487208,-2.995621
161.000000,0.002000,1.296443,0.536136,-0.950201,0.685325,-1.606547,0.411355,-3.552299,-1.507100,2.869034
162.000000,0.002000,-0.010668,0.110855,-2.225731,1.038214,-1.981257,1.664908,-0.124498,-0.308373,3.403742
163.000000,0.002000,0.808176,0.810732,0.064704,-2.602365,0.054520,0.283756,-4.879868,-4.246172,-0.318213
164.000000,0.002000,-0.235400,-0.954279,-0.383095,-1.054928,1.201091,0.277070,1.222166,5.893057,2.042647
165.000000,0.002000,1.448910,1.947157,2.682679,0.747128,1.462011,-0.285405,-0.599795,-0.809039,-1.117601
166.000000,0.002000,-0.041868,-0.129790,-0.152304,0.141458,1.751900,1.355692,-0.299080,2.541030,1.600811
167.000000,0.002000,-1.775215,0.089470,-0.170472,-0.965965,0.441630,-1.410747,4.446997,-0.200208,0.527306
168.000000,0.002000,-0.260226,0.148228,-0.919226,-0.246394,-2.896905,-0.887684,1.610290,-1.914123,6.733797
169.000000,0.002000,-0.872730,-1.296045,-1.103450,-0.972900,-1.296441,1.892890,1.596624,2.871647,2.502007
170.000000,0.002000,-1.507347,-1.576814,1.802076,0.472545,-0.710373,0.916743,1.277878,1.350638,-1.551033
171.000000,0.002000,0.761408,1.347387,-1.766672,-0.551282,-0.483516,-0.604093,-1.065226,-1.848315,2.489941
172.000000,0.002000,-0.771377,-0.571396,-0.202478,3.875012,0.649467,-0.800255,5.021598,4.352124,1.203397
173.000000,0.002000,0.163711,0.932912,-0.255796,-1.094229,-1.364569,-1.211891,-0.555720,-6.585682,2.199617
174.000000,0.002000,1.193676,-0.277542,-1.092157,-2.075159,0.002875,0.106748,-3.662525,0.895179,3.522477
175.000000,0.002000,-1.518120,-0.443095,0.297033,1.291101,1.462865,-0.072252,4.687573,2.034615,-2.390313
176.000000,0.002000,-0.194293,1.084262,1.415319,1.926904,-0.065903,-0.651831,0.129687,-2.460596,-3.646910
177.000000,0.002000,-1.966689,0.430300,-1.998505,1.298074,-1.159141,0.900038,1.612978,-0.317905,1.709504
178.000000,0.002000,1.275175,0.500641,0.085874,1.412553,-2.399615,0.018763,-5.071843,-2.065077,-0.329523
179.000000,0.002000,-0.832028,-0.674792,-0.073927,1.926092,0.331475,0.525896,4.223100,4.170336,0.182333
180.000000,0.002000,-0.358892,-0.450263,0.026938,0.076387,0.050677,0.234240,4.108417,5.777633,0.700821
181.000000,0.002000,0.485718,-1.578929,-0.091591,0.423772,-0.025141,0.444778,-1.445380,4.688784,0.210571
182.000000,0.002000,0.830911,0.369196,0.016988,-2.712032,1.740403,1.264130,-6.936884,-2.336649,1.089769
183.000000,0.002000,0.896861,-2.139437,1.123322,-0.621344,1.474259,-0.358162,-0.875601,2.315414,-1.228861
184.000000,0.002000,-0.217684,-0.328895,0.094164,1.538358,-0.910770,-0.269958,1.875679,3.647414,-1.782452
185.000000,0.002000,0.100949,-0.578502,-0.101261,-2.606518,-0.074200,1.723762,-1.502543,6.062277,1.027305
186.000000,0.002000,1.566111,-1.459420,-0.779884,0.288217,2.711744,-1.866448,-2.305764,2.119317,1.073523
187.000000,0.002000,-1.467285,-0.765018,1.467914,0.089999,0.207301,-1.811068,2.304175,1.310110,-2.363073
188.000000,0.002000,-0.541378,0.081526,-1.697311,-1.014923,-0.344581,1.000551,1.440468,-0.185253,3.854012
189.000000,0.002000,-0.807751,0.399061,-0.027308,0.747931,0.168589,-1.075199,5.467009,-1.588913,0.470049
190.000000,0.002000,0.424392,0.166681,0.552967,-1.111169,0.337513,-0.593227,-3.851729,-1.027467,-5.575124
191.000000,0.002000,0.131291,-1.421834,0.070067,-0.956724,1.941666,0.037539,-0.685811,5.419786,-0.369891
192.000000,0.002000,0.751807,0.466879,-0.372945,-0.833734,-0.889300,0.356941,-5.165091,-3.297206,2.446281
193.000000,0.002000,-0.607808,-0.737883,0.567489,1.116195,1.722976,1.421791,3.967344,3.269324,-3.878403
194.000000,0.002000,0.851213,-1.890542,-0.922250,-0.972864,0.685896,-0.429781,-1.296987,2.782102,1.380396
195.000000,0.002000,-0.427153,-0.002327,0.114216,2.676902,-2.214973,1.853065,6.937740,0.114034,-0.916651
196.000000,0.002000,-0.786257,-0.175699,0.351465,0.115226,0.391049,-0.719227,6.446248,1.612429,-1.692632
197.000000,0.002000,-0.396152,-3.297427,0.740543,0.030549,-0.280756,0.418476,0.189523,1.655939,-0.376734
198.000000,0.002000,0.013729,0.565665,-0.347549,-1.278057,1.431641,2.691604,-0.927630,-5.816781,2.987278
199.000000,0.002000,0.140608,-0.650978,-0.339798,-0.813264,-2.134222,0.846631,-1.576069,5.916166,3.070956
200.000000,0.002000,-0.383428,-1.422429,-0.696261,-0.206800,-0.357606,-0.961429,1.160661,4.522040,1.797124
201.000000,0.002000,-2.080934,0.220670,-0.398748,-0.614876,-0.595418,1.582273,3.608399,-0.346102,0.720229
202.000000,0.002000,-0.049807,-1.119870,0.075631,-0.779599,1.856336,1.729194,0.437090,6.474302,-0.633720
203.000000,0.002000,-0.153658,-1.176231,-0.379392,0.053104,2.221838,-1.047120,0.616372,5.587313,2.006793
204.000000,0.002000,-0.511305,-1.762763,-1.406963,-0.177003,0.444378,0.134717,0.756606,2.535992,2.077060
205.000000,0.002000,0.377731,0.097671,0.465461,-1.265077,-2.467042,0.988763,-3.713209,-0.350984,-5.134643
206.000000,0.002000,0.534527,0.400192,-0.109830,-0.549762,-0.084032,-1.107293,-5.216244,-4.196577,1.666989
207.000000,0.002000,1.342142,-1.124237,0.162312,-0.414861,1.509458,-1.439580,-3.091182,2.975625,-0.489191
208.000000,0.002000,0.336133,-0.183282,0.478554,1.576490,0.445378,1.411152,-3.877747,2.697670,-4.694452
209.000000,0.002000,0.076855,-1.162962,0.323544,1.194478,1.258612,0.069078,-1.033896,5.959442,-1.926073
210.000000,0.002000,1.696948,0.230497,0.029654,-0.855175,0.684548,0.060502,-5.072307,-0.359958,-0.316023
211.000000,0.002000,-0.360421,-0.333443,0.524799,1.469548,-0.177967,-0.656867,2.779275,1.707501,-5.567355
212.000000,0.002000,-0.621397,-0.357632,0.357724,0.139682,0.719746,-0.704024,5.650312,3.266315,-2.566520
213.000000,0.002000,-0.404063,-0.082362,0.022028,2.112736,-0.893308,-2.277166,5.041303,1.321399,0.591347
214.000000,0.002000,0.371126,-0.668908,1.108034,-2.906753,-1.111221,-1.426144,-1.674687,2.720119,-4.841432
215.000000,0.002000,0.637809,0.071538,-0.777698,-1.566622,2.882477,1.904466,-3.842701,0.021617,4.847523
216.000000,0.002000,-0.335476,0.153199,-0.171069,0.374579,-2.789775,0.088851,5.352726,-2.880773,2.295638
217.000000,0.002000,-0.453444,0.941164,0.819595,0.724207,-2.370823,0.847824,1.923803,-4.047975,-3.576059
218.000000,0.002000,-2.620131,-0.089552,0.128493,-0.181847,-1.027884,-1.048280,2.803886,0.144372,-0.194957
219.000000,0.002000,-0.528592,0.521406,0.030923,-1.409054,-0.520734,0.331742,5.101602,-4.863319,-0.311708
220.000000,0.002000,-1.571910,-0.190747,-0.647822,-0.007063,0.611239,1.142090,3.810787,-3.498909,1.473139
221.000000,0.002000,-0.736375,-1.197260,0.695028,1.011712,0.857568,0.236978,2.558689,3.946504,-2.408624
222.000000,0.002000,-0.551403,-0.784040,-0.464465,-1.188414,-0.088999,1.038597,3.964961,4.852700,2.073520
223.000000,0.002000,0.060027,0.942857,-1.684312,0.182550,-0.706529,1.446128,-1.459346,-2.517724,3.375025
224.000000,0.002000,0.313679,0.021213,-1.636076,-0.312811,1.452764,1.458929,-0.918671,-0.154226,4.943248
225.000000,0.002000,-1.033272,-0.551124,-0.196234,3.155310,1.291052,-0.952273,5.347144,2.713981,1.098480
226.000000,0.002000,0.656629,-1.643142,0.168691,0.328610,-1.020338,-2.355842,-2.137832,4.045343,-0.528918
227.000000,0.002000,0.931035,0.061265,-0.591639,-2.233714,-0.971921,0.576864,-6.190174,0.279757,2.602069
228.000000,0.002000,0.862650,1.442527,0.448636,-1.123542,1.049290,-1.389945,-2.142405,-4.080377,-1.233651
229.000000,0.002000,-0.910002,-2.630366,2.072744,-0.562933,0.754826,-0.300881,0.407653,1.249623,-0.991477
230.000000,0.002000,-1.582904,0.144132,1.570721,0.462155,0.419135,-2.479091,2.462430,-0.273021,-2.473023
231.000000,0.002000,1.411306,1.247578,-1.187073,2.317888,0.366081,1.289887,-1.381629,-2.131680,1.640985
232.000000,0.002000,-1.464999,-0.674538,1.029128,1.375210,-0.087159,-0.542678,3.118528,1.514739,-2.180435
233.000000,0.002000,-0.324477,-0.982386,-0.659866,0.383881,0.455825,-1.791767,1.645449,5.032941,2.804383
234.000000,0.002000,0.877243,-1.000996,-1.210960,-0.931314,1.664496,0.552365,-1.181307,2.806855,3.620415
235.000000,0.002000,-1.612492,0.785113,0.528497,-1.363112,-1.250813,0.514485,3.683737,-1.855217,-1.403969
236.000000,0.002000,1.471291,0.372006,0.084484,-2.496899,-1.657308,0.285764,-5.531087,-0.987398,-0.114753
237.000000,0.002000,0.982262,0.141828,-0.476449,-1.685934,-0.270051,1.039208,-6.055514,-0.667210,2.798927
238.000000,0.002000,1.056922,-0.625402,-0.049504,0.119226,0.848747,0.718247,-2.344303,7.077332,-0.654736
239.000000,0.002000,1.061225,0.214798,-0.784921,-1.527539,0.687928,0.662874,-4.612345,-0.927967,3.981469
240.000000,0.002000,0.152460,1.502100,-0.984837,1.585475,0.439649,-0.614917,-0.205946,-3.671333,2.384450
241.000000,0.002000,-0.197739,0.008367,0.144829,0.842679,1.478136,-0.470849,2.397702,-0.578538,-1.340441
242.000000,0.002000,-0.555159,-1.204345,-0.660075,-0.123724,1.746529,0.975294,2.332135,4.553439,2.148437
243.000000,0.002000,-0.673055,0.884344,0.491207,1.278226,-1.598758,-1.200289,4.097280,-4.857508,-1.997487
244.000000,0.002000,0.186756,-0.790138,-0.411162,-1.405765,0.139244,1.584312,-2.068081,5.704902,2.947167
245.000000,0.002000,-0.735531,-1.325235,2.331002,-0.462999,-0.464604,-0.838122,0.627059,1.172472,-2.068250
246.000000,0.002000,-2.591088,-0.054750,-0.713858,-0.373819,-1.580448,1.608529,2.544766,0.044713,0.727374
247.000000,0.002000,-0.390378,-1.122432,0.044952,-0.459709,0.631802,3.299173,2.009773,6.017621,-0.161480
248.000000,0.002000,-1.509626,1.160842,-0.077577,-0.374262,-2.023587,0.179701,3.287787,-2.436018,0.075568
249.000000,0.002000,-0.815941,-0.331257,-0.474122,0.845068,-2.189885,-0.765726,5.298732,1.789899,3.272731
250.000000,0.002000,0.573530,-1.306831,0.531712,-0.766620,2.013066,0.320231,-2.508214,4.166507,-2.220100
251.000000,0.002000,0.436907,-0.660670,0.744751,-1.270563,3.216799,0.267701,-2.795225,4.030012,-4.017778
252.000000,0.002000,1.283023,0.106377,0.549193,-1.906154,0.295427,-1.049693,-5.406238,-0.043349,-2.166329
253.000000,0.002000,0.942286,-0.503852,-0.026222,-0.256449,1.162288,-0.168861,-6.577577,3.764958,-0.501514
254.000000,0.002000,-1.543898,-0.240487,0.273712,0.908740,0.695816,-0.126502,4.813952,0.816269,-0.889735
255.000000,0.002000,0.169591,-0.333594,0.138325,-1.870856,-0.497019,-2.002816,-1.884210,3.330121,-2.634782
256.000000,0.002000,-0.418075,0.215850,0.190080,2.586052,0.582261,0.214664,3.717357,-4.127063,-1.895477
257.000000,0.002000,2.540324,-0.147109,-0.562111,1.126927,0.243627,-0.034730,-2.675193,0.225626,0.487876
258.000000,0.002000,0.616795,-0.360663,0.129297,0.917788,2.174026,-0.501056,-3.884274,3.883073,-2.429603
259.000000,0.002000,0.439166,-1.058434,0.384731,1.843502,2.805037,0.879618,-2.150483,5.348296,-1.857769
260.000000,0.002000,0.754584,-2.525328,-0.149633,2.572324,-1.611629,-0.158290,-0.894727,2.648688,0.321973
261.000000,0.002000,1.522093,-0.504454,0.041434,-0.837355,-2.442116,-1.611648,-5.926594,2.974156,-0.305315
262.000000,0.002000,-0.768295,0.550991,0.441202,2.334655,-0.315983,0.350568,4.411262,-3.200549,-3.334064
263.000000,0.002000,0.408289,0.234020,-0.707169,-0.691422,-0.844700,2.517923,-3.173061,-1.777514,4.686435
264.000000,0.002000,-0.055019,-0.126445,-0.197979,0.291301,2.253345,-0.036571,0.715146,1.185637,2.133546
265.000000,0.002000,-0.478564,1.571133,0.150398,1.381369,-0.163229,2.619211,1.424074,-4.797309,-0.575475
266.000000,0.002000,-1.052868,0.511740,-1.155724,0.224041,0.859645,0.438973,2.993753,-1.404312,3.492168
267.000000,0.002000,0.593472,-0.625826,0.835656,2.280615,1.031267,-2.250396,-3.276206,3.023544,-4.191658
268.000000,0.002000,0.703503,0.249484,-0.820046,-0.937349,0.612388,-0.424909,-4.710807,-1.851791,4.931025
269.000000,0.002000,1.059627,0.626907,0.365680,-0.512804,0.081986,-0.685867,-4.669521,-2.614920,-1.918841
270.000000,0.002000,-0.265860,-1.242572,0.134768,-0.521739,2.065680,0.571142,-0.629750,5.728587,0.746078
271.000000,0.002000,-0.803291,0.228590,1.181064,-0.166325,-1.299092,-0.402528,2.906679,-0.781063,-4.430555
272.000000,0.002000,-0.165001,-0.034739,1.670014,1.381272,-1.310487,-1.020715,-0.182692,0.030035,-4.979083
273.000000,0.002000,-0.134973,0.319130,-0.229801,1.689840,-4.232417,2.099363,1.828815,-3.711602,2.720328
274.000000,0.002000,-0.111300,0.130324,0.099820,-0.168363,0.193695,0.109427,3.821687,-3.895399,2.229660
275.000000,0.002000,-1.150000,-0.325971,-0.327672,0.098645,1.021926,1.219816,5.422127,1.650596,1.944951
276.000000,0.002000,0.183887,0.013400,2.133500,-0.446935,-0.821520,-0.899726,-0.452518,-0.076300,-3.591304
277.000000,0.002000,1.050596,-0.725942,0.888213,-1.476802,-0.136771,0.967237,-3.443126,2.256491,-2.821357
278.000000,0.002000,0.243072,0.439448,-0.343658,-2.676334,0.500233,-0.204292,-3.986598,-5.495588,5.908924
279.000000,0.002000,-0.161797,1.221235,-0.890729,-0.454655,0.168722,0.519629,0.509076,-4.075075,3.109123
280.000000,0.002000,0.317745,0.657039,0.000202,1.402673,-0.243221,-0.821806,-1.796859,-5.372489,0.505080
281.000000,0.002000,-0.788255,-0.443131,0.817747,-2.123718,0.203154,-1.211145,3.790851,2.555209,-4.175451
282.000000,0.002000,1.931691,0.837176,-0.097940,-1.161456,0.854024,0.278129,-3.465809,-1.532972,0.173599
283.000000,0.002000,0.802581,0.085831,-0.468193,-0.745031,1.706837,1.282727,-5.909053,-0.031050,3.185508
284.000000,0.002000,0.111633,-2.577655,-1.308718,0.203430,0.429139,-0.197749,0.691108,2.236050,0.814105
285.000000,0.002000,-1.548333,-1.399223,-1.198699,-2.629498,0.372636,-0.069624,2.076002,1.898863,1.397332
286.000000,0.002000,-0.739840,-0.906535,-0.184369,-0.236362,2.726601,0.755303,3.886725,4.920518,1.188679
287.000000,0.002000,-0.370589,0.027408,0.791922,0.873000,0.029050,-1.948014,2.540546,-0.040865,-5.416547
288.000000,0.002000,0.219568,0.621222,0.651061,-0.255478,0.839236,0.529612,-1.327425,-3.853073,-5.321600
289.000000,0.002000,0.436284,0.051169,-0.630026,-0.080571,3.000516,-0.692139,-4.834814,-0.338889,4.713004
290.000000,0.002000,0.849348,-0.786760,0.604199,0.847699,2.106408,-1.122510,-3.711741,3.489657,-2.711171
291.000000,0.002000,0.615913,-0.774334,-0.247694,-1.927447,0.411556,0.174503,-4.306205,5.275273,1.428660
292.000000,0.002000,-1.043454,0.153531,-0.687709,0.249268,-1.616080,1.552207,4.578540,-0.585155,3.020075
293.000000,0.002000,-0.173861,-0.870733,0.031520,0.374092,1.036339,-0.098408,1.592565,7.015428,0.010636
294.000000,0.002000,-1.414956,0.821416,-0.600898,1.557039,-1.669265,1.168545,3.899336,-2.362823,1.610924
295.000000,0.002000,0.426405,0.400018,-0.534520,0.413033,1.281116,1.389176,-3.582698,-3.001647,5.046995
296.000000,0.002000,-0.761241,0.928081,-0.538222,0.891920,-0.747300,0.392885,3.045208,-4.591993,2.566579
297.000000,0.002000,-0.123004,-0.617539,-1.059356,-1.021555,1.079887,-0.126874,0.506235,2.775174,5.106646
298.000000,0.002000,0.042902,0.421898,0.625981,-1.187194,-2.218049,1.366171,-0.371241,-3.326947,-6.195927
299.000000,0.002000,-1.799840,1.942649,-1.516631,-0.683990,-0.429610,-1.448671,1.208814,-1.308934,1.093348
300.000000,0.002000,-1.385596,2.784259,-0.320677,0.578267,0.120771,0.253144,0.892808,-1.783082,0.202620
301.000000,0.002000,-1.101006,-0.337965,0.406267,1.809602,1.232247,-0.205523,5.596160,1.610482,-2.312764
302.000000,0.002000,0.188534,-0.307086,2.015126,-0.098987,1.547364,-0.187896,-0.476522,1.020699,-3.635975
303.000000,0.002000,-0.986488,-1.703611,0.988649,-0.845665,-0.748575,-0.283727,1.464073,2.673682,-1.429720
304.000000,0.002000,1.039685,-1.052496,-1.670456,-1.071865,-0.318561,-0.163602,-1.596199,1.551314,2.786477
305.000000,0.002000,2.019716,-2.246808,-1.228750,2.236031,-0.200315,0.152633,-1.151425,1.258190,0.658252
306.000000,0.002000,0.774643,0.478573,-0.158625,-1.429447,0.909349,0.439108,-3.981025,-2.247026,1.648014
307.000000,0.002000,0.178620,-1.042344,-1.463226,-0.555228,-1.856935,0.422232,-0.656713,2.855550,3.766731
308.000000,0.002000,1.138313,1.473745,1.000858,-0.822266,-0.174419,1.695685,-2.075191,-2.621402,-1.759517
309.000000,0.002000,0.457236,2.313976,-0.421512,0.967546,-0.646464,-0.263266,-0.522623,-2.886962,0.572843
310.000000,0.002000,-0.191282,0.128696,0.774834,0.301579,-0.748808,-2.795941,0.594840,-1.156031,-6.845533
311.000000,0.002000,1.432150,-0.134224,0.774881,-1.216374,0.400782,0.810296,-4.348946,0.443044,-2.300971
312.000000,0.002000,-0.827202,-0.281244,-0.356055,2.290745,0.259056,1.743891,5.985862,-0.120389,3.176678
313.000000,0.002000,-0.707510,1.549413,-0.189813,1.098176,-1.067401,1.696683,1.956376,-4.188319,0.857714
314.000000,0.002000,0.136058,0.244699,0.712830,1.684411,-0.417531,-2.413202,-0.940880,-1.563142,-5.656573
315.000000,0.002000,0.748255,2.074924,-0.725256,0.505962,-2.276760,-1.491661,-1.219930,-3.138548,1.097073
316.000000,0.002000,0.574064,0.473438,1.095877,0.359876,0.198425,-1.746437,-3.204608,-1.607601,-4.964180
317.000000,0.002000,0.260262,-0.535196,-0.862732,-0.991791,-0.715183,1.174397,-1.460808,3.174491,5.062965
318.000000,0.002000,0.386958,1.316727,-0.212245,0.110539,-1.197257,0.742056,-1.463237,-5.720970,1.277678
319.000000,0.002000,0.070788,0.254065,0.487517,-1.398664,-0.162538,-1.934968,-1.081441,-0.836150,-5.425705
320.000000,0.002000,-1.916802,2.174660,-1.190081,-2.561360,-0.765599,0.398183,1.224277,-1.412818,0.739408
321.000000,0.002000,-0.525457,0.878299,0.514005,-0.073236,-1.011465,0.093699,2.597726,-6.594955,-1.908823
322.000000,0.002000,0.149472,-0.417385,-0.184655,-2.151547,0.867795,-0.102764,-0.669664,5.959771,1.549867
323.000000,0.002000,-0.252162,1.943606,0.957762,-0.594166,0.261633,0.353072,0.449765,-3.175486,-1.591881
324.000000,0.002000,0.843606,-0.474682,-0.063513,-0.707193,1.081364,-2.886729,-5.025764,3.237563,-0.217293
325.000000,0.002000,0.533030,1.289236,1.798700,0.664196,-0.603102,-1.055174,-0.773505,-1.931427,-2.747389
326.000000,0.002000,-0.644515,-0.399001,-0.312306,-0.153247,0.517295,1.900240,5.399777,3.516853,2.301724
327.000000,0.002000,0.546938,-0.037883,0.648948,1.267005,1.119429,-0.139528,-4.576453,0.325072,-5.731643
328.000000,0.002000,-0.681264,-0.250556,1.163292,-0.985874,0.480180,-0.648686,2.344429,1.119419,-4.893419
329.000000,0.002000,-1.093057,0.588555,-0.048890,0.541289,-0.074593,1.101338,5.417344,-3.297665,0.033320
330.000000,0.002000,0.321673,0.168829,-0.117163,-1.692746,-3.710783,0.816842,-4.847100,-1.865116,2.700535
331.000000,0.002000,0.314033,-0.005260,-0.721880,-0.656638,-0.552635,1.110744,-2.946707,0.273970,6.542396
332.000000,0.002000,-0.132252,0.567632,0.138592,-0.928788,0.028960,-0.984441,0.525956,-6.936087,-1.795255
333.000000,0.002000,-0.342576,0.351956,-0.559977,0.052492,0.291501,2.341637,3.119242,-2.824382,5.465003
334.000000,0.002000,-1.035210,0.090308,1.310473,-1.129777,-1.337411,0.292969,2.816189,-0.254824,-3.878214
335.000000,0.002000,0.188365,0.311587,0.431279,1.486138,0.274529,-0.085458,0.042293,-0.974469,-4.556613
336.000000,0.002000,0.333937,0.532545,-1.802753,0.201644,-0.232891,0.772042,-0.747836,-0.838510,4.074074
337.000000,0.002000,-0.239719,0.204217,-0.476294,-0.226717,-0.361351,2.238811,2.299340,-2.022849,5.969127
338.000000,0.002000,1.254484,0.048292,1.484756,-1.563874,-0.298697,-0.743592,-3.391770,-0.421695,-3.294006
339.000000,0.002000,-0.447044,-0.715836,-0.541126,1.488095,1.259531,-1.659542,2.208987,4.380846,2.395104
340.000000,0.002000,-1.184686,-0.195579,-0.107183,2.200178,-0.976339,-0.485809,6.499911,1.217034,0.132485
341.000000,0.002000,1.165829,0.440590,-0.321493,-0.479308,-1.070989,0.530797,-4.713707,-1.525146,1.248731
342.000000,0.002000,-1.570419,1.585442,-0.340467,-0.757115,-0.804426,1.284855,2.278736,-2.375281,0.493886
343.000000,0.002000,-1.170917,-1.631984,1.122111,0.048695,-0.924773,-0.326106,1.769624,2.181477,-1.458201
344.000000,0.002000,-0.005426,-1.058459,0.241802,1.575398,0.290468,-0.061469,-0.542017,6.781150,-1.984867
345.000000,0.002000,0.301650,-0.339804,0.762873,1.077066,1.398782,-0.856202,-1.797304,3.616028,-5.196948
346.000000,0.002000,0.358804,0.546066,0.714645,-2.281763,-1.699815,-0.871874,-2.136255,-3.562890,-5.325342
347.000000,0.002000,0.981167,-1.279795,1.326427,1.189404,1.662677,-1.307045,-1.853846,2.145216,-2.345530
348.000000,0.002000,0.012802,1.169755,1.428460,-0.843542,0.881548,0.076452,-0.170997,-2.977579,-3.451316
349.000000,0.002000,0.911621,0.071330,0.246690,-2.247012,-1.076230,-0.869872,-5.764187,-0.618617,-1.748485
350.000000,0.002000,0.230549,0.273210,-0.356484,2.086008,0.311488,2.144271,-2.963654,-2.225374,5.202032
351.000000,0.002000,-0.894990,-0.427271,0.778264,0.263386,1.626722,1.845499,4.396652,2.235723,-3.393152
352.000000,0.002000,0.902096,3.032617,0.056331,-0.482984,-0.702869,-0.347968,-0.601592,-1.877359,-0.048499
353.000000,0.002000,-1.259275,2.191750,-0.689556,0.576571,1.824370,-0.825075,1.284931,-2.270301,0.721158
354.000000,0.002000,-1.187445,0.046717,-0.745600,-0.608894,-0.486316,1.854232,4.593642,-0.036746,2.992939
355.000000,0.002000,0.101069,0.695021,-0.298233,-0.498442,1.314701,-0.591947,-0.684510,-5.656766,3.540184
356.000000,0.002000,-0.130002,0.671686,0.552263,-1.265828,0.829694,0.731789,-0.185306,-3.388937,-4.276727
357.000000,0.002000,0.260842,0.011300,-0.459321,-0.470624,-1.220097,2.310557,-2.846737,0.032627,5.520159
358.000000,0.002000,-1.095440,0.052812,-1.097411,1.470879,0.213588,1.474391,3.497381,-0.213093,3.660990
359.000000,0.002000,0.299184,0.276115,1.634627,0.319898,-1.973925,1.749849,-1.125481,-0.688482,-4.504156
360.000000,0.002000,-0.507848,-0.482914,0.253248,2.109520,1.669597,-0.382046,4.829617,4.292943,-2.188809
361.000000,0.002000,-0.244198,0.153010,0.727057,0.707235,1.209630,-0.618387,1.306040,-1.376080,-6.613616
362.000000,0.002000,-0.938052,0.186642,-0.921575,0.866493,1.452642,0.342781,3.424921,-1.000109,4.587551
363.000000,0.002000,-0.918428,-0.513715,0.656146,1.072156,1.302015,-0.569791,4.582192,2.282141,-3.387437
364.000000,0.002000,0.166121,-0.839421,-0.256157,0.057952,1.061534,0.150828,-2.218377,7.200299,1.518744
365.000000,0.002000,-1.478780,-0.034924,2.518720,0.650952,1.793845,0.526290,1.167562,0.043714,-1.987598
366.000000,0.002000,0.420300,-0.237982,0.177729,0.749545,-2.436092,0.440144,-5.032283,3.259059,-1.815292
367.000000,0.002000,-0.121171,-0.067463,-0.914174,-1.198355,-2.010933,1.490992,-0.238478,-0.597470,6.696419
368.000000,0.002000,-0.705221,1.440798,-0.426235,-1.453529,-1.093006,1.229163,1.863404,-4.096169,1.258415
369.000000,0.002000,-0.473861,0.098039,0.673428,0.930440,1.075590,0.235431,4.083677,-0.867467,-5.633251
370.000000,0.002000,0.475111,1.105247,-0.085675,-0.552770,-1.350708,-1.531875,-2.761312,-6.188960,1.119704
371.000000,0.002000,-0.384898,0.999515,0.980054,-0.645396,-1.366084,0.096530,1.470533,-3.542846,-3.756607
372.000000,0.002000,-1.686617,2.160723,1.615276,-0.297117,-1.170183,-0.573282,1.018476,-1.319390,-0.976038
373.000000,0.002000,-0.329815,-0.247636,1.089183,-0.225078,-1.452105,-1.638429,0.996807,1.071283,-6.002585
374.000000,0.002000,-0.179054,0.281542,1.300220,0.024468,-1.430675,-0.425937,-0.300418,-0.202383,-5.632414
375.000000,0.002000,-0.800129,-0.540692,0.308045,1.354949,0.547020,-1.961182,5.210638,3.177547,-1.959266
376.000000,0.002000,0.647830,1.231688,-0.031326,-0.075894,-0.079147,0.353001,-2.326777,-5.398050,-0.635056
377.000000,0.002000,0.023100,-1.703209,-1.588167,0.807161,1.243933,-0.710477,0.068011,2.441891,2.166765
378.000000,0.002000,-0.572518,0.694589,0.450954,-1.147711,-1.118768,-0.777499,4.393143,-4.385097,-2.942874
379.000000,0.002000,0.302521,0.424882,0.403893,0.807049,1.480932,0.016167,-2.826559,-3.101000,-3.094789
380.000000,0.002000,-0.518481,0.821669,0.363274,-1.159151,-2.438981,0.232685,3.864118,-5.349064,-2.499613
381.000000,0.002000,-1.634384,-1.459260,1.536749,-0.080300,-0.184285,-0.244961,1.603386,1.435757,-1.476768
382.000000,0.002000,-0.212606,0.202417,0.088784,3.137372,-1.923423,0.877161,1.566384,-3.829822,-0.282048
383.000000,0.002000,-0.133585,-0.053097,0.767754,0.177644,0.364183,-2.293915,-0.050766,1.044034,-6.466869
384.000000,0.002000,-0.279500,0.004646,-0.972531,0.012681,0.050955,2.441281,1.546616,-0.108032,6.734168
385.000000,0.002000,0.539193,0.195458,-0.343442,0.169058,-1.285685,-1.065774,-4.373127,-1.764686,2.991359
386.000000,0.002000,1.093055,0.139336,0.608975,-1.651453,0.199487,0.352207,-4.608520,-0.369960,-3.022516
387.000000,0.002000,1.405344,-1.489288,-0.456786,-1.097896,0.639960,0.169260,-2.398273,2.564201,0.826819
388.000000,0.002000,1.096661,0.536910,0.096881,-1.622353,-1.424779,-1.653716,-5.160775,-2.235587,-0.322687
389.000000,0.002000,0.285392,0.766536,1.105514,-1.690407,0.651806,-2.102118,-1.209713,-2.950807,-4.715404
390.000000,0.002000,-0.239277,0.010083,0.256660,-1.463819,-0.668855,-0.206785,1.899854,-1.009477,-4.546487
391.000000,0.002000,-0.051408,-0.185192,0.949700,-0.719876,2.868159,-0.462087,-0.246289,1.075993,-6.760883
392.000000,0.002000,-0.339438,1.297950,0.077902,-0.327304,-2.273693,0.358703,1.477408,-5.705249,-0.199887
393.000000,0.002000,0.384705,0.652695,-0.588516,-0.458273,0.486991,0.865288,-2.710463,-4.663363,3.887280
394.000000,0.002000,0.839399,1.807272,0.151549,-0.689952,-0.898281,0.400611,-1.532220,-3.665310,-0.083755
395.000000,0.002000,-0.432085,0.119476,-0.621185,0.093275,1.106308,4.145342,3.168076,-1.857857,5.580332
396.000000,0.002000,-0.019069,-0.005189,0.811671,0.334759,-0.669095,-1.686956,-0.121182,-0.506973,-6.781542
397.000000,0.002000,0.665703,0.273512,-0.607740,-1.509424,1.625137,-0.221204,-4.361389,-2.368363,4.032248
398.000000,0.002000,0.975124,0.244390,-0.463937,-1.325672,0.927659,0.542978,-5.646964,-1.547096,2.608787
399.000000,0.002000,0.840216,0.778701,0.006641,-2.177277,-1.323885,0.043180,-5.258613,-3.957119,0.359716
400.000000,0.002000,-0.812235,-1.283832,0.280464,-0.190904,2.553273,-0.958907,2.609208,4.065911,-0.912950
401.000000,0.002000,-1.094583,-1.460777,0.670883,-0.172769,1.771103,-2.582842,2.177407,3.061204,-1.517224
402.000000,0.002000,0.906094,-0.992631,-1.191162,0.079782,0.805914,0.628308,-3.537308,1.918998,2.111721
403.000000,0.002000,0.113168,-0.669921,0.280019,-2.247718,1.217547,-3.163908,-1.613110,6.414610,-3.262346
404.000000,0.002000,0.113213,0.336741,-0.728449,-1.630540,-1.051583,-2.213416,-0.570850,-3.128504,5.362629
405.000000,0.002000,-0.348874,0.324001,-0.184565,-1.086393,-2.048552,1.208149,4.086335,-2.738818,2.412221
406.000000,0.002000,-0.573236,0.179049,0.370736,-1.076637,-1.948991,-1.093950,5.611971,-1.666738,-3.830376
407.000000,0.002000,-0.589249,-0.780479,0.568702,2.230528,-0.035541,0.278034,3.510196,4.766885,-3.785323
408.000000,0.002000,0.255171,1.364854,-0.449556,1.647919,-1.926679,0.160824,-0.700441,-5.265825,1.889996
409.000000,0.002000,-0.466679,0.626432,0.247783,-0.214337,-1.245550,-0.513356,4.804115,-6.057359,-0.869904
410.000000,0.002000,0.258230,-0.312419,0.435086,0.880553,1.753440,-0.440451,-2.418902,3.893160,-5.335925
411.000000,0.002000,0.456898,-0.118660,-0.607128,-2.146235,-1.601650,1.137512,-4.514540,1.128132,4.972553
412.000000,0.002000,1.259388,-0.814993,-1.099823,-1.679666,1.936582,1.590840,-3.153513,1.747671,2.426643
413.000000,0.002000,1.001882,0.783407,-0.456438,-0.690888,0.903644,0.653223,-4.338167,-3.430498,1.821379
414.000000,0.002000,-1.158803,1.294285,-0.398015,0.284803,-3.187946,-1.195838,2.972822,-3.256948,0.961022
415.000000,0.002000,0.409240,0.310702,0.629700,-1.083050,-0.473021,-0.263184,-3.310881,-2.929038,-5.966443
416.000000,0.002000,-0.418549,-0.156595,-0.485077,-2.172967,-2.399350,0.576507,4.422211,1.099281,5.458691
417.000000,0.002000,-0.279055,-1.546974,-0.616634,0.198675,1.282249,0.740700,0.857297,4.531476,1.590337
418.000000,0.002000,-0.438309,0.714520,0.419804,-1.524375,-1.757403,-0.994985,4.427117,-5.029825,-6.399612
419.000000,0.002000,-0.993838,-0.775301,-2.227171,-1.483939,1.395151,1.819014,1.065493,0.879992,2.505087
420.000000,0.002000,1.172980,-0.292045,-0.677509,-0.848783,1.009098,-0.165286,-5.080111,0.989250,2.491237
421.000000,0.002000,0.138052,-0.329969,-0.147919,-0.238044,3.569983,0.739364,-1.388961,3.316730,1.250878
422.000000,0.002000,1.569058,0.917165,0.515917,-1.810955,0.712282,0.238343,-3.597998,-1.997907,-1.133178
423.000000,0.002000,-1.605165,1.973663,-0.957361,0.211210,-1.021804,1.337608,1.465484,-1.881145,0.895792
424.000000,0.002000,1.587255,-2.160887,1.247361,-1.071387,0.170380,-0.573511,-1.196147,1.558854,-0.934302
425.000000,0.002000,1.681027,-1.233036,1.101978,-0.349577,-0.668904,1.441292,-2.169762,1.656579,-1.394336
426.000000,0.002000,0.059127,-1.249017,-0.663569,-1.379030,-0.332202,2.548713,-0.486602,4.746023,2.209921
427.000000,0.002000,-1.161682,0.172334,0.203432,1.321794,-1.198528,0.527899,6.246209,-1.343600,-1.226367
428.000000,0.002000,-0.296767,0.862724,0.498949,0.978680,-1.108834,-0.560555,1.740459,-5.618544,-3.319528
429.000000,0.002000,-0.997246,-0.591474,0.555771,0.125429,2.136933,-0.355062,4.800750,2.898462,-2.456479
430.000000,0.002000,-0.632272,0.112258,1.008300,0.206041,-0.036090,-2.337105,2.931628,-0.699717,-5.362513
431.000000,0.002000,0.320628,-0.221281,0.289889,-1.077538,2.258535,-0.182203,-3.792694,3.176255,-4.441247
432.000000,0.002000,-0.363752,1.181774,-0.783449,1.768658,-1.790149,-0.111761,1.562903,-4.050202,3.238380
433.000000,0.002000,-0.018635,0.072889,0.349969,-0.599505,-0.758266,-0.045444,0.901461,-0.482800,-4.894477
434.000000,0.002000,-2.179017,-1.538252,-0.561617,-0.140361,0.077051,-0.173193,2.030198,1.464090,0.533141
435.000000,0.002000,0.116752,0.333858,-0.321584,-0.790075,0.870559,2.314423,-1.588865,-2.155814,4.781014
436.000000,0.002000,-1.120357,-0.671172,-0.204460,1.443038,-0.224923,0.938126,4.953689,3.342566,1.293782
437.000000,0.002000,-0.093690,-0.654799,0.200794,-1.574334,-0.038073,-1.613254,1.662921,6.058029,-2.908991
438.000000,0.002000,-0.275017,0.001030,-0.339812,1.552590,0.746812,0.748304,3.963990,-1.266118,6.446699
439.000000,0.002000,-0.638336,0.784938,-0.781955,0.875761,-0.177893,0.738583,3.093564,-3.925068,3.796651
440.000000,0.002000,-0.050204,0.142254,-0.592585,1.375074,0.347528,2.745827,0.859954,-1.778671,6.309455
441.000000,0.002000,-0.778367,-0.120355,0.042636,-0.313261,1.926414,1.267888,6.636199,1.064637,0.258042
442.000000,0.002000,-0.318995,-0.544860,-0.122639,-0.269767,1.531468,0.451401,2.756494,4.784038,1.347904
443.000000,0.002000,0.118429,-0.738171,0.956170,-3.363060,-1.360638,-1.282493,-0.769519,3.600740,-4.832897
444.000000,0.002000,0.583373,1.206724,-1.034344,0.333599,0.389456,-0.118538,-1.388172,-3.294713,2.815619
445.000000,0.002000,0.364811,0.152830,-0.568860,0.163703,-0.230794,0.824509,-3.988993,-3.579241,5.049122
446.000000,0.002000,-1.238544,-0.839758,0.843995,-0.560629,2.107103,-2.058518,3.059771,2.466936,-2.144212
447.000000,0.002000,-0.810886,1.512859,-0.625418,0.814441,-0.280803,-0.118847,1.868156,-3.726356,1.489880
448.000000,0.002000,-1.275255,0.439562,-0.071617,-0.111892,-0.855897,1.679505,5.781343,-2.167290,0.361899
449.000000,0.002000,0.498731,-0.561029,0.289094,-0.847864,0.109900,-1.000216,-3.994458,4.972120,-2.357506
450.000000,0.002000,-0.879153,0.477528,-0.048513,1.167384,-1.470678,-1.482714,5.830913,-3.059868,0.384825
451.000000,0.002000,-0.850565,2.669679,0.415237,0.313081,-0.365462,-0.393434,0.696300,-2.221025,-0.381734
452.000000,0.002000,1.585114,1.630785,-0.099940,-2.193038,-0.334494,0.266861,-2.260775,-2.417982,0.259328
453.000000,0.002000,-0.039808,-0.292939,-1.392116,0.984484,0.422645,2.029643,0.051434,0.812192,5.478121
454.000000,0.002000,-0.640651,-0.048492,1.292232,0.548166,-0.730775,-1.450784,2.312957,0.262787,-4.948738
455.000000,0.002000,-0.841325,0.766743,-1.125043,0.240323,-0.730551,0.950516,2.321809,-3.028963,3.642439
456.000000,0.002000,-0.790859,-0.048826,-0.282377,0.476543,1.271315,-1.527813,6.686364,1.346733,2.413868
457.000000,0.002000,0.534321,0.756882,1.040317,-0.162727,-1.120990,-0.060264,-2.095139,-3.421122,-4.129869
458.000000,0.002000,-0.178456,0.963443,1.562681,-1.067732,1.037773,-0.846442,0.385889,-2.157405,-3.891501
459.000000,0.002000,-0.281033,0.525254,-1.593062,0.698025,-0.892734,1.308549,0.766536,-1.572885,4.478822
460.000000,0.002000,0.860015,0.228223,-0.099584,0.155924,1.719779,-0.228180,-6.516642,-3.042387,1.101272
461.000000,0.002000,0.693225,0.372552,1.407406,-1.321310,0.367288,0.554866,-2.075536,-1.006679,-4.269658
462.000000,0.002000,1.420034,0.667613,0.917131,-0.783577,0.474072,-1.058175,-2.776613,-1.552278,-1.821537
463.000000,0.002000,-0.625197,-0.156911,-0.561682,-0.054363,-0.124915,0.769746,4.391466,1.049985,4.627071
464.000000,0.002000,0.748165,0.213725,-0.429266,-1.537167,-0.848674,0.632833,-5.088374,-2.632845,3.091972
465.000000,0.002000,-0.332605,0.447694,-0.143991,-0.879693,-2.471494,-0.013668,3.100609,-6.232512,2.544364
466.000000,0.002000,-0.803236,0.379687,-2.049683,0.626235,0.507892,0.429700,1.233466,-0.664124,3.103292
467.000000,0.002000,0.289482,-0.407076,-0.334488,-1.724919,0.566861,0.857555,-2.760508,4.261307,3.441224
468.000000,0.002000,0.361821,-0.574831,1.284784,-1.542178,2.331666,-2.352919,-1.493491,2.032317,-4.778660
469.000000,0.002000,-0.643209,-0.329335,0.739334,0.141065,0.886962,-1.516708,4.060834,1.866849,-4.924754
470.000000,0.002000,0.464606,2.122628,0.034384,-0.728094,-1.414417,0.633236,-0.575398,-3.333812,-0.053217
471.000000,0.002000,0.251724,-1.005807,-0.456835,0.740923,2.176420,0.005194,-1.863595,5.561569,2.395196
472.000000,0.002000,-0.819460,-0.492281,-2.267685,-0.029497,0.010121,-0.714034,0.966834,0.559370,2.832042
473.000000,0.002000,1.346476,-1.472781,-3.010148,-0.913202,-0.020826,-0.264644,-0.589320,0.605026,1.271438
474.000000,0.002000,-0.640719,0.452264,-1.025405,1.898764,2.513174,1.115260,2.942068,-2.033704,4.834449
475.000000,0.002000,0.983980,0.283382,-0.397710,-1.306857,0.890082,-0.780270,-5.890108,-2.078460,1.991130
476.000000,0.002000,0.448203,-0.148968,0.517858,-0.970824,-1.020771,-2.023601,-3.779935,2.014828,-4.664397
477.000000,0.002000,-0.859508,-0.810654,1.438343,1.105470,-0.296407,1.334630,1.954309,2.042226,-3.303838
478.000000,0.002000,-1.556176,-1.746051,0.426025,2.866631,-0.548386,-0.283975,1.986031,2.316515,-0.482358
479.000000,0.002000,-0.000703,0.968354,-0.152683,1.455408,-1.007489,-2.391820,0.461113,-6.627978,2.130031
480.000000,0.002000,-0.900269,-0.400426,1.404579,1.241250,-1.959627,-0.238507,2.220325,1.156741,-3.965976
481.000000,0.002000,0.280640,-0.050833,0.028282,-0.016866,2.742284,-2.569638,-4.022341,1.061410,-0.305160
482.000000,0.002000,0.297906,0.180803,0.206403,-1.517242,-1.279503,-1.876598,-3.504099,-2.331456,-3.176063
483.000000,0.002000,-2.551383,0.989494,1.555851,1.404629,0.165840,-0.806736,1.619810,-0.636920,-0.973962
484.000000,0.002000,0.724401,0.919721,0.082592,-0.007905,1.107158,-1.892019,-4.864765,-4.711506,-0.965951
485.000000,0.002000,0.155663,0.668840,0.493502,-0.762589,-0.954048,0.584900,-1.919872,-6.140583,-4.706133
486.000000,0.002000,-0.973475,-0.535975,-1.709592,-0.142922,1.458520,-1.171325,1.485205,0.654090,3.157990
487.000000,0.002000,-1.122955,-0.833411,1.210494,1.045224,0.917554,-1.859763,2.375061,1.946856,-2.921533
488.000000,0.002000,0.594284,-0.730877,0.227224,-1.063576,0.446315,1.441567,-4.363289,4.032839,-2.718110
489.000000,0.002000,-0.287576,0.204924,0.440720,-0.759466,2.266655,0.322771,2.831320,-1.815656,-4.909350
490.000000,0.002000,0.595016,-0.204631,0.126966,-1.360764,-0.201905,-0.852611,-7.079589,1.314222,-1.645169
491.000000,0.002000,0.506595,-0.344631,-0.096995,-1.830848,0.294614,-1.009716,-5.648580,3.628254,1.376279
492.000000,0.002000,-0.340993,0.081802,0.181785,0.543571,0.166792,1.185727,3.429812,-0.697911,-2.530379
493.000000,0.002000,-0.544088,0.237623,0.748722,0.611272,-0.092124,-0.334358,3.191065,-2.683848,-5.167806
494.000000,0.002000,0.254463,-0.157248,-0.573584,-0.023174,-1.757667,1.255937,-3.785630,0.143341,6.442743
495.000000,0.002000,-0.913054,0.590522,0.717903,1.449561,0.010179,-0.443758,3.458117,-2.627081,-3.126559
496.000000,0.002000,0.175559,1.042934,0.780978,0.172714,-1.513929,-0.895260,-1.028689,-4.514992,-3.480494
497.000000,0.002000,1.924574,-0.374702,-1.180431,-2.382491,-0.353452,-0.183652,-2.742961,0.553273,1.665207
498.000000,0.002000,-0.665483,0.039308,-0.136054,1.155860,1.735016,-1.612794,5.657170,-0.790392,1.565901
499.000000,0.002000,-1.717631,0.578306,-0.446531,1.765665,-2.140376,-0.381413,3.943768,-1.479300,1.043180
500.000000,0.002000,0.488945,-0.104749,0.347194,1.329991,3.061494,0.830020,-5.281744,1.991498,-3.492973
501.000000,0.002000,-0.212289,0.012773,0.719874,-0.422189,0.349015,0.070263,1.602440,-0.465695,-6.176153
502.000000,0.002000,-0.456056,-0.435106,0.530484,0.765826,1.823255,-0.686077,3.214075,3.334642,-3.946767
503.000000,0.002000,0.209325,-0.136818,1.247497,0.123486,-0.763696,-0.481394,-1.171915,0.628752,-5.041845
504.000000,0.002000,0.094211,-0.759216,0.807972,2.947362,0.914952,-1.890976,-0.851280,4.199461,-5.027225
505.000000,0.002000,-1.680147,-1.557577,0.422966,-0.023399,-0.213822,-1.153932,2.428196,1.833452,-0.398585
506.000000,0.002000,1.073230,-0.062995,-0.116975,1.091938,-0.394495,0.046590,-6.620901,0.479950,0.217928
507.000000,0.002000,-0.228585,0.084005,0.505559,-0.577891,0.319443,-3.116230,1.721786,-1.151960,-5.247497
508.000000,0.002000,0.007582,0.857075,1.526269,1.066298,2.275786,-1.522219,-0.184277,-2.300850,-4.133113
509.000000,0.002000,0.399217,2.413791,0.201182,0.885197,-0.151071,0.736642,-0.346389,-2.985003,-0.412730
510.000000,0.002000,0.498185,-2.255269,0.235251,-2.449992,-0.896771,0.153262,-0.879995,3.113704,-0.255207
511.000000,0.002000,-1.130415,1.268596,-0.833193,1.577458,0.579548,1.379146,1.884322,-3.098339,1.113475
512.000000,0.002000,0.330683,-0.615652,-0.367754,-0.367430,-0.186342,2.744815,-3.483230,9.480271,3.619718
513.000000,0.002000,-1.235564,0.114297,2.580569,1.218691,1.578248,1.657649,0.993462,-0.050856,-2.141690
514.000000,0.002000,-0.554378,0.207550,0.116136,0.036092,-2.304330,0.317354,6.489524,-2.611885,-1.504273
515.000000,0.002000,0.253538,-0.928622,-1.000398,-1.906656,3.009198,-0.966292,-0.089452,4.483101,4.345212
516.000000,0.002000,0.712236,-0.692166,-0.312229,-1.485453,-0.561078,-0.330317,-4.680826,5.016485,1.878527
517.000000,0.002000,-0.213746,0.717633,0.443208,0.808260,-2.088620,-0.100748,1.581644,-5.825237,-4.491522
518.000000,0.002000,0.228767,0.497920,0.293027,0.285183,-1.285027,-1.252155,-3.175030,-3.115835,-1.665505
519.000000,0.002000,0.139042,1.530923,-0.476799,-0.240383,-0.939652,-0.812782,-0.263372,-4.697086,1.687992
520.000000,0.002000,0.768834,0.414854,0.122657,0.341364,2.515831,-0.272690,-5.896438,-3.582284,-0.477995
521.000000,0.002000,1.816355,-0.844762,-0.570570,-0.052949,-0.219805,1.637870,-3.242138,1.538093,0.992418
522.000000,0.002000,-0.126637,0.255289,0.305491,-3.103192,0.851857,0.061562,1.311516,-2.847368,-2.873131
523.000000,0.002000,0.378347,-0.029564,0.521156,0.709358,-0.211007,-1.786533,-2.603082,-0.146709,-5.909600
524.000000,0.002000,-0.569444,-0.931685,0.252490,1.258936,1.112341,0.185437,3.537661,5.643730,-1.491527
525.000000,0.002000,-2.040084,-1.423521,1.524406,-0.776257,0.098651,-1.115664,1.591026,1.119353,-1.179823
526.000000,0.002000,0.127682,0.293606,0.775149,-1.915492,0.550784,-2.154636,-0.225893,-3.303483,-6.132235
527.000000,0.002000,-1.002535,-0.839535,-0.019664,0.905401,-0.758149,-1.753980,3.873179,4.367007,0.118827
528.000000,0.002000,1.128323,0.084493,-1.753058,0.303002,-1.143332,2.510873,-2.008936,-0.176900,3.072661
529.000000,0.002000,-0.880039,0.442097,-0.629139,1.079132,-0.454971,-0.168160,6.620201,-2.424545,3.227366
530.000000,0.002000,2.665109,0.871229,0.533209,-0.140905,-0.274197,-0.139616,-2.242249,-0.685735,-0.421917
531.000000,0.002000,-0.561867,-0.019154,-0.397111,2.430049,0.130954,-1.308977,5.407029,0.811219,4.686856
532.000000,0.002000,0.993615,1.081154,1.088698,-0.794636,0.005041,-0.363000,-2.189319,-2.874522,-2.705635
533.000000,0.002000,-0.947411,1.430476,-1.434472,0.171565,-0.352220,0.269706,1.245632,-2.178385,2.079421
534.000000,0.002000,-0.032480,0.663136,0.350285,1.414245,-0.274948,0.946609,0.265673,-5.440597,-3.075904
535.000000,0.002000,-1.438248,-0.684708,-1.118521,-0.543494,0.626110,1.556396,3.038215,1.468549,2.398927
536.000000,0.002000,0.265911,0.370336,-0.003021,-1.204118,-3.044890,0.269164,-3.546499,-4.468385,-0.651198
537.000000,0.002000,-0.447756,-1.250204,0.949072,0.152553,1.238177,-0.378153,1.495150,3.498751,-2.747173
538.000000,0.002000,2.046122,-2.744605,-0.885600,-0.629351,-2.120077,0.536884,-0.909101,1.211730,0.369762
539.000000,0.002000,-0.701715,-0.575312,0.407390,0.711036,0.541070,0.092704,4.741791,3.409502,-2.363229
540.000000,0.002000,1.775828,1.003035,0.432281,-0.206417,-0.370323,-0.407237,-3.275244,-1.732262,-0.792639
541.000000,0.002000,-0.326808,-0.487894,-0.662761,1.501790,2.141539,1.087699,-0.493828,1.613745,2.578410
542.000000,0.002000,1.449639,0.328311,-0.419997,-1.152080,0.810085,0.337640,-4.839236,-1.112362,1.450072
543.000000,0.002000,-0.567761,0.398859,-1.028094,-0.584110,-1.477089,1.555912,2.456518,-1.831836,5.006531
544.000000,0.002000,2.032659,-0.012852,-0.485557,0.769593,-0.463640,-0.488519,-3.626964,-0.170199,0.984804
545.000000,0.002000,0.662631,-0.577682,-0.282937,-0.303250,-1.599380,0.595599,-4.728924,4.025249,1.813573
546.000000,0.002000,-0.278580,-0.321287,0.333541,0.173044,2.025085,-1.497277,2.310551,3.956745,-4.539860
547.000000,0.002000,-0.745941,-0.542961,-0.244288,0.207602,1.733641,-0.942107,4.602749,3.632730,2.319313
548.000000,0.002000,1.220530,-0.177857,-0.419510,-1.200442,-0.227254,0.842434,-5.605964,0.868219,1.902375
549.000000,0.002000,-0.142805,1.589074,-1.637197,-1.399810,-1.316470,-0.036558,-2.061436,-0.218838,2.030140
550.000000,0.002000,0.238841,-0.208657,0.909820,-0.698145,-0.923861,-1.562223,-1.962968,1.310518,-6.554143
551.000000,0.002000,0.347805,0.007377,-1.515840,-1.891418,0.478710,1.241241,-1.002534,-0.018711,5.135480
552.000000,0.002000,0.571073,-0.540780,-0.741205,-1.163491,1.298276,1.188520,-3.575620,4.521606,4.544945
553.000000,0.002000,1.399053,-1.285310,0.884701,0.177212,-0.530052,-1.666168,-2.491671,2.194146,-1.566499
554.000000,0.002000,0.144783,0.490841,0.489472,-1.025210,-0.196213,-0.206060,-1.253560,-4.138461,-5.331870
555.000000,0.002000,-0.681576,-0.701668,0.065728,3.038705,3.422906,-0.431824,4.408523,4.853568,-0.114464
556.000000,0.002000,0.674800,-0.007529,-0.813941,-0.403767,-0.228670,0.951117,-4.351997,0.339342,5.067772
557.000000,0.002000,0.167979,-0.118405,-0.509239,0.266993,-0.096117,1.973688,-1.066856,0.045949,6.103897
558.000000,0.002000,1.129858,-1.875190,-0.360906,-0.062218,0.205602,-2.374074,-1.744646,2.832522,0.461753
559.000000,0.002000,0.477052,0.242315,-0.457234,-0.275468,-2.371001,2.128918,-4.233284,-2.457616,4.753761
560.000000,0.002000,0.438711,2.363119,0.123079,0.754703,-0.109381,-1.431846,-0.551659,-2.913578,-0.025133
561.000000,0.002000,0.508852,0.825247,0.312724,0.450467,-0.082813,0.251277,-3.558524,-5.286342,-2.259523
562.000000,0.002000,1.375525,0.692837,-0.558702,-2.749429,-1.071575,-0.947598,-3.978037,-2.350576,1.929407
563.000000,0.002000,0.845374,-0.022106,0.271125,0.627171,1.200566,-3.031032,-6.768795,0.498308,-2.621734
564.000000,0.002000,-1.111532,-1.782909,1.162489,1.028073,-0.026816,-1.027567,1.410077,2.637927,-1.412926
565.000000,0.002000,2.419760,0.309280,0.171794,0.029357,-0.474644,0.082485,-3.004140,-0.337455,-0.215602
566.000000,0.002000,0.055612,-0.224148,-0.043448,-1.849603,1.670685,-0.765641,-0.120996,1.976032,-0.436982
567.000000,0.002000,-0.130782,0.064429,-0.858065,-0.362114,-1.672171,2.759692,0.636754,-0.617869,6.482072
568.000000,0.002000,-0.890251,0.248037,0.414986,-0.143796,-2.007232,2.597119,5.786232,-1.859016,-3.232260
569.000000,0.002000,-0.785890,2.139689,0.161746,0.757925,-0.351397,0.279817,1.100017,-3.122506,-0.182003
570.000000,0.002000,-0.539046,-1.155920,0.620599,0.436315,2.114956,-0.623182,2.187321,4.720923,-2.444146
571.000000,0.002000,0.312984,-1.071982,-0.450977,-1.408375,-1.251630,2.169395,-2.193181,5.335364,1.582774
572.000000,0.002000,-0.084321,-0.864711,-0.823392,-0.160914,0.680827,1.071022,0.384557,4.270728,4.184475
573.000000,0.002000,0.319984,-0.547924,0.147501,0.819487,2.216252,-0.573997,-3.827147,5.819549,-2.489257
574.000000,0.002000,0.917978,-1.055974,-1.158869,0.460808,-0.049937,0.978843,-2.591760,3.016617,2.239504
575.000000,0.002000,1.796533,-1.002662,-1.118799,0.056402,0.164335,-0.870186,-2.466366,1.386577,1.486897
576.000000,0.002000,0.227298,0.791103,-0.221195,-0.344420,-0.385691,0.401786,-2.734752,-6.121242,1.922035
577.000000,0.002000,0.447672,-0.025775,-0.295972,-0.756255,1.030219,2.419505,-5.358149,-0.636902,3.724564
578.000000,0.002000,1.628592,2.910964,1.653944,0.374963,0.822691,-0.249447,-0.625777,-1.118934,-0.650129
579.000000,0.002000,0.081276,1.609093,0.292495,-0.176582,-1.468496,-0.343075,-1.098530,-4.733560,-0.264321
580.000000,0.002000,-1.122922,0.063968,-0.112526,-0.626674,-1.248737,0.093804,6.003039,-0.612986,0.982683
581.000000,0.002000,-0.160077,-1.113896,0.431665,2.397769,0.330884,-1.351309,1.679496,6.185573,-1.644768
582.000000,0.002000,-1.674643,1.042592,-1.320224,0.872638,0.903683,1.100693,2.117787,-1.284090,1.676109
583.000000,0.002000,-1.963647,-1.593676,2.065046,0.609885,0.793300,0.025943,1.115119,0.913504,-1.180903
584.000000,0.002000,0.114059,0.670181,1.483856,0.714026,1.216199,-0.719949,-0.692646,-1.949097,-4.595726
585.000000,0.002000,0.670280,-1.551991,0.119288,-1.112617,0.322877,-2.040728,-2.400303,4.088318,-0.387192
586.000000,0.002000,0.138257,-0.518878,-0.271789,-0.423508,0.231513,-0.472317,0.002365,3.912857,1.926151
587.000000,0.002000,0.970438,-0.448663,-0.173834,-1.755433,1.593468,-1.455181,-6.494276,2.526205,1.193567
588.000000,0.002000,-0.338808,-1.280580,-0.768745,-0.719486,2.092450,0.445055,0.729463,4.276531,2.265761
589.000000,0.002000,-0.307721,0.616136,0.425888,-1.093256,-2.538970,-2.077575,3.157442,-4.901604,-4.142901
590.000000,0.002000,0.868696,-1.131134,1.568529,0.441815,-0.445405,-1.098376,-1.325043,1.980850,-2.308684
591.000000,0.002000,-0.343881,-0.293774,0.098694,-1.047112,2.513174,0.617689,4.415435,2.545850,-1.233759
592.000000,0.002000,1.157806,-0.341856,0.337878,-0.206572,-0.595562,-1.846701,-5.520563,1.891413,-1.742619
593.000000,0.002000,0.434053,0.399005,-0.811839,-2.252334,-0.428553,0.890161,-1.662471,-4.017143,5.464035
594.000000,0.002000,0.669322,-0.461976,1.408599,1.050523,-1.091838,-1.930147,-1.843180,1.421230,-4.193118
595.000000,0.002000,-1.845260,0.089318,-0.531120,0.206655,0.550025,0.365375,3.943891,-0.214673,1.076148
596.000000,0.002000,-0.680602,-1.883216,0.697848,-2.438523,1.985639,-1.281108,0.995905,3.168919,-1.259904
597.000000,0.002000,0.137666,-1.096560,-0.000711,0.171840,2.916643,0.913054,-0.993786,6.693621,-1.187831
598.000000,0.002000,0.581065,-1.595678,-0.373859,-0.433727,0.791309,-0.789731,-1.674662,4.170168,1.071316
599.000000,0.002000,-0.377838,-0.740282,0.090063,2.393579,0.332476,0.048782,3.352758,6.551624,-0.842273
600.000000,0.002000,0.708818,0.086319,0.048557,0.476310,1.562993,-0.841066,-6.988483,-2.016377,-0.708266
601.000000,0.002000,0.868477,-0.101508,0.772620,-0.503416,0.590803,-2.437041,-4.376921,0.422299,-4.180402
602.000000,0.002000,0.864746,-0.075595,-0.929829,-2.274936,1.040552,-0.126094,-3.643583,0.795287,4.212282
603.000000,0.002000,-0.411385,0.003756,-0.227057,4.102066,0.240246,0.711796,6.146374,-1.138070,2.202853
604.000000,0.002000,0.305968,-0.827603,-0.335693,-1.651723,2.633532,0.133719,-2.349113,5.774089,2.317235
605.000000,0.002000,0.749560,-0.540363,-0.213733,-1.489812,1.120099,1.706013,-5.410013,4.011002,1.269212
606.000000,0.002000,-1.010693,2.049075,-0.424072,1.333497,-1.901874,0.920668,1.376834,-2.864057,0.564689
607.000000,0.002000,-0.873865,-0.730221,-1.053194,1.630583,0.600176,-0.120614,3.023505,2.373222,3.302220
608.000000,0.002000,-0.715463,0.305708,0.083558,-0.347364,-2.016399,1.012641,5.370821,-3.426418,-0.758801
609.000000,0.002000,-0.488947,-0.243599,0.227137,1.836499,3.719251,0.314253,4.687765,1.688263,-3.035078
610.000000,0.002000,0.161251,0.814142,-0.266595,0.397305,-2.924202,-0.636277,-0.962747,-7.805929,4.185834
611.000000,0.002000,-0.053711,-0.448047,0.150129,0.166225,2.391216,1.041690,-0.500853,5.149093,-2.703371
612.000000,0.002000,0.176111,-0.435660,-0.980036,1.634684,0.175748,0.827916,-0.623336,1.502074,6.616381
613.000000,0.002000,0.399056,0.174918,0.108153,-1.048818,0.725823,0.750073,-2.881794,2.839716,-4.755746
614.000000,0.002000,-1.617618,0.304920,-0.002615,1.117135,-0.688509,-1.312589,5.038820,-1.160775,0.067328
615.000000,0.002000,-1.248295,1.512783,-1.069257,-0.671043,0.871850,1.140560,1.897259,-2.431739,1.566311
616.000000,0.002000,0.359375,-0.080151,-0.271382,0.514445,0.547923,3.479542,-3.972086,0.550123,4.403882
617.000000,0.002000,0.208200,1.092140,-0.197818,-0.010781,-2.545238,-0.536529,-1.006739,-6.438623,1.694974
618.000000,0.002000,-0.359045,0.202882,0.665472,0.883090,-1.000696,0.740136,3.311642,-2.451426,-5.954520
619.000000,0.002000,0.350204,-0.286038,1.514624,0.566637,0.559728,-0.659258,-1.403191,1.240100,-4.860226
620.000000,0.002000,0.160767,-0.581065,0.055457,-1.190458,0.735398,0.221155,-2.891957,5.886970,-0.029950
621.000000,0.002000,-0.034837,0.092225,-0.089746,2.162207,1.860073,1.741826,0.181796,-1.131168,1.139207
622.000000,0.002000,-1.263793,1.106378,-0.341429,0.350814,0.248433,0.043456,3.540858,-3.020618,0.833093
623.000000,0.002000,0.775129,0.223572,-0.625852,-0.271300,2.259242,-0.897295,-5.112081,-2.393663,2.831552
624.000000,0.002000,-0.473203,0.682429,-0.080486,1.371604,-0.920035,0.678285,3.584319,-4.188262,2.502511
625.000000,0.002000,-1.216933,-1.696143,-0.189219,-0.853889,0.476646,-1.131813,2.032730,2.890913,0.284478
626.000000,0.002000,-0.656073,-0.158012,-0.659078,0.888995,-0.249606,0.361417,4.187578,1.135560,4.659590
627.000000,0.002000,0.510769,-0.226476,0.798673,-1.829762,-1.925185,0.073487,-3.920847,1.683481,-6.049856
628.000000,0.002000,-0.006811,-0.546207,0.963699,1.641496,-2.317885,-2.848189,-0.520326,2.571882,-6.610160
629.000000,0.002000,-0.576248,-0.837632,-1.338592,0.952482,-2.283329,1.549268,1.575121,2.367423,3.839699
630.000000,0.002000,1.043791,-0.558413,1.042002,-1.474904,-0.047773,0.130272,-2.540323,2.157828,-3.100276
631.000000,0.002000,-2.048174,2.195214,-0.435210,-0.499345,0.661081,-0.134942,1.407968,-1.540288,0.282517
632.000000,0.002000,0.377492,-0.079774,0.247992,-1.151970,-0.540509,1.021465,-5.624597,0.942538,-3.548046
633.000000,0.002000,1.923965,-2.135200,0.451619,0.271579,-0.859524,0.312985,-1.484880,1.644944,-0.349315
634.000000,0.002000,0.696456,-0.067869,0.500686,-1.471535,-0.127426,1.049970,-6.130505,0.620019,-3.818298
635.000000,0.002000,0.518452,-0.141632,0.107197,1.152246,3.373823,0.004541,-6.175451,1.677031,-1.660456
636.000000,0.002000,-0.034045,-0.462235,0.038414,-1.612125,-0.760943,0.730331,1.153973,2.967084,0.491206
637.000000,0.002000,-0.779253,0.219902,0.952983,-0.149684,1.209564,-1.617213,3.598534,-1.203239,-4.703788
638.000000,0.002000,-1.614660,-0.401600,-0.538431,1.999819,-0.964529,-0.313486,5.048907,0.985448,1.886714
639.000000,0.002000,1.148073,0.173048,1.574928,-1.201816,0.249816,-0.349993,-2.100300,-0.423469,-3.147566
640.000000,0.002000,-2.589002,-0.116968,-0.291851,-0.558217,-1.480584,-1.387463,2.800939,0.104545,0.370199
641.000000,0.002000,1.255231,-1.363251,0.606127,-0.812857,1.231884,1.767587,-2.561215,2.787113,-1.121139
642.000000,0.002000,-0.153297,-0.137363,1.133734,-0.513846,1.143991,-1.196958,0.795331,1.094069,-6.213437
643.000000,0.002000,0.067866,2.260463,1.421239,1.037446,0.083883,0.634692,-0.051639,-2.230178,-1.408721
644.000000,0.002000,1.029312,0.235855,-1.500630,-0.308444,-0.979154,-0.412012,-2.411619,-0.621499,3.617082
645.000000,0.002000,-0.046714,-0.087816,0.275657,1.255547,-1.703284,-1.668767,1.203582,1.685447,-4.401433
646.000000,0.002000,1.618857,-0.588706,-0.874009,0.116323,-0.043876,0.356051,-3.427741,1.232707,1.838190
647.000000,0.002000,1.242601,-0.771415,0.021205,0.210085,0.686888,-2.378226,-4.741405,3.206511,0.159066
648.000000,0.002000,1.286450,0.035015,0.037712,-0.804306,-1.161350,1.021565,-6.111494,0.524327,-1.399111
649.000000,0.002000,-0.143658,0.716385,-0.038011,-0.184153,-0.687049,0.031465,1.471940,-6.558077,0.337745
650.000000,0.002000,2.979930,-0.860498,-0.699322,1.565658,0.458013,0.872245,-1.798351,0.541273,0.419724
651.000000,0.002000,-0.811456,-0.041641,-1.963006,0.654521,1.433518,1.106756,1.220103,0.061366,3.241138
652.000000,0.002000,0.005585,-0.577284,-0.066840,1.865039,1.120022,-0.402282,0.040114,7.008257,0.240794
653.000000,0.002000,0.831101,-0.551495,0.928804,0.547073,2.234127,-0.612879,-3.301810,2.424803,-3.774569
654.000000,0.002000,1.540560,-0.298056,1.648091,-1.100271,-0.126951,-0.268517,-2.283618,0.548465,-2.392333
655.000000,0.002000,-0.234357,2.070870,0.888377,-1.060681,-0.416838,-0.838393,0.343689,-3.182300,-1.283144
656.000000,0.002000,-1.230206,0.173422,1.668141,1.327074,0.343684,0.988015,2.148240,-0.257290,-3.038769
657.000000,0.002000,0.584584,0.063419,0.860663,1.083328,0.342636,-2.000533,-3.420236,0.404116,-5.214201
658.000000,0.002000,-0.424765,-0.107305,0.203745,1.601718,-0.154372,-0.531208,5.484412,2.797263,-2.528119
659.000000,0.002000,-0.331719,0.519343,1.156307,0.327715,1.051299,0.066801,1.584194,-2.240368,-4.908057
660.000000,0.002000,0.584203,-0.101238,-1.310061,-0.009991,1.879179,0.300299,-2.318878,0.259653,4.875993
661.000000,0.002000,-0.168450,-0.106251,-0.773838,2.000776,-0.162254,-0.664138,0.866778,0.583764,6.498496
662.000000,0.002000,-0.634741,-0.626729,-1.167373,0.972224,0.166059,1.581334,3.522360,2.155443,2.907069
663.000000,0.002000,0.385963,0.336217,-1.166834,-0.276272,0.719859,1.148609,-1.073319,-2.375953,4.516010
664.000000,0.002000,0.202038,1.022474,-1.175796,0.353305,-1.452500,-0.476256,-0.660125,-3.333535,3.488404
665.000000,0.002000,0.684934,-0.562602,0.046681,-2.508902,-0.021100,-0.497686,-5.038533,4.493569,-0.033147
666.000000,0.002000,0.172518,0.771752,0.176651,0.076169,-2.537600,-0.226229,-1.586184,-6.794015,-1.844203
667.000000,0.002000,-1.086965,-1.374270,-1.199315,0.453942,0.286038,1.257254,1.667228,2.404507,2.070576
668.000000,0.002000,-0.769629,-0.420490,-0.490064,3.198288,-0.945192,1.699687,5.294202,2.665356,3.029746
669.000000,0.002000,-0.867488,-0.755917,-0.302687,-1.307637,0.558739,1.612459,4.325029,3.348189,1.108095
670.000000,0.002000,-0.024730,0.614814,0.935071,1.250186,-0.747507,-0.838082,0.078189,-2.939317,-4.852171
671.000000,0.002000,0.316309,-0.626362,0.771169,-0.454212,1.580040,-0.412350,-2.039206,3.868834,-4.930522
672.000000,0.002000,0.786863,0.289226,-0.695198,-0.400139,-0.354571,0.238516,-3.757303,-1.115151,3.347142
673.000000,0.002000,0.179262,0.649079,-2.285633,-1.386540,0.442861,2.572141,-0.220290,-0.891771,2.910292
674.000000,0.002000,0.274885,-1.757059,1.049861,-1.063745,1.012733,0.620391,-0.627933,3.074366,-2.024532
675.000000,0.002000,-0.382857,0.919996,-0.221699,-0.306976,-1.648190,0.011222,2.451832,-5.594183,2.125522
676.000000,0.002000,-0.753111,-0.291601,0.854582,0.906892,-0.123130,-1.131089,2.938459,1.907966,-4.906414
677.000000,0.002000,0.442010,0.185419,0.370846,0.526717,0.719033,-1.644911,-1.861085,-2.434456,-5.415237
678.000000,0.002000,-0.450295,-0.290805,0.830682,-1.458347,-0.497951,-2.335020,3.137746,1.820012,-5.314877
679.000000,0.002000,1.679932,0.749686,-0.059417,-0.480957,0.034708,0.619725,-4.095084,-1.806728,0.080073
680.000000,0.002000,1.159866,1.173873,0.471283,-1.418939,-0.553110,-0.843042,-3.267916,-3.166044,-1.218051
681.000000,0.002000,-0.811938,-0.165718,-0.638347,1.787418,-0.642514,1.041222,5.860181,1.510498,4.205622
682.000000,0.002000,-0.092841,0.330530,0.267033,0.387438,-0.222646,0.073531,-0.174662,-3.647378,-3.344797
683.000000,0.002000,-0.184680,0.630677,-1.007373,0.933603,-2.125190,2.460967,1.142207,-3.543255,5.510219
684.000000,0.002000,0.313011,-1.757003,0.002516,-1.312142,0.985924,-0.975773,-0.884200,4.327643,0.169953
685.000000,0.002000,-0.693574,0.465336,-0.004256,1.364370,-1.703569,-0.303606,5.157311,-3.900510,-0.029760
686.000000,0.002000,0.104048,-1.379231,-0.597048,-0.483029,0.012862,0.528689,-0.915145,5.136896,1.851331
687.000000,0.002000,0.000771,0.476797,3.147720,-0.530175,-0.317232,0.157413,-0.002831,-0.244244,-1.916407
688.000000,0.002000,0.136821,1.467667,-1.335274,-0.282063,0.697342,1.122739,-0.345251,-2.779808,2.712038
689.000000,0.002000,-1.612975,-0.268250,-0.402690,0.006677,0.468072,2.319825,4.705166,0.814161,1.000894
690.000000,0.002000,1.762136,0.012312,1.539206,0.213627,1.116228,-0.047005,-2.422861,0.047319,-2.166089
691.000000,0.002000,1.024989,-0.587755,0.698917,-1.984830,-1.250523,0.017612,-4.047117,2.546004,-2.930657
692.000000,0.002000,0.156977,0.383768,0.462410,0.456132,-0.977402,-0.768302,-0.789675,-3.242111,-4.353369
693.000000,0.002000,-0.267061,0.753387,1.594997,-0.228154,0.312675,-1.076475,0.577083,-2.021632,-4.272016
694.000000,0.002000,0.266234,0.357307,-0.444819,-1.712126,-0.473140,-0.893061,-2.772198,-3.230659,4.933069
695.000000,0.002000,-0.418619,-0.313259,-0.168515,2.290151,2.403528,-1.120146,5.427540,3.067990,1.272086
696.000000,0.002000,-1.227190,-1.104922,1.856631,0.716015,-0.613350,0.992638,1.030631,1.193374,-2.294270
697.000000,0.002000,1.827121,-1.982975,1.934797,-0.430846,-0.578774,0.560441,-0.971864,1.044790,-1.017579
698.000000,0.002000,-0.021685,-0.167553,0.488571,0.629112,0.002668,0.981774,2.619584,-2.706919,-1.612196
699.000000,0.002000,1.762935,-0.893479,-0.041918,1.082508,2.283878,-1.293175,-3.724623,1.927826,0.069870
700.000000,0.002000,-1.322569,0.561465,1.945139,-0.611545,-0.192165,0.441633,1.955547,-0.649934,-2.732570
701.000000,0.002000,-0.816048,0.404674,1.107170,-1.586612,-0.314131,0.976674,3.103239,-2.855437,-3.877001
702.000000,0.002000,-1.338686,1.272466,1.827405,-1.078150,-0.894377,-0.087149,1.394141,-1.398182,-1.910634
703.000000,0.002000,-0.281157,0.590090,-0.249138,-2.420798,0.686065,1.111507,3.499112,-6.467180,2.812360
704.000000,0.002000,-0.795536,1.589855,1.442185,-0.196325,-0.755940,-0.324040,1.205770,-2.287368,-2.091634
705.000000,0.002000,-1.199250,-1.580453,-2.188732,-2.716819,0.227389,1.952938,0.922759,1.195734,1.644387
706.000000,0.002000,-0.484568,-0.042780,0.863244,2.012263,0.375874,-2.222984,2.512168,1.274170,-5.898594
707.000000,0.002000,-0.428587,-0.068544,0.633785,1.061706,-1.501909,-2.604565,3.583924,0.573448,-3.631957
708.000000,0.002000,0.099328,0.185457,-0.816850,-0.132812,0.614903,2.261594,0.606625,-2.195065,6.746107
709.000000,0.002000,-2.147539,0.452558,-0.990201,-1.705755,-0.089552,-1.708993,2.757123,-0.586655,1.339635
710.000000,0.002000,0.594378,-0.014863,-0.034647,0.448148,0.224402,-2.030509,-6.513461,0.987535,0.187974
711.000000,0.002000,-0.907009,-0.638797,2.195442,-0.104670,-0.612252,0.187419,0.980074,0.870120,-2.701852
712.000000,0.002000,-0.483277,-0.461199,-0.709547,1.436579,-0.037265,0.511872,3.180720,2.535895,6.098157
713.000000,0.002000,0.163128,-0.024606,0.192601,-1.103852,-3.109260,1.642646,-2.368255,0.980561,-2.840713
714.000000,0.002000,0.370385,-0.411512,0.306837,1.876313,0.296148,-1.214745,-4.150300,5.696142,-3.847867
715.000000,0.002000,-0.130691,-0.688014,-2.502916,1.588053,-0.654645,0.202866,0.110597,0.734450,2.636000
716.000000,0.002000,-1.187818,0.211871,0.844126,1.257856,0.689668,-0.721228,4.479115,-1.834452,-2.944499
717.000000,0.002000,-0.065579,-0.568040,-1.001941,-0.941146,1.846190,1.857629,0.329790,2.392798,5.313446
718.000000,0.002000,0.204139,-1.171263,1.517241,-0.030471,1.714969,0.588039,-0.499681,2.493174,-3.093942
719.000000,0.002000,0.173240,-1.492281,-1.240532,0.202401,0.918030,-0.198248,-0.514206,3.207322,2.625626
720.000000,0.002000,-0.303700,-0.647918,-1.214757,1.335539,0.699058,1.490926,1.341201,2.381674,4.960119
721.000000,0.002000,-0.271273,-0.831397,-0.444777,1.926175,0.447218,1.174492,1.037214,4.226552,0.380350
722.000000,0.002000,0.422827,0.524757,-0.495702,-2.454134,0.664715,1.923983,-4.237190,0.081841,4.347806
723.000000,0.002000,-0.307211,-1.148803,-0.249243,0.429712,0.355932,0.341907,2.000862,5.811408,0.729092
724.000000,0.002000,0.535343,0.349882,1.590562,-1.109331,0.134525,-2.438068,-1.428861,-0.763274,-4.111600
725.000000,0.002000,0.373146,-0.358854,0.307259,-0.653769,2.113838,-1.995855,-3.037719,2.881172,-3.663670
726.000000,0.002000,0.797967,1.487317,-1.578652,-0.994790,0.541520,-0.750705,-1.110771,-2.183235,2.250892
727.000000,0.002000,-0.196365,1.111428,-1.267341,-0.020711,-0.529241,1.672232,0.634194,-2.966686,3.146318
728.000000,0.002000,-0.879557,-0.796271,-0.582371,-0.420377,2.195250,1.327540,3.983103,3.511974,2.553992
729.000000,0.002000,-0.879811,0.954199,-0.271701,0.973314,-1.541872,0.042824,3.713020,-4.233723,1.341762
730.000000,0.002000,-0.910776,-0.418941,0.506986,0.745610,2.091956,0.541655,5.044806,2.223723,-2.789784
731.000000,0.002000,-0.320022,0.686214,0.088063,-0.457619,-2.677033,-1.319359,3.232161,-6.042522,-0.523397
732.000000,0.002000,-1.509091,-0.227255,0.626061,0.523447,1.236739,-1.461314,4.557568,0.717023,-1.752143
733.000000,0.002000,-0.327718,1.187981,-0.734126,0.914649,-2.072686,1.366336,0.984819,-4.340465,2.482931
734.000000,0.002000,0.084587,-0.477893,-0.779165,-1.423916,1.602691,0.039336,-0.998145,0.999067,6.844507
735.000000,0.002000,1.001994,-0.359083,0.813772,-0.983500,-0.327250,-0.590730,-4.354450,1.845177,-3.370751
736.000000,0.002000,-0.370814,0.570291,-0.157744,-1.799814,-1.342429,2.375613,3.669967,-5.748024,1.651226
737.000000,0.002000,-0.337890,-0.492589,-0.677605,0.165255,-2.171851,1.330910,3.949998,3.394918,8.822557
738.000000,0.002000,1.593885,-0.151919,-0.792419,-0.841922,1.789110,-0.928579,-2.144639,2.791847,1.790112
739.000000,0.002000,-0.965045,-1.497044,1.177703,0.345443,2.043332,-1.883898,1.566121,2.422842,-1.825365
740.000000,0.002000,-0.313828,-0.076481,-0.753386,0.223420,1.169253,-0.504124,3.491392,1.095241,6.374394
741.000000,0.002000,1.530803,-0.832282,-0.084990,-0.385208,0.776868,-1.997071,-3.650241,2.035047,0.528972
742.000000,0.002000,-0.190381,-0.612381,0.482133,0.830533,0.725766,-0.913957,1.114633,4.654934,-4.822420
743.000000,0.002000,1.335719,0.278117,-0.522658,-0.023287,1.951937,1.027007,-4.961193,-1.206058,2.097610
744.000000,0.002000,-0.959810,0.630683,-1.256120,0.992346,-1.591238,-1.147864,2.198276,-1.641018,2.827397
745.000000,0.002000,-1.639689,1.070688,-1.712480,0.855098,-1.097032,-0.523590,1.691663,-1.082601,1.831222
746.000000,0.002000,0.402451,0.188077,0.099573,-1.802880,-0.367595,-0.789596,-4.660184,-5.126406,0.470508
747.000000,0.002000,-0.096616,0.297422,-1.709578,1.324191,-0.409486,0.735406,-1.008941,-0.482179,6.341995
748.000000,0.002000,0.188666,0.804417,0.900696,-1.277422,-2.530142,-0.540829,-1.319276,-3.373882,-4.676792
749.000000,0.002000,-1.297764,-1.216388,-0.036470,2.441591,-0.085354,0.418620,3.260444,3.322372,0.015229
750.000000,0.002000,-0.064577,-0.086666,-0.547586,-1.479817,0.132977,0.735398,-1.508308,0.496511,7.117535
751.000000,0.002000,0.353450,1.235265,0.082398,-0.900731,-0.768541,0.822334,-0.522726,-4.793846,0.432553
752.000000,0.002000,1.148768,-2.693351,-1.173361,0.910786,0.072866,-0.448724,-0.723103,1.658852,0.694754
753.000000,0.002000,-0.358556,0.107131,0.248561,0.422609,1.596569,-0.709616,3.633209,-1.334704,-3.862286
754.000000,0.002000,0.036343,0.270726,-0.399613,-2.906298,-1.044793,1.298484,-0.991945,-2.725209,5.373891
755.000000,0.002000,-1.860027,0.854153,-1.354521,-0.426238,0.580495,1.578051,2.254883,-0.974467,1.648088
756.000000,0.002000,0.281401,-0.890284,-1.023547,-1.151070,-1.322417,1.221049,-1.098160,2.827288,4.975651
757.000000,0.002000,-0.046741,0.456349,0.121937,-0.924940,0.551193,0.257862,-0.685320,-5.196405,-0.926227
758.000000,0.002000,-0.115458,0.253442,0.432565,0.139939,-0.713877,-2.181612,1.908198,-1.830639,-5.797712
759.000000,0.002000,0.669631,0.508122,0.259414,-0.385824,-1.957976,0.539167,-5.447655,-3.746159,-2.316303
760.000000,0.002000,1.408359,0.667029,-0.463857,-1.278932,-0.092963,0.456551,-4.242991,-2.204579,1.178806
761.000000,0.002000,-0.641683,-0.053397,-1.440879,1.569308,-0.712074,0.436147,2.084208,-0.148095,4.500686
762.000000,0.002000,-0.530626,-0.155996,-0.142180,1.912611,-0.900869,1.601542,5.893112,0.980546,1.696390
763.000000,0.002000,-1.257132,0.277693,0.142215,0.233419,0.600525,-0.048685,5.602281,-1.666681,-0.856381
764.000000,0.002000,0.050586,-0.556805,0.428178,0.647800,0.193832,-1.848607,-0.773158,4.884884,-4.675005
765.000000,0.002000,0.008853,-0.299306,2.231204,-0.877364,-0.111297,-1.197978,-0.054550,0.459795,-3.374581
766.000000,0.002000,0.224729,0.315688,-0.575284,-0.081469,-2.723768,0.564619,-2.073908,-2.567913,5.068764
767.000000,0.002000,-1.048451,-0.712767,-0.075360,1.679284,0.742953,0.664472,4.924668,4.311634,1.733961
768.000000,0.002000,0.002503,1.077569,-0.492098,1.385723,-1.583961,-0.575794,0.282648,-5.660829,2.835804
769.000000,0.002000,0.394633,0.250733,0.075234,-0.889564,0.457390,1.494334,-4.304911,-3.741331,0.315783
770.000000,0.002000,0.588208,2.019360,-0.955096,1.185553,0.135686,-0.200653,-0.902067,-2.848922,1.386768
771.000000,0.002000,1.108771,-0.853020,-0.747606,0.210329,1.040144,-0.344605,-3.437404,3.100213,2.519777
772.000000,0.002000,0.089401,0.289956,1.237800,0.150744,-0.289967,-1.580504,-0.551370,-1.075112,-5.677878
773.000000,0.002000,0.347406,-0.796396,0.137836,0.740043,0.970818,-1.646607,-1.254168,6.200021,-1.515179
774.000000,0.002000,-0.139541,0.399763,0.262930,0.891780,-0.152185,0.651270,0.517480,-4.245995,-2.951884
775.000000,0.002000,-1.193530,0.774238,0.170985,2.655894,0.267317,-1.215899,4.204535,-3.153135,-0.639881
776.000000,0.002000,1.001125,0.902187,-1.329319,-0.205044,-2.700488,0.144420,-2.127931,-2.358201,2.576484
777.000000,0.002000,-0.241964,0.280070,-0.074535,-1.871223,-0.926348,1.217071,2.403343,-5.577118,0.870278
778.000000,0.002000,0.283231,0.602792,-0.635833,-0.538935,-0.337403,2.305436,-1.996805,-3.862455,5.144514
779.000000,0.002000,0.292798,-0.508733,-0.278415,-0.224838,1.910805,1.391611,-2.241186,5.813244,3.061557
780.000000,0.002000,-1.196915,0.051408,0.152190,2.407478,1.456997,0.851113,6.102525,0.053080,-0.879900
781.000000,0.002000,0.906907,0.359961,-1.147258,0.417361,0.729305,1.799501,-3.346436,-1.309247,4.318169
782.000000,0.002000,0.639537,-0.353047,0.998554,-1.199793,-0.302592,0.506194,-2.971859,1.628198,-4.738217
783.000000,0.002000,0.648392,1.124214,1.990568,-0.970137,-1.039251,-0.411782,-0.763598,-1.473106,-2.716276
784.000000,0.002000,-0.083202,0.473237,-0.381001,0.129386,-0.242678,2.615747,1.672832,-5.432292,5.129285
785.000000,0.002000,0.832588,-0.060199,-1.205875,-1.057644,2.988082,2.209442,-2.986711,0.168771,4.549515
786.000000,0.002000,0.143115,-0.199441,0.986825,-2.049971,1.105105,-0.396819,-0.762377,1.181937,-6.609764
787.000000,0.002000,0.625485,-1.719665,-2.714298,0.480014,-0.032085,0.324357,-0.354318,0.960728,1.525318
788.000000,0.002000,-0.832102,0.490882,-0.444804,1.398156,0.889691,2.494746,4.871667,-2.754919,2.746588
789.000000,0.002000,-0.174653,-0.597542,0.076693,1.558411,3.144684,-0.420398,1.835513,5.817266,-2.059835
790.000000,0.002000,-0.204462,-0.026044,0.406274,-0.623661,1.369518,-3.474293,1.341524,-0.813196,-5.580867
791.000000,0.002000,1.234320,0.025291,-1.403634,-1.188570,-1.419863,1.538488,-2.881404,-0.012386,3.167827
792.000000,0.002000,-1.480420,-0.102967,-0.447138,-0.075043,-1.340907,0.824832,4.585114,0.131025,1.297399
793.000000,0.002000,-0.544405,1.275540,0.403022,0.274051,0.027081,-0.601834,1.991852,-5.182887,-1.736808
794.000000,0.002000,0.468179,0.051042,1.267747,-2.581382,1.306219,-1.089921,-2.437252,-0.072963,-5.722213
795.000000,0.002000,-0.783563,1.049866,0.068986,-0.076868,-1.951520,-0.133901,3.344015,-4.687178,-0.273998
796.000000,0.002000,-1.641020,-1.904885,-0.204960,-1.554933,-0.147898,0.337803,1.877875,2.233862,0.290360
797.000000,0.002000,-0.732088,0.257328,-0.116284,-0.344738,-2.018593,0.214264,5.816778,-1.960813,0.882762
798.000000,0.002000,-1.281674,0.729477,0.521234,-1.388716,-1.461580,1.680505,4.236762,-2.521712,-1.624798
799.000000,0.002000,-0.216223,-0.006629,-0.011453,1.519276,-1.777923,1.450800,3.236922,0.118459,-0.123620
800.000000,0.002000,0.199466,-0.553409,-0.249641,-1.642285,1.041539,0.087669,-2.798200,6.138072,2.619558
801.000000,0.002000,-0.495784,-0.131867,0.135807,-1.105147,0.972870,0.063164,5.852321,2.283079,-1.292816
802.000000,0.002000,1.116060,0.292973,0.763057,-0.259860,-0.562917,0.143500,-5.693920,-1.383612,-3.749326
803.000000,0.002000,-0.089769,0.430591,-0.026675,1.662977,-1.845147,-1.932248,2.060703,-5.105934,0.931866
804.000000,0.002000,0.221887,-0.016753,-0.731112,-2.579615,2.041087,-0.637537,-3.551612,0.544283,6.412596
805.000000,0.002000,0.292671,-0.433987,-0.093585,-1.418748,1.226885,0.421298,-2.887520,5.376089,1.077654
806.000000,0.002000,1.202548,1.795524,0.744257,-2.130555,-0.806047,-1.444816,-1.768879,-2.606805,-1.115968
807.000000,0.002000,1.088107,-0.996455,0.638593,-0.211091,0.632769,-0.029701,-3.282448,3.028287,-1.927269
808.000000,0.002000,0.229496,-0.748843,-0.695354,1.352854,1.614918,0.173385,-2.182143,4.464104,4.193432
809.000000,0.002000,0.357234,0.064676,-0.651631,0.198776,1.564840,0.510517,-4.221816,-0.214721,5.791811
810.000000,0.002000,0.228029,-0.166815,0.210401,-2.004362,-0.563600,-0.542190,-1.503846,1.485680,-2.328693
811.000000,0.002000,-0.424960,-1.447806,-1.191230,-1.222510,-1.341427,1.055261,0.994773,3.173493,2.695221
812.000000,0.002000,0.191965,-0.421676,-1.366928,-0.433177,0.422882,2.479357,-0.979749,1.498993,4.976470
813.000000,0.002000,-0.402712,-0.838115,0.844127,0.310919,1.354650,-0.257790,2.218446,4.493136,-3.404825
814.000000,0.002000,-0.367256,1.043222,-0.623451,-2.107004,0.578931,0.716741,1.771122,-4.726605,3.153815
815.000000,0.002000,0.842068,0.157884,-0.663493,-0.511643,-0.651388,-0.077508,-3.558735,-1.210542,4.235405
816.000000,0.002000,-0.690865,0.273874,-0.601123,0.017754,-2.025596,0.317438,4.221935,-1.964582,3.796958
817.000000,0.002000,0.770964,0.787216,1.529955,0.923511,-0.929667,-1.572344,-1.776359,-1.707944,-3.419129
818.000000,0.002000,1.017194,0.817282,-1.309161,-2.088550,-0.485316,1.005994,-2.414889,-1.419294,2.873934
819.000000,0.002000,-0.347964,-0.987706,1.112707,1.100062,-0.610917,-2.075516,1.040774,3.442585,-3.751606
820.000000,0.002000,-0.223264,-0.017582,0.200111,1.674752,-1.137630,-0.136314,1.414359,0.132146,-3.922410
821.000000,0.002000,-0.956596,-0.062471,0.130047,0.853491,-1.174901,-1.038233,6.086110,1.123097,-3.110874
822.000000,0.002000,-1.067496,1.609288,-1.249394,0.769593,0.591891,2.449289,1.423978,-2.280802,1.796099
823.000000,0.002000,-0.202714,1.123129,-0.725981,1.224935,-0.317807,1.771278,0.786558,-4.475405,3.154402
824.000000,0.002000,0.305405,-0.897328,0.077174,-0.478836,2.023536,0.365695,-2.279489,6.214531,-0.590629
825.000000,0.002000,-1.946103,-0.200180,-1.699902,1.320547,1.673573,-0.059386,2.060880,0.120120,1.833044
826.000000,0.002000,0.147219,-0.207300,-1.170705,1.410194,0.682298,-0.258595,-1.033142,0.649147,6.226024
827.000000,0.002000,0.356861,-0.492891,0.365107,-1.747195,1.755924,-1.274880,-2.997679,5.455309,-3.932691
828.000000,0.002000,2.217719,-0.133921,-1.106228,0.903817,-0.675714,-0.317169,-2.627651,0.220776,1.349709
829.000000,0.002000,-0.997384,-0.059191,0.208401,1.553987,1.903808,-1.549947,6.773456,0.750185,-2.137532
830.000000,0.002000,0.070189,0.960216,0.566982,-0.302774,-0.782023,-1.159465,-0.252542,-5.715415,-3.347179
831.000000,0.002000,-0.223864,0.164928,1.424207,-0.834451,-0.834635,-2.068221,1.511236,0.216492,-5.318761
832.000000,0.002000,1.354804,-0.363460,1.193741,-0.756004,0.011111,-0.023815,-3.028390,0.843089,-2.733969
833.000000,0.002000,0.318964,0.138277,0.810039,-1.114234,-2.966327,-0.522398,-2.107177,-0.661837,-6.027100
834.000000,0.002000,-0.720691,-0.924907,-0.036565,1.189047,2.537152,-1.642508,3.738208,5.128278,-0.218985
835.000000,0.002000,2.263693,-0.699709,0.429947,0.302747,0.400168,1.478248,-2.844418,1.006641,-0.573529
836.000000,0.002000,-1.229191,1.459283,-2.650512,-0.333189,0.532682,-0.539672,0.686924,-0.820586,1.492710
837.000000,0.002000,-1.583272,0.996319,0.789366,2.336100,1.234029,1.996321,2.955017,-1.930965,-1.443512
838.000000,0.002000,-0.305326,-0.704086,0.314729,0.773762,-0.260849,-1.135444,1.411760,5.611510,-2.481179
839.000000,0.002000,-0.591430,-0.916081,-0.263896,0.046211,1.312977,2.035789,3.494438,5.682611,1.008269
840.000000,0.002000,1.410773,-0.283488,-2.268524,0.969753,0.708645,-1.706990,-1.429405,0.283753,2.121585
841.000000,0.002000,0.811311,1.132509,0.898886,1.428056,1.014350,-1.727498,-2.228071,-3.499935,-2.728634
842.000000,0.002000,-0.755445,-0.425220,0.725542,-1.996399,1.076434,-0.112493,4.378487,2.525678,-4.132144
843.000000,0.002000,0.925635,0.137998,0.207023,-0.546234,0.363543,0.497515,-6.500863,-1.228554,-1.744112
844.000000,0.002000,-0.341407,0.454386,1.221544,-1.387868,1.080628,1.558780,1.655897,-1.725186,-5.281961
845.000000,0.002000,-0.687184,-0.929079,-0.328035,1.443298,1.295996,1.605917,3.854390,4.966566,1.728325
846.000000,0.002000,0.298466,-0.134193,0.191181,-1.417371,-0.815769,-2.833993,-2.802375,1.766471,-1.022226
847.000000,0.002000,-0.066371,-0.948814,1.124947,0.329345,1.098421,-0.747162,0.029663,3.390591,-4.094152
848.000000,0.002000,0.496276,1.211204,0.379919,1.032816,-1.093128,-0.973845,-1.431724,-4.878062,-3.223873
849.000000,0.002000,1.532158,0.901170,0.908198,-2.277273,2.602674,-0.309349,-3.288357,-1.959250,-1.994093
850.000000,0.002000,0.629450,-0.639824,-0.904948,-1.314002,0.365871,-1.255348,-3.091532,2.937129,4.342951
851.000000,0.002000,-1.311977,-1.000991,0.450403,1.010416,1.913565,0.665919,3.596342,2.621465,-1.137151
852.000000,0.002000,0.413513,0.708653,-0.400788,-1.637651,-0.519424,-1.549874,-2.931558,-5.236842,3.713066
853.000000,0.002000,0.226820,-0.101639,-0.108423,-2.293587,1.572299,0.684159,-3.090971,2.021018,1.982040
854.000000,0.002000,0.745195,0.564414,-0.247308,-0.841450,-0.247487,0.171017,-5.323856,-3.657792,1.965866
855.000000,0.002000,0.738244,-0.901339,-0.771384,-2.045410,1.667881,-0.259352,-2.967961,3.715329,3.207487
856.000000,0.002000,-0.429529,0.960536,0.152952,0.075069,-0.684767,0.245889,2.757765,-6.273577,-1.481692
857.000000,0.002000,-1.418728,-0.004673,0.949389,0.290375,-1.472975,-0.820748,3.180661,-1.583578,-2.819248
858.000000,0.002000,1.221873,0.331477,-1.233059,0.714420,-0.904573,2.244383,-3.199109,-0.916258,3.181961
859.000000,0.002000,-0.320271,0.148093,-0.513259,2.105576,-1.233748,-0.326090,3.463303,-1.139065,5.880696
860.000000,0.002000,0.113763,-0.956471,-0.205805,-1.319134,1.836067,-0.119614,-0.142555,8.185590,1.994463
861.000000,0.002000,-1.265829,-2.397424,0.431739,0.549898,-0.655545,0.266805,1.110191,2.176305,-0.403376
862.000000,0.002000,0.747644,0.038393,-0.551145,-1.101763,-0.652875,-0.817026,-5.786721,-0.539465,2.306914
863.000000,0.002000,-1.475789,1.122057,-0.316135,0.848938,-0.147708,-0.596193,3.253713,-2.397965,0.852231
864.000000,0.002000,2.032935,0.434908,-2.580896,-0.052421,-1.343104,-1.154784,-1.089552,-0.230827,1.410007
865.000000,0.002000,1.264950,-1.119614,-1.417554,0.852671,1.139731,-1.268377,-2.233102,1.757379,2.207787
866.000000,0.002000,0.618560,-0.413392,-0.369418,1.596690,-0.308391,-1.744551,-4.988851,2.520030,3.343881
867.000000,0.002000,-1.201921,-0.966547,-0.077929,0.187128,1.120289,-1.765143,4.159331,3.396569,0.166819
868.000000,0.002000,-0.424466,0.338060,-1.998894,-0.949460,0.287516,1.179001,0.671459,-0.731558,3.598641
869.000000,0.002000,0.236979,-0.449680,-0.535296,0.898420,1.815338,1.829325,-3.110543,4.827654,6.182085
870.000000,0.002000,1.103367,-0.167419,-0.471875,-0.348317,2.669662,1.991281,-5.840521,1.067051,2.731398
871.000000,0.002000,-0.173749,0.062983,-1.521832,0.561161,-1.136049,-0.681298,0.401596,-0.524278,4.882485
872.000000,0.002000,1.832985,1.254662,-1.043304,1.062876,-0.838574,-0.131652,-2.213574,-1.580971,1.285674
873.000000,0.002000,-0.897009,-0.696091,-1.225988,-1.298538,0.508743,1.842767,2.802757,1.921616,3.514500
874.000000,0.002000,0.594065,0.582662,1.264547,0.452309,-0.680184,-2.626406,-2.206723,-1.798671,-4.433381
875.000000,0.002000,-0.879250,1.442479,0.963803,0.401341,-0.285637,-1.347903,1.879167,-3.032256,-1.915829
876.000000,0.002000,-0.956108,0.554492,0.793316,-2.404307,-0.642732,-0.892796,3.578359,-2.309410,-3.369543
877.000000,0.002000,1.650853,0.162807,-0.188159,-1.645568,-0.927674,-0.254434,-4.731363,-0.454005,0.529708
878.000000,0.002000,-0.825325,-0.058308,0.786421,0.800043,-0.938824,-1.348061,4.373212,0.452330,-4.116145
879.000000,0.002000,-0.378813,-0.719028,-0.029352,-1.344702,1.213536,-0.370595,3.287375,6.599189,-0.454443
880.000000,0.002000,-0.571422,0.351199,-1.429228,-0.844342,0.025349,1.396862,2.011228,-0.819129,4.565077
881.000000,0.002000,0.228493,0.714561,0.597977,-1.258812,-0.544046,-0.306798,-2.459906,-4.689056,-5.114493
882.000000,0.002000,-0.137145,-2.177760,-0.407646,-0.293161,-0.196464,-0.891032,0.165774,3.426213,0.651867
883.000000,0.002000,1.250254,-0.258875,-1.805677,0.124571,1.632725,0.987731,-1.940465,0.366361,2.784523
884.000000,0.002000,-1.292965,0.891050,0.499504,1.391516,1.035508,0.059773,3.838616,-2.849578,-1.485311
885.000000,0.002000,0.181279,-0.445506,-1.628703,-1.993530,-0.869114,0.535106,-0.585920,0.884747,4.851063
886.000000,0.002000,-0.621783,0.593884,0.545521,1.215050,-1.216021,0.564530,4.276267,-3.643642,-3.451638
887.000000,0.002000,0.184085,-0.254537,-0.336722,-1.648248,-1.662408,0.314814,-1.887552,2.367196,2.747907
888.000000,0.002000,0.029573,1.278234,0.417450,0.584969,-2.378472,-0.230445,0.423041,-4.937193,-1.569823
889.000000,0.002000,0.175776,0.216597,-0.121599,0.623855,-1.260826,-0.751669,-1.021563,-6.377720,2.582001
890.000000,0.002000,-2.268159,0.704664,1.354154,0.118315,0.014054,-1.422088,2.123367,-0.679929,-1.236839
891.000000,0.002000,-0.816455,0.688239,-0.518945,0.524448,-2.619955,-0.274332,4.098926,-3.821730,3.151157
892.000000,0.002000,0.092825,0.705945,0.200793,-0.719535,-1.985272,2.397593,-1.024122,-7.528199,-0.522437
893.000000,0.002000,1.080478,-0.792438,-1.118458,-0.944374,1.456775,-0.159907,-2.912983,1.768320,2.653690
894.000000,0.002000,-0.154373,0.526953,0.299423,1.445024,-1.170367,1.434283,0.873322,-6.076610,-2.523401
895.000000,0.002000,-1.439560,-0.587004,-1.037393,0.838646,-0.726828,-0.211719,3.236649,1.336213,2.367876
896.000000,0.002000,0.015043,-0.310740,0.396775,-2.084825,0.565732,0.163199,-0.355495,3.517961,-5.284127
897.000000,0.002000,-0.091840,0.432474,-0.282814,0.973577,-0.702033,0.213171,-0.317850,-4.565176,-2.191919
898.000000,0.002000,0.451296,-1.828920,-0.668588,0.176970,2.564264,-1.770345,-0.943211,3.637630,1.280267
899.000000,0.002000,-0.131313,0.311043,0.465011,-1.438178,1.056946,-1.412810,1.362625,-2.858349,-5.454522
900.000000,0.002000,0.310630,1.074529,0.230834,-1.419761,-1.502363,0.145681,-1.789322,-6.000821,-1.426685
901.000000,0.002000,-2.100105,-2.088822,-1.575721,-0.256154,0.714870,0.229361,1.097260,1.103883,0.828317
902.000000,0.002000,0.499748,0.107378,0.109411,0.722515,0.696121,-0.746556,-6.705801,-1.157587,-1.644644
903.000000,0.002000,-0.472139,-0.451271,0.443333,1.008984,1.343549,-0.874096,3.354367,4.044312,-3.718849
904.000000,0.002000,0.583656,-0.544842,0.015409,-0.988167,-0.067827,0.027005,-4.825551,4.999457,-0.142783
905.000000,0.002000,0.023915,0.417830,-1.132981,-1.056949,-0.589886,1.003244,-0.083811,-2.271450,5.826207
906.000000,0.002000,-0.171703,-0.711325,-0.007643,1.776294,2.372713,1.421956,3.139630,7.817245,-1.445085
907.000000,0.002000,0.610745,0.475949,-0.708882,-1.113397,-0.588309,1.671431,-3.296617,-3.200730,4.234356
908.000000,0.002000,0.748994,-0.243672,-0.189609,-0.282239,-0.640732,1.138768,-6.523582,2.746049,1.564783
909.000000,0.002000,-1.291516,-0.066427,0.761638,1.040825,0.410567,-0.184729,4.428517,0.713873,-2.306575
910.000000,0.002000,-2.333191,0.014860,2.816363,-0.210383,1.038205,1.157181,0.954614,-0.007197,-1.156241
911.000000,0.002000,0.856655,0.343369,-0.400027,-0.450221,-0.242234,1.416643,-5.695884,-2.742114,2.447415
912.000000,0.002000,-0.704457,-0.382350,1.838000,0.212628,-0.604159,-0.140735,1.274553,0.782043,-3.612525
913.000000,0.002000,-0.336093,-0.882037,1.260002,-2.001836,0.472281,-0.576727,0.847288,3.105793,-4.073725
914.000000,0.002000,-0.005360,-0.175510,-0.799114,0.859028,-5.074995,0.313427,-0.008245,1.077087,6.551020
915.000000,0.002000,-0.588574,-0.104986,0.694602,1.758322,-0.635027,-1.422420,4.144789,0.751793,-5.420273
916.000000,0.002000,1.258969,-0.102478,-1.356103,-0.065448,-0.655501,-0.276236,-3.004647,0.303280,3.193150
917.000000,0.002000,0.451116,-2.051469,-1.560737,2.356981,0.424590,-1.300831,-0.490144,2.138494,1.597387
918.000000,0.002000,-0.400490,0.429714,-0.033363,-0.015599,-0.540245,1.007597,3.794477,-4.535617,-0.080556
919.000000,0.002000,-0.744328,-0.067704,0.407825,-0.968423,1.032240,-1.563601,5.856798,0.580603,-3.496104
920.000000,0.002000,-0.682736,1.144464,1.445473,0.808693,0.387396,-1.861746,1.372390,-2.458926,-3.092826
921.000000,0.002000,0.454508,-0.611656,-0.100515,-0.674058,0.582383,1.278162,-2.224290,5.044999,0.404437
922.000000,0.002000,0.742553,-0.155026,-0.789468,-1.881800,2.748165,1.058782,-4.382252,0.885842,4.858896
923.000000,0.002000,-0.087446,-1.264598,-1.387339,2.884543,0.589420,-0.299076,0.266417,2.858164,3.238099
924.000000,0.002000,-0.181808,1.278521,-0.586621,-2.470185,-0.359055,0.794736,0.986118,-4.847951,2.216688
925.000000,0.002000,0.530888,0.397773,0.693279,0.192293,-1.542309,0.838552,-3.742481,-2.980980,-4.608255
926.000000,0.002000,-0.880538,-1.507575,1.501754,0.465394,0.355094,0.828485,1.219298,2.158527,-2.183119
927.000000,0.002000,0.288102,0.773671,-1.096538,-0.813840,0.004222,0.851804,-1.332138,-3.165132,4.494870
928.000000,0.002000,0.285341,0.596342,0.426149,-0.434123,-1.055147,-0.429231,-3.316028,-5.419614,-4.003064
929.000000,0.002000,-0.288999,1.690614,-1.383061,1.289258,1.220992,0.810960,0.422175,-2.642065,2.043816
930.000000,0.002000,0.539390,1.679495,1.338934,-1.182900,1.037401,-1.034338,-0.896507,-2.639572,-2.173960
931.000000,0.002000,0.048493,-1.220783,0.586100,1.008658,0.309074,-1.070452,-0.241811,5.184054,-2.489860
932.000000,0.002000,-1.106712,0.310724,-0.100678,-0.064224,0.391680,0.792119,5.553690,-1.326311,1.734718
933.000000,0.002000,-0.885424,0.343216,-0.913035,0.598236,-0.224775,1.931403,3.841730,-1.550691,4.392323
934.000000,0.002000,0.792015,-0.678241,-1.468041,0.146595,1.036694,1.385468,-2.186483,1.429968,3.917875
935.000000,0.002000,-0.190219,0.314434,0.549123,-0.099038,-0.709528,-0.903846,0.969107,-2.685737,-5.129222
936.000000,0.002000,0.845623,-2.064444,-0.947869,-0.120226,1.215529,0.356355,-1.068075,2.684643,1.188049
937.000000,0.002000,0.198928,1.240423,0.643673,0.102699,-1.524336,-0.801999,-0.923959,-4.817631,-2.855075
938.000000,0.002000,2.087820,-0.041294,0.303858,-0.220804,1.270370,-0.037763,-3.591094,0.115339,-0.552350
939.000000,0.002000,-0.532116,-0.485553,-0.597694,2.180939,0.194048,1.058208,4.738136,2.316454,4.317008
940.000000,0.002000,-0.605344,-0.382558,0.415623,0.928693,0.597483,0.592129,5.900726,3.794018,-2.752418
941.000000,0.002000,-0.346707,-0.900191,-0.171168,-0.495230,-2.935268,-0.696311,2.422658,6.521839,0.866737
942.000000,0.002000,0.496006,-0.171835,0.145309,1.671133,1.340081,1.029529,-5.418651,2.358763,-2.371180
943.000000,0.002000,-0.081662,0.701083,0.795634,1.063206,-0.048882,-1.055982,0.300933,-4.465148,-5.204404
944.000000,0.002000,0.820698,-0.216914,0.873153,-1.871482,1.832452,0.425793,-3.623665,1.606778,-4.656391
945.000000,0.002000,-0.690863,0.743055,1.362335,2.248394,0.612418,0.036465,1.992802,-1.965133,-3.905244
946.000000,0.002000,-0.062802,1.144237,-1.557923,0.252133,-0.329859,-0.430778,-0.082851,-2.915371,3.010539
947.000000,0.002000,-1.033715,0.304490,-0.068178,0.588551,0.938892,-2.990804,5.571382,-1.422003,0.558226
948.000000,0.002000,0.198945,0.060192,-0.540737,1.610018,1.294455,1.963728,-1.154895,0.850836,4.415635
949.000000,0.002000,0.303209,0.839292,0.220312,-0.007766,-2.007550,-1.727491,-2.501677,-5.981881,-2.708649
950.000000,0.002000,0.832530,-0.136712,-1.087740,-0.265770,0.305120,-0.504658,-3.315995,0.588736,4.546126
951.000000,0.002000,-0.280339,-0.148754,-0.281369,-2.409052,-0.075345,0.300784,3.584899,2.540597,3.748151
952.000000,0.002000,0.864718,0.136668,-0.670961,-0.970237,0.804155,1.148312,-6.218043,0.936819,4.895593
953.000000,0.002000,0.372669,-0.267164,-0.511212,-2.057504,-0.658960,2.163536,-4.754848,2.693293,5.425439
954.000000,0.002000,-0.866573,0.672247,2.114286,0.817384,1.328753,-1.089743,0.891382,-1.039836,-2.800833
955.000000,0.002000,-1.236138,-0.160473,0.515294,-1.397394,0.649577,-3.077291,5.028320,0.763596,-1.952464
956.000000,0.002000,0.631232,-0.841019,-1.009631,1.485899,2.117363,2.039555,-2.497523,3.281503,3.529569
957.000000,0.002000,1.159604,0.369497,1.556903,-0.626451,-0.925334,1.244855,-2.129028,-0.735668,-3.233018
958.000000,0.002000,0.529215,-0.007612,-0.215449,0.925100,2.071664,0.474907,-6.154845,2.344383,4.089731
959.000000,0.002000,-0.434585,-0.739370,0.288826,-1.088779,1.129871,-1.192417,3.629324,5.888936,-1.936067
960.000000,0.002000,-0.431645,-0.260642,0.112991,3.035775,0.676701,0.743369,5.080429,3.721229,-1.836114
961.000000,0.002000,-1.003292,-2.423929,0.251529,-0.592115,-0.031165,-0.541702,0.964405,2.399693,-0.309281
962.000000,0.002000,-0.832983,1.212259,-0.436065,0.288895,-1.057968,-0.004948,2.673312,-4.103734,1.597937
963.000000,0.002000,-0.327219,0.412151,0.139410,1.035855,0.436044,-2.818869,3.179516,-4.955513,-0.929167
964.000000,0.002000,-0.480747,0.231186,1.248824,0.539676,-2.234942,-1.368644,1.851488,-0.901865,-5.222986
965.000000,0.002000,0.917451,1.290613,1.352738,-0.487393,-1.284514,-0.276801,-1.595473,-2.325963,-2.379774
966.000000,0.002000,0.615011,1.388288,0.219883,-2.704852,-1.315571,-0.090880,-2.223727,-5.185272,-0.764927
967.000000,0.002000,-0.053064,-2.050400,-1.982146,0.976614,0.910790,-1.338720,0.033127,1.707208,1.607917
968.000000,0.002000,-0.440851,0.201833,0.384999,0.698016,1.384170,0.943772,4.488535,-2.872123,-3.912142
969.000000,0.002000,-1.050834,-1.730063,0.219255,0.257286,0.307776,0.849657,1.814409,3.267393,-0.446531
970.000000,0.002000,-0.320446,-0.485999,-0.450480,-0.045084,1.400604,1.469020,2.960706,4.325761,3.405967
971.000000,0.002000,-1.090760,-0.147495,-0.555244,0.485308,0.767014,1.264930,4.835090,1.003093,2.736413
972.000000,0.002000,0.423952,0.301841,-1.235892,-2.607359,-0.033204,0.218503,-2.459746,-0.752845,6.878672
973.000000,0.002000,-0.349867,-1.653634,1.037132,-0.079858,-0.531661,-0.402687,0.784297,3.526131,-2.136049
974.000000,0.002000,1.374718,0.085483,-0.617453,-0.782282,-3.149961,1.758771,-4.940667,-0.231552,2.283771
975.000000,0.002000,0.203434,-0.458237,0.184452,0.600105,0.605457,-1.484392,-2.042912,5.587534,-3.037750
976.000000,0.002000,-0.350222,0.244544,0.202559,2.424048,2.339495,1.428084,3.743096,-3.243153,-2.638026
977.000000,0.002000,-0.085157,-0.096925,-0.546932,-0.505894,-2.218335,0.381900,3.855759,2.363394,6.623061
978.000000,0.002000,0.169189,0.190566,-0.760236,-1.654000,-2.069275,-0.591841,-0.601359,-1.902216,5.494144
979.000000,0.002000,-1.156016,-1.094819,0.369774,0.752840,0.827711,-0.857724,3.061441,3.136945,-1.290933
980.000000,0.002000,-0.654618,-1.834764,-0.145065,-0.195342,0.430738,-1.945689,1.343857,3.863915,0.274902
981.000000,0.002000,0.014188,-1.210824,1.028158,-0.256089,1.133530,-0.991690,-0.174583,4.141913,-3.497105
982.000000,0.002000,1.106546,0.592418,-0.556708,-0.077775,0.795831,2.360451,-4.266188,-2.478696,2.082300
983.000000,0.002000,-0.877370,-0.022344,-2.028197,1.635436,0.740920,-0.190748,1.464698,-0.110846,3.384716
984.000000,0.002000,0.251185,-1.003144,-0.250118,-0.698154,2.053296,-0.914435,-2.011596,6.762807,1.674957
985.000000,0.002000,-0.375760,0.509030,-0.780717,0.139217,-1.141308,1.185786,2.824316,-3.635961,5.287283
986.000000,0.002000,0.079328,-0.779343,-0.099150,-0.735298,2.596842,-2.429914,-1.169883,6.883710,0.302064
987.000000,0.002000,-0.150218,0.657833,-0.793904,-0.017666,-0.259446,2.115965,1.332800,-4.742844,4.648282
988.000000,0.002000,-0.114525,0.447852,0.686017,-1.610656,-0.070115,-0.137854,0.282383,-3.106779,-5.933891
989.000000,0.002000,-0.222694,-0.041054,1.039382,-1.329098,0.503096,-1.535927,1.085160,0.424088,-6.343041
990.000000,0.002000,-0.186721,-0.437868,-0.183552,0.263927,1.631222,-0.088700,1.894436,4.978379,2.294515
991.000000,0.002000,-0.490825,-0.968190,-0.154680,1.808197,-0.426402,0.217399,2.743417,5.606547,0.443549
992.000000,0.002000,-0.203569,0.508342,2.403139,0.498563,0.677347,0.523221,0.026447,-0.525862,-2.940379
993.000000,0.002000,0.225502,0.421812,-0.321398,-1.292368,-2.404134,1.113979,-2.216148,-3.040573,4.450659
994.000000,0.002000,-0.766413,-0.615255,1.319319,0.024799,-0.259262,0.424692,2.280120,1.823971,-3.888256
995.000000,0.002000,-1.737360,-0.720207,-0.131741,1.692941,1.106481,-0.546714,3.891107,1.712872,0.414770
996.000000,0.002000,-0.224934,1.740974,0.032149,0.101556,-1.409272,-1.097058,0.450268,-4.942325,-0.040857
997.000000,0.002000,-0.091621,-1.596136,-1.215573,1.594794,0.615820,-1.796145,4.015766,1.811480,5.393882
998.000000,0.002000,-0.066640,0.379729,-0.224617,3.730213,-0.857431,-0.780180,0.260349,-4.014301,2.353591
999.000000,0.002000,0.261185,2.320653,-1.375094,-0.202906,0.136220,-0.896803,-0.225995,-2.127849,1.351661
1000.000000,0.002000,-0.125073,-0.774682,0.467260,0.353232,1.984611,0.992170,1.390579,4.888508,-3.440066
1001.000000,0.002000,0.752156,0.963475,-0.166323,-2.888068,0.354956,0.017995,-4.050332,-3.994207,0.873718
1002.000000,0.002000,0.357249,-1.196869,-0.633734,-0.020647,0.938425,-0.329772,-1.771906,5.511118,1.884343
1003.000000,0.002000,0.048135,0.451881,-0.736985,-0.091077,0.486991,2.991881,-0.024405,-3.952429,5.804640
1004.000000,0.002000,-0.262633,0.462078,-0.395355,-1.305509,-0.179607,0.728621,3.268028,-4.422003,5.708032
1005.000000,0.002000,-0.284694,-1.894364,-1.739676,-0.662781,-0.602878,-0.226356,0.344601,2.050561,1.882058
1006.000000,0.002000,0.402909,-0.677553,0.002713,0.219953,1.022621,-0.003181,-3.482658,6.227824,-0.257427
1007.000000,0.002000,1.478557,0.384565,-2.763324,1.427144,1.372641,0.488226,-0.923559,-0.245148,1.700610
1008.000000,0.002000,-0.086583,-0.974637,-0.817566,0.285346,-0.380825,-0.881944,0.497845,5.907431,3.170141
1009.000000,0.002000,0.624451,-1.486867,0.064339,-1.116394,0.983973,-0.518920,-2.151300,4.221655,-0.142767
1010.000000,0.002000,1.811728,-0.403208,0.683250,-0.112352,0.749300,0.284876,-3.541932,0.622893,-0.884504
1011.000000,0.002000,0.586921,0.129185,-1.000755,-1.574847,-0.320052,0.128138,-3.199209,-0.425065,6.081114
1012.000000,0.002000,-0.886094,1.509069,0.282592,0.060321,1.170112,-1.015954,2.463506,-3.857242,-0.688042
1013.000000,0.002000,-0.781754,-1.066976,-0.414775,0.537243,0.983656,2.579099,3.193065,4.308631,1.573412
1014.000000,0.002000,1.429866,-0.228341,1.567469,-0.963677,-0.364417,-2.462435,-2.340070,0.509495,-2.598266
1015.000000,0.002000,0.497631,-0.110404,0.064351,-1.071832,-1.367882,-0.923714,-5.391522,1.138406,-0.585855
1016.000000,0.002000,1.002468,-0.548794,2.328223,-0.206158,1.185900,-0.029228,-1.037198,0.511686,-2.283444
1017.000000,0.002000,0.078033,0.004101,0.784084,0.409778,2.053850,0.274655,-0.398876,-0.039462,-6.919483
1018.000000,0.002000,1.052052,-0.485551,0.675203,-0.750799,1.776969,-0.132363,-4.332280,2.968934,-3.024443
1019.000000,0.002000,-0.385707,-0.225926,-0.517241,1.503618,1.004684,0.712660,3.970573,1.826108,5.806016
1020.000000,0.002000,0.645073,-0.956607,-0.247047,-0.923590,1.309378,-1.017634,-4.056563,5.775656,1.496097
1021.000000,0.002000,-0.227811,-0.955803,-0.740487,0.492407,0.520160,1.824508,1.205260,4.976854,3.393526
1022.000000,0.002000,-1.743553,-1.589216,0.574789,-0.933126,0.528518,-1.001631,2.303129,1.960406,-0.839156
1023.000000,0.002000,0.048022,0.004839,1.028638,0.716093,-0.386764,-1.377372,-0.553219,0.095478,-6.211774
1024.000000,0.002000,-1.247104,-1.083413,0.465013,0.571744,0.143233,0.328572,3.097944,2.984817,-1.407417
1025.000000,0.002000,-1.659055,-0.717912,-1.219230,0.973681,-0.133245,-0.380588,2.830659,1.129513,2.052104
1026.000000,0.002000,-0.028222,-0.439713,1.087266,-0.990457,0.286791,-3.208408,-0.091196,2.154504,-5.663816
1027.000000,0.002000,0.382450,-0.294379,-0.329720,-2.238548,1.969404,0.691761,-5.081558,2.882547,3.455857
1028.000000,0.002000,-0.137335,3.652017,-1.382930,0.541361,0.612320,0.421515,0.045785,-1.220163,0.469651
1029.000000,0.002000,0.223713,-2.398824,-0.190128,-0.006307,-0.157642,-0.414214,-0.237418,3.013046,0.307804
1030.000000,0.002000,1.765670,-0.469404,1.340275,-0.872987,0.002711,0.226931,-2.552483,0.795389,-1.976117
1031.000000,0.002000,-0.184271,-0.023435,-0.394978,-0.095551,1.140062,0.449034,2.238306,-0.023503,6.976238
1032.000000,0.002000,-1.150977,-0.663460,-1.459780,-0.960499,0.206971,0.248452,2.358160,0.961350,2.865954
1033.000000,0.002000,0.959623,-0.918985,0.447471,-2.101815,-0.784173,0.077355,-3.921956,3.577986,-1.878006
1034.000000,0.002000,0.021626,0.690135,-0.726134,2.543156,-1.863044,-0.466447,-0.554550,-4.981886,5.494656
1035.000000,0.002000,0.111242,-1.789966,0.251778,0.473747,0.942275,-0.462781,-0.813170,4.320017,0.135745
1036.000000,0.002000,1.846237,-0.501205,-0.285556,-0.650491,1.117021,0.525558,-3.848274,1.044219,0.717707
1037.000000,0.002000,-0.690727,-0.211325,-0.006103,2.139563,-0.542566,-0.032042,5.988276,2.652190,0.704526
1038.000000,0.002000,0.127713,0.752186,-1.247821,-1.610019,0.034791,-0.333290,0.159375,-3.265770,4.902788
1039.000000,0.002000,0.275553,-0.473726,-0.659147,-0.089913,0.115123,2.057154,-2.032732,3.444198,6.634331
1040.000000,0.002000,-0.253880,3.790530,2.949460,-0.309419,-0.174166,1.480189,0.045453,-0.678808,-0.529144
1041.000000,0.002000,0.062493,1.256675,-0.580440,-0.205598,-2.133923,-1.023867,-0.289543,-5.547762,2.437125
1042.000000,0.002000,0.845330,-1.745099,-1.286197,2.064990,1.054558,-0.484984,-1.258639,2.537433,1.757829
1043.000000,0.002000,-0.547919,-0.003277,0.189449,1.462284,-0.279258,0.236882,6.305619,-0.173477,-2.534690
1044.000000,0.002000,-0.777623,-0.731563,-0.389328,0.237874,0.311756,-0.279209,4.482099,4.021142,2.409837
1045.000000,0.002000,-1.669595,-0.435248,-0.268086,0.075795,0.708202,0.448748,4.379106,1.285477,0.835726
1046.000000,0.002000,-0.285591,-0.392381,-1.006537,2.917880,0.156768,0.439106,1.717655,1.521259,5.948505
1047.000000,0.002000,1.312775,-0.233600,-0.350572,-0.741452,0.265761,-0.167546,-5.438435,1.241552,1.536642
1048.000000,0.002000,0.579308,0.563516,-0.894829,0.019633,-0.395505,2.954651,-2.830678,-3.124723,4.687517
1049.000000,0.002000,-0.750199,-0.471589,-0.092839,-0.207334,1.731613,0.258520,5.304465,3.381649,0.245285
1050.000000,0.002000,-0.281463,0.161829,-1.147185,0.977523,-0.265606,0.537953,1.470795,-1.303392,6.311464
1051.000000,0.002000,-0.953108,0.574413,0.619746,-0.273787,2.745814,-1.799582,4.066478,-2.673505,-2.924046
1052.000000,0.002000,0.362955,0.356596,0.191656,-0.656077,-0.675970,1.122231,-4.064912,-4.875315,-2.149666
1053.000000,0.002000,-0.323620,0.090385,0.717339,0.543214,-1.512376,-1.084567,2.418004,-0.641532,-6.349211
1054.000000,0.002000,0.055205,1.701645,0.532594,0.080509,0.616760,-2.256749,-0.170457,-4.480616,-1.518841
1055.000000,0.002000,-0.466588,0.354415,0.031988,3.983903,-0.537297,0.252317,5.181771,-2.613853,-0.080285
1056.000000,0.002000,0.063628,0.847974,-0.143040,-0.854356,-1.629711,2.451010,-0.423527,-8.089351,1.697276
1057.000000,0.002000,-1.334536,0.778321,-0.609039,1.348924,-1.198868,1.287375,3.577377,-2.224624,1.922214
1058.000000,0.002000,-0.892697,-0.184315,0.100585,0.576014,-0.777709,2.148739,8.055043,1.920286,-2.811381
1059.000000,0.002000,-0.772321,-0.142295,-0.620204,2.909255,-0.398973,0.908016,4.751774,0.776086,3.698819
1060.000000,0.002000,-0.085165,-0.653956,-0.517103,-1.801847,0.384991,1.084193,0.841374,4.845555,4.033242
1061.000000,0.002000,0.170367,0.820348,0.427530,0.854043,-1.448651,-1.820432,-1.441962,-5.820242,-4.206401
1062.000000,0.002000,-0.674066,2.447255,-0.301625,1.190975,-1.350861,0.136571,0.673548,-2.459251,0.277060
1063.000000,0.002000,-0.850320,0.521831,-0.145767,1.618423,-1.384642,0.853446,5.361237,-2.828415,1.318139
1064.000000,0.002000,2.865984,0.973623,-0.011901,1.318162,0.148053,0.482759,-2.020950,-0.675821,0.006621
1065.000000,0.002000,0.488690,1.058448,-0.623405,-3.212635,-0.075072,2.004464,-2.354161,-4.863617,3.171645
1066.000000,0.002000,0.578607,0.047230,-0.079032,-1.744676,1.619986,0.112687,-5.837194,-0.581339,1.143008
1067.000000,0.002000,-0.111588,-0.054255,-1.291798,-0.593866,2.225860,1.070309,0.712696,0.241397,6.138197
1068.000000,0.002000,0.404388,-1.508818,-2.385826,0.025713,-0.074070,0.859761,-0.366315,1.225438,1.975690
1069.000000,0.002000,-1.343942,0.495166,-0.400061,-0.396309,0.088010,-0.002347,4.701823,-1.776629,1.369906
1070.000000,0.002000,0.840321,0.269569,-0.649643,-1.891561,-0.029815,0.914527,-5.602767,-1.965371,3.185376
1071.000000,0.002000,-0.372384,-0.814422,0.865614,0.397451,2.278685,-1.161181,0.757084,3.263526,-4.665949
1072.000000,0.002000,-1.417566,-0.886505,0.321611,0.616392,0.578304,1.109331,3.925826,2.697133,-0.724207
1073.000000,0.002000,0.376737,-1.409596,-0.031946,0.764687,1.169536,2.370471,-1.158906,6.289105,-0.076531
1074.000000,0.002000,0.603302,0.787465,-0.195365,0.293455,-1.812581,-1.328498,-4.432635,-5.051800,1.474421
1075.000000,0.002000,0.522209,-0.163936,-0.735861,0.923659,4.068880,0.443776,-5.155547,1.313645,5.548462
1076.000000,0.002000,0.378349,0.532978,0.566434,-0.840279,-2.088214,-1.494088,-3.319693,-4.031197,-4.744573
1077.000000,0.002000,0.779362,0.895069,3.083692,1.536239,-0.891541,0.161172,-0.437863,-0.495662,-1.668590
1078.000000,0.002000,-0.433657,-0.491806,1.323305,0.585506,1.052923,-1.261153,1.041349,1.625946,-4.944400
1079.000000,0.002000,0.440637,0.502642,0.195986,-0.104951,0.410851,-0.857711,-4.849243,-4.625594,-1.034676
1080.000000,0.002000,-0.484192,-0.714358,-0.606464,0.932354,1.528511,1.003880,3.641810,3.977596,3.689741
1081.000000,0.002000,0.668028,-0.952347,0.966397,-1.935329,1.772554,0.729248,-2.382476,3.193094,-3.171332
1082.000000,0.002000,-0.684643,-0.318875,0.554934,0.458487,0.419725,-1.173153,4.812543,1.587657,-3.845446
1083.000000,0.002000,0.800111,0.291984,-1.210395,-0.532811,-0.286116,2.450580,-3.009094,-1.028895,4.566804
1084.000000,0.002000,1.269896,0.468589,0.227285,-1.564201,-2.550391,0.202855,-4.930261,-1.668464,-1.116522
1085.000000,0.002000,-0.168898,1.923617,0.423736,-0.397414,-0.483731,-1.536312,0.516760,-4.002863,-0.789450
1086.000000,0.002000,0.628949,-0.257949,-0.002437,0.935692,0.597295,0.562266,-6.854502,2.304262,0.363202
1087.000000,0.002000,1.080512,0.574585,-1.611228,-0.622111,-1.404640,0.545363,-2.076291,-1.071636,3.048240
1088.000000,0.002000,0.854900,1.488738,-0.922443,0.677381,1.030624,1.925378,-1.747684,-3.099541,1.788296
1089.000000,0.002000,0.066877,-1.590973,0.341047,0.161710,1.283809,0.385726,-0.096894,4.722112,-0.709208
1090.000000,0.002000,-1.349831,-0.695738,0.203488,2.599564,0.283500,2.066259,4.427960,2.179690,-0.517383
1091.000000,0.002000,-0.334046,0.979123,0.485531,1.273111,-2.122205,-0.527972,2.490829,-5.759803,-2.589955
1092.000000,0.002000,-0.512245,-0.739177,-0.537824,0.367414,1.263449,-0.291042,6.821059,-1.078843,-0.473210
1093.000000,0.002000,-0.725691,1.452603,2.026845,0.945257,0.909984,-0.374033,0.799791,-1.541234,-2.147565
1094.000000,0.002000,1.214320,1.240759,0.269644,-0.302972,1.690853,1.050821,-3.309291,-3.113444,-0.530931
1095.000000,0.002000,-0.455760,1.481314,-0.553250,0.053026,-1.432349,0.359067,0.537792,-4.081494,1.192704
1096.000000,0.002000,1.100548,-0.498034,-0.444979,-1.996525,2.056228,-0.140234,-5.313494,2.575467,1.636827
1097.000000,0.002000,-1.211185,0.368786,-1.024436,1.883990,0.361689,1.131514,3.583063,-1.271968,3.224295
1098.000000,0.002000,1.325438,0.481724,-0.150341,-1.677009,-0.106211,-1.742726,-4.957845,-1.962798,0.788582
1099.000000,0.002000,0.358305,-1.731918,0.100294,-0.031143,-0.732197,-0.139242,-1.134581,4.324720,-0.273848
1100.000000,0.002000,1.744608,0.918345,-0.578333,-0.854945,2.044288,1.389298,-3.099907,-1.790548,1.124043
1101.000000,0.002000,-2.200440,-0.877116,-1.526390,-0.498164,-0.262288,0.886519,1.882484,0.698661,1.364141
1102.000000,0.002000,0.786626,0.964317,-0.297729,-0.761204,-0.221745,1.834920,-3.996419,-4.240520,1.924462
1103.000000,0.002000,-0.022319,-0.377321,0.372841,-1.772004,1.106799,0.527629,0.101046,4.987551,-4.972704
1104.000000,0.002000,0.160838,-0.043439,0.364544,-0.941716,1.313197,-0.700246,-2.430867,0.238340,-4.018743
1105.000000,0.002000,-1.128258,0.322145,-0.062857,2.395554,0.302912,-0.015304,6.272447,-1.665078,-0.049020
1106.000000,0.002000,-2.288430,-1.717528,-2.129281,-0.408566,0.400348,-0.480269,0.901230,0.792232,0.975947
1107.000000,0.002000,0.240499,0.071420,0.147617,-0.969187,-0.200937,-0.671598,-3.713822,-1.645115,-1.875103
1108.000000,0.002000,-1.314560,0.978888,0.816524,0.614503,-0.837949,-0.797256,3.083103,-2.432327,-1.936350
1109.000000,0.002000,-0.396694,0.484261,0.442413,1.519570,-2.554901,1.456031,3.329320,-5.618523,-4.531044
1110.000000,0.002000,-1.587215,-0.816743,1.064355,0.977160,2.390132,0.533577,3.047078,1.578772,-1.926537
1111.000000,0.002000,-0.117119,0.392531,0.176165,0.135319,-1.949578,0.445047,0.647712,-3.812795,-1.994566
1112.000000,0.002000,-0.065506,1.782847,1.215632,-0.834180,-1.404608,-0.827910,0.181116,-3.079186,-2.007975
1113.000000,0.002000,0.157250,0.287802,0.796566,1.469655,-0.677462,-0.222017,-2.070957,-2.346345,-7.666072
1114.000000,0.002000,1.135697,-0.164822,-1.223472,0.251675,-0.611068,-1.124164,-3.356807,0.439784,3.724791
1115.000000,0.002000,0.173480,-0.284296,1.197888,0.389320,0.740903,-2.161076,0.229971,1.483500,-6.207728
1116.000000,0.002000,1.556092,-0.869219,0.507634,0.048468,-1.323024,-0.073357,-3.336259,2.168139,-1.100350
1117.000000,0.002000,-0.522694,1.186835,0.604635,-0.605253,-0.806152,-1.640318,2.208263,-4.724372,-2.685018
1118.000000,0.002000,1.023284,0.230987,0.227814,0.275033,-2.048765,-1.388651,-6.145433,-1.580497,-1.558641
1119.000000,0.002000,0.189783,0.568660,0.463283,-3.128927,-0.605447,0.247794,-2.890834,-5.426512,-4.528119
1120.000000,0.002000,-0.838203,-0.969970,0.062186,-0.068508,2.360298,0.157815,3.836814,4.557436,-0.462328
1121.000000,0.002000,-0.480771,0.187447,0.819559,1.133293,0.165921,-1.666557,3.134227,-1.463495,-5.845580
1122.000000,0.002000,-0.020929,-0.252226,-0.478794,-0.499974,0.710356,1.797801,0.825385,1.926145,5.644430
1123.000000,0.002000,-1.429615,1.352166,-1.725285,0.287138,-0.227180,0.485712,1.454181,-1.504072,1.898879
1124.000000,0.002000,-0.866662,-2.379955,-0.575025,0.358129,0.330962,-0.540573,0.892291,2.495883,0.598079
1125.000000,0.002000,-0.092485,-0.435643,0.107642,0.878790,0.632963,0.175566,0.896729,4.628408,-1.112315
1126.000000,0.002000,-0.323935,-0.967065,2.020902,1.378988,0.135903,-0.078553,0.449580,1.581882,-2.979444
1127.000000,0.002000,0.040377,1.292128,-0.252077,1.051464,0.043696,1.848929,0.116233,-6.002412,1.042651
1128.000000,0.002000,1.811124,1.132443,0.503483,-0.045360,-1.414183,0.517991,-2.986713,-1.989353,-0.979034
1129.000000,0.002000,-1.036940,0.101013,0.124937,1.199556,0.006393,0.176750,6.334436,-0.177404,-0.291063
1130.000000,0.002000,-0.518807,-1.054234,-1.346844,-1.772711,0.284070,1.179935,1.263982,2.856735,3.501777
1131.000000,0.002000,-0.214521,-0.065335,0.382383,-0.867940,0.027562,0.418426,1.547486,1.641746,-4.156185
1132.000000,0.002000,0.528278,-0.848845,0.362625,-1.776433,2.301064,-2.039818,-3.249212,5.061525,-2.664749
1133.000000,0.002000,-0.805288,-0.134399,-0.958508,0.490852,0.815200,0.435210,3.678011,0.406886,4.603449
1134.000000,0.002000,-0.362208,-1.646576,-0.518955,-1.014378,1.467424,0.303508,1.153969,4.505879,1.093060
1135.000000,0.002000,0.113402,0.799990,-0.014709,1.704278,-2.345367,-0.369984,-1.087533,-7.243917,0.266541
1136.000000,0.002000,1.270508,0.414158,-0.334599,0.575979,0.843861,2.239220,-5.838194,-0.685822,1.573216
