# 
#                 columns are tag, mass, x, y, z, vx, vy, vz, ax, ay, az
#                 Time=0.300000
# 
1.000000,0.002000,1.734478,0.462036,1.042870,-0.534865,0.104882,-0.092327,-2.940604,-0.701553,-1.807125
2.000000,0.002000,2.216578,2.007774,-0.977860,-0.291597,0.279641,0.094106,-1.370995,-1.269655,0.632342
3.000000,0.002000,0.536324,-0.359185,-0.324985,-1.927249,-0.532776,-0.614779,-4.270396,2.026793,1.821407
4.000000,0.002000,0.343342,-0.305944,0.695205,-0.488047,-1.334797,-3.172594,-1.875082,2.220236,-4.457614
5.000000,0.002000,0.729890,0.287621,0.230406,-0.742909,0.339207,-0.928194,-4.979030,-2.064667,-0.767040
6.000000,0.002000,0.123166,1.273215,0.020407,-0.748981,-1.492561,0.799763,-0.093324,-5.866884,-0.157061
7.000000,0.002000,-0.086033,-0.593020,-2.403627,-1.341516,0.979695,0.903820,0.048823,0.713525,2.848177
8.000000,0.002000,0.682746,1.004623,-0.599029,-0.248365,-0.017574,0.887814,-3.513115,-3.638500,1.827517
9.000000,0.002000,2.677530,-1.259048,0.251781,1.064610,0.812062,0.651549,-1.922625,0.899172,-0.278820
10.000000,0.002000,-0.802891,1.709461,1.786707,-1.944278,0.282343,0.746830,0.860856,-1.839833,-1.876596
11.000000,0.002000,-0.294294,0.388022,-0.348716,-1.343765,-0.330430,2.314583,4.084684,-2.736331,4.596067
12.000000,0.002000,-1.848521,-0.746658,-0.508152,0.959919,-1.134998,-2.158184,3.288366,1.657057,0.798686
13.000000,0.002000,0.796753,1.062781,-0.211729,-1.906498,-0.963755,0.706636,-3.374616,-3.990543,0.821124
14.000000,0.002000,-0.282641,-0.329359,-1.635671,0.183936,2.601590,-0.090470,0.684456,0.956343,4.371033
15.000000,0.002000,-1.729722,1.912932,-0.788614,0.170084,-0.398671,-0.828442,1.640885,-1.799590,0.749041
16.000000,0.002000,-0.203005,-1.189272,0.495470,0.958414,0.780538,-1.260907,0.822389,4.537666,-1.991388
17.000000,0.002000,-1.678264,-0.024630,-0.787583,0.320773,0.649731,0.657978,4.012358,0.084307,1.723386
18.000000,0.002000,0.228686,-0.367909,-1.711479,-0.663573,0.589776,-1.120649,-0.567604,0.650973,4.465090
19.000000,0.002000,0.510084,0.725663,-0.023756,1.464418,0.522581,-0.252127,-3.120895,-3.907956,0.468563
20.000000,0.002000,0.135418,-0.496967,-0.172968,-0.656302,0.952174,0.820691,-1.122269,3.449599,0.647092
21.000000,0.002000,-0.975894,-0.515766,-0.958453,-0.565503,-0.286374,0.003995,3.162290,1.628468,3.311104
22.000000,0.002000,-1.592803,0.066588,-0.971017,0.952507,-0.431488,-1.617247,3.557048,-0.247655,2.357321
23.000000,0.002000,-1.637382,0.233786,-0.957340,0.466199,-0.865822,0.155092,3.373466,-0.574043,2.214199
24.000000,0.002000,0.318425,0.525395,0.507654,0.633090,-1.202553,0.873538,-3.653209,-3.577282,-3.641934
25.000000,0.002000,1.212942,-1.192745,0.153508,-0.165895,0.589158,-0.893107,-3.013685,3.192130,-0.414789
26.000000,0.002000,-0.464572,-0.687747,-0.475977,1.149451,1.116828,0.694236,2.660401,3.368219,2.438211
27.000000,0.002000,0.389902,0.211385,-0.810806,2.193631,0.354107,1.851532,-1.457576,-1.843208,4.253480
28.000000,0.002000,0.881670,0.178098,-1.549766,-0.346369,-1.046146,0.500211,-2.071565,-0.445310,3.841573
29.000000,0.002000,1.545758,2.093512,1.202841,0.002825,0.398843,-0.075702,-1.230359,-1.693238,-0.998122
30.000000,0.002000,0.122969,-0.770762,0.993827,0.955780,1.476115,-0.811596,-1.240199,2.872745,-4.512800
31.000000,0.002000,-0.346906,0.778466,0.295286,0.445648,-2.134545,0.100405,1.888345,-4.823779,-2.210933
32.000000,0.002000,0.983797,0.343550,0.525598,-0.567623,-0.241787,-0.981376,-4.459780,-1.866726,-2.218332
33.000000,0.002000,0.341914,1.266684,-0.181440,0.985846,-2.504765,-0.973875,-0.798566,-5.086802,0.609807
34.000000,0.002000,0.695657,1.521688,-0.758257,0.803452,-1.675768,2.236270,-1.578220,-3.609476,1.862475
35.000000,0.002000,-1.117401,0.902331,-0.633126,0.922245,-0.558618,2.113106,3.180601,-2.579473,1.960734
36.000000,0.002000,1.995892,-0.365632,-0.072323,-0.363522,0.271669,2.321101,-3.778283,0.720500,0.165697
37.000000,0.002000,1.749607,1.759180,1.901956,-0.748260,0.769104,-0.072062,-1.080861,-1.113643,-1.221292
38.000000,0.002000,1.294829,-0.608257,1.948600,1.073846,0.976396,-0.232845,-1.588633,0.874359,-2.305620
39.000000,0.002000,-0.466487,1.282492,1.402662,-0.535525,1.157536,1.037933,1.345064,-2.767490,-3.149220
40.000000,0.002000,-0.272952,0.389878,0.781845,-0.231459,-1.065172,-1.055836,1.697744,-1.882694,-4.484109
41.000000,0.002000,0.512721,-0.585262,0.500116,0.106589,2.241609,0.280237,-3.338527,3.429345,-3.597966
42.000000,0.002000,1.040977,-0.494322,-0.302492,-1.637974,0.986164,-0.366292,-5.405304,2.127547,2.119534
43.000000,0.002000,-0.231554,1.312898,0.878048,0.815080,-2.359748,0.382859,0.929541,-4.004156,-2.703227
44.000000,0.002000,0.441105,-0.532767,0.657660,-0.253448,1.196971,-0.131659,-2.402397,2.951745,-3.761675
45.000000,0.002000,-0.279380,0.386552,-0.433473,1.692974,0.845394,1.176449,2.133636,-2.592973,4.002924
46.000000,0.002000,1.166930,0.161382,-0.297544,0.994279,-1.616588,-0.113985,-5.582565,-0.642375,1.282136
47.000000,0.002000,0.129122,-1.124952,-0.911201,-0.915829,0.392503,2.422006,-0.116692,3.796661,3.236775
48.000000,0.002000,0.050155,0.060620,0.282751,-1.502577,-0.316106,-1.597225,-0.567270,0.222990,-2.644494
49.000000,0.002000,2.109018,0.812925,-0.128688,-1.337657,-0.601715,2.694226,-3.265741,-1.320874,0.176122
50.000000,0.002000,1.517167,-1.073663,-0.589606,0.887681,1.178583,-0.280711,-3.051281,2.242452,1.086838
51.000000,0.002000,-0.477000,1.562392,-0.289867,-1.236899,-1.108522,1.637896,1.319876,-4.671878,1.016150
52.000000,0.002000,-0.956478,-0.420254,-0.279266,0.074473,-0.849151,1.491076,5.007049,3.116371,0.452238
53.000000,0.002000,0.857160,-1.274593,-1.235913,-1.161055,-0.255808,0.042504,-1.689634,2.750304,2.304720
54.000000,0.002000,-0.299839,-0.335463,1.716861,0.565426,0.663509,-1.282164,0.624413,0.881757,-4.273556
55.000000,0.002000,0.658383,0.714291,-0.867533,-1.302654,1.767446,1.739410,-2.383034,-3.172000,4.521751
56.000000,0.002000,0.612175,-1.158001,-1.482084,-0.948155,-0.194879,0.666249,0.551069,2.344017,3.585290
57.000000,0.002000,0.753070,0.394001,0.488071,-1.936486,0.029796,-1.911321,-3.287720,-1.054241,-2.409721
58.000000,0.002000,0.483468,0.737119,-0.583869,0.275581,-0.895674,0.632801,-2.350300,-3.642125,2.927734
59.000000,0.002000,-0.993324,0.903697,-0.781549,0.512824,0.377989,0.440873,2.812423,-2.756995,2.618825
60.000000,0.002000,-0.298022,-0.606284,0.180806,1.700900,-0.008075,0.466625,2.483250,5.653530,-1.943638
61.000000,0.002000,-0.630381,-1.028831,-0.787496,-0.655790,1.699950,-0.120611,2.366954,3.560389,2.885064
62.000000,0.002000,-2.138883,0.874337,-1.542313,0.558003,0.730551,0.406683,1.819688,-0.837481,1.444628
63.000000,0.002000,-1.056018,-0.021670,-0.714266,0.713004,-0.282799,0.422484,4.452611,-0.392461,2.914747
64.000000,0.002000,1.594644,-1.103229,-0.334045,-0.263619,0.971433,-1.960123,-3.070794,2.181256,0.628171
65.000000,0.002000,-0.193898,-1.288900,0.051109,-0.473688,0.322372,-1.694669,0.599135,4.931240,-0.353455
66.000000,0.002000,-0.380705,1.171094,1.155657,-0.550866,0.832407,0.692574,0.459005,-3.600767,-3.470263
67.000000,0.002000,2.393263,0.214105,-0.625678,0.350741,-3.842801,-0.751650,-2.825075,-0.304509,0.777039
68.000000,0.002000,-0.374819,0.340360,0.414181,-0.205628,-3.030701,-1.184223,1.625467,-1.062183,-3.025626
69.000000,0.002000,-0.016808,-1.110188,0.373112,-2.349101,2.405729,1.138004,-0.811349,4.242402,-2.432541
70.000000,0.002000,-0.816479,0.154605,0.178208,0.378631,-0.552846,0.867461,5.085305,-1.031789,-1.534143
71.000000,0.002000,0.885558,0.009718,0.783931,-0.648505,-1.015547,-0.651900,-4.009357,1.050703,-3.950554
72.000000,0.002000,-0.455016,-0.840182,-0.278171,0.434253,0.957746,0.697876,1.754613,4.570989,2.448781
73.000000,0.002000,-0.003087,0.559129,1.386366,0.016807,0.446802,-3.509581,-0.175566,-1.738817,-4.266524
74.000000,0.002000,-0.079638,-0.861242,-0.767334,-0.112194,0.893711,-0.961446,-0.259952,3.876596,3.764320
75.000000,0.002000,-1.083675,0.717050,-1.661018,-1.805903,0.584215,0.053162,1.863824,-1.263833,2.926114
76.000000,0.002000,0.204671,0.530570,-0.052550,0.302693,0.862036,-0.952479,-1.622913,-3.674563,0.559888
77.000000,0.002000,-0.384948,-0.090182,-0.920333,1.056116,0.653350,2.327011,3.364320,2.397794,5.111167
78.000000,0.002000,-0.170992,-0.175936,-0.175023,1.366042,1.485366,-2.029521,1.786894,1.420755,0.840827
79.000000,0.002000,-1.580797,1.052683,2.265095,-1.192181,0.756939,2.270284,1.182192,-0.831338,-1.726764
80.000000,0.002000,-2.100669,0.076359,0.313577,0.429860,-1.244896,-1.308730,3.627302,-0.321185,-0.487270
81.000000,0.002000,-0.121354,-0.339075,-0.006262,2.024791,0.544378,0.359542,0.834676,2.388086,-0.208218
82.000000,0.002000,-0.333084,-0.774835,-1.526411,0.000182,-1.318914,1.150073,0.782675,2.145210,4.255962
83.000000,0.002000,1.443797,0.724027,-0.891002,0.505885,-1.462858,0.039955,-3.405668,-1.595927,2.153313
84.000000,0.002000,-2.147932,0.762768,-0.516523,-1.794582,0.627047,0.334487,2.844746,-1.115025,0.784723
85.000000,0.002000,0.115460,-0.177394,0.681540,-0.257717,0.830525,-0.588575,-0.529414,1.432143,-5.135790
86.000000,0.002000,0.603206,-0.719254,-1.611317,-0.533866,0.257325,-0.203733,-1.399395,1.622299,3.983974
87.000000,0.002000,-0.868271,0.757956,-1.517982,2.683293,0.269299,-0.689149,1.846209,-1.733432,2.913844
88.000000,0.002000,-0.521661,-0.214120,-0.244874,0.545725,1.620872,-0.400335,4.662852,1.249111,1.967467
89.000000,0.002000,-1.246430,0.390415,0.793804,2.859873,0.545407,0.626290,3.984586,-1.107989,-2.189886
90.000000,0.002000,-0.208060,-0.344124,-0.410551,-0.922301,0.196181,-1.444196,-0.964300,4.351819,2.280039
91.000000,0.002000,0.279864,-2.595703,1.801578,-0.426831,0.812965,-0.672779,-0.182345,1.578366,-1.116259
92.000000,0.002000,0.611133,-0.256937,-0.041822,0.229793,1.652903,1.287506,-5.601415,2.193151,0.220884
93.000000,0.002000,0.580565,-0.628939,-1.532405,0.089537,-1.525400,2.250893,-1.880966,2.245227,3.536296
94.000000,0.002000,1.800655,-0.160735,1.163878,-1.311383,-0.140291,0.223198,-2.882603,0.214070,-1.932164
95.000000,0.002000,-0.660335,1.399267,0.125710,0.371869,-1.067881,-0.620773,1.943286,-4.459824,-0.412208
96.000000,0.002000,1.060026,-0.807722,0.737640,1.133445,1.162380,-1.954692,-2.530893,3.024651,-2.242705
97.000000,0.002000,0.654519,1.229626,-1.395114,-0.316252,-0.675491,-2.172644,-1.294824,-2.256159,2.801565
98.000000,0.002000,-0.378843,2.116196,-0.577746,0.416072,-1.065265,1.758326,0.518630,-3.282532,1.008575
99.000000,0.002000,0.120551,1.127832,0.028967,0.909512,-0.828167,-0.261918,0.372605,-6.088520,0.141977
100.000000,0.002000,0.140965,-0.092627,0.145469,-1.778182,1.251049,-1.075343,0.481094,4.671406,-2.124395
101.000000,0.002000,-1.374250,1.227126,-0.422990,0.176982,-1.829166,-0.908300,2.893507,-2.648350,0.912042
102.000000,0.002000,-0.544054,0.560873,-0.189050,0.883398,-0.760874,1.260744,3.305195,-3.108932,1.397825
103.000000,0.002000,-1.332349,-1.156612,0.339102,0.453215,1.048110,-1.317566,3.134998,2.925494,-0.361133
104.000000,0.002000,-0.220117,0.108810,0.682585,-0.149609,0.829229,-2.027619,1.143765,0.301021,-4.506629
105.000000,0.002000,-0.922068,-0.584008,-0.261775,1.223689,0.918670,0.599917,4.174231,2.733432,1.098771
106.000000,0.002000,0.021093,-0.047494,0.687358,-0.376538,0.063311,2.848288,-0.405245,0.087615,-5.701940
107.000000,0.002000,0.168679,-0.289387,-0.794515,0.755217,-0.404621,0.271787,-0.628000,1.213409,4.697198
108.000000,0.002000,-0.494026,0.456468,-0.687754,1.472118,0.328102,1.215515,2.755736,-2.366365,4.204153
109.000000,0.002000,-0.924600,-0.103131,-0.404347,1.425017,0.828096,-0.596404,5.709742,0.221665,2.548819
110.000000,0.002000,2.026069,-0.426975,1.589127,-1.109272,1.026162,1.929162,-1.986208,0.507832,-1.557685
111.000000,0.002000,0.659659,-1.015596,0.833142,-0.622670,1.039587,-0.147680,-2.259309,3.170799,-2.924509
112.000000,0.002000,-1.200444,-2.154631,0.866364,0.102793,2.000260,0.754558,1.195745,2.224175,-0.906333
113.000000,0.002000,-1.686553,-0.154132,-0.634233,0.813345,-2.058215,0.384322,4.247624,-0.103491,1.336559
114.000000,0.002000,1.890907,1.136926,0.187632,0.320509,-0.028849,2.166876,-3.127022,-1.659216,-0.115326
115.000000,0.002000,-0.895999,-1.435033,-0.866160,-0.367941,-0.275362,-1.155683,2.065140,3.058892,1.876171
116.000000,0.002000,-0.741660,-0.918666,0.524176,-1.139085,-1.291197,0.923897,3.227459,4.251886,-2.211466
117.000000,0.002000,0.638267,0.324844,-0.702304,-0.143964,-0.321859,0.709582,-2.998064,-1.726263,3.434420
118.000000,0.002000,-1.239695,1.330556,-0.890821,1.027819,-0.492409,-0.501274,2.240665,-2.717226,1.659907
119.000000,0.002000,-0.393286,-0.402377,-1.811312,1.007197,0.523844,0.662284,0.923839,0.899923,3.981393
120.000000,0.002000,-0.725030,-0.375509,0.269226,-0.214717,0.587907,-1.473632,5.428078,2.049201,-1.275696
121.000000,0.002000,0.620963,-0.094953,0.839450,-0.637809,-0.266284,-0.920348,-2.871815,0.661995,-4.572005
122.000000,0.002000,0.034247,0.350425,-0.121261,-1.205757,0.997706,-0.840657,-0.337427,-3.160865,1.239294
123.000000,0.002000,0.144190,-0.260753,0.157419,1.060162,0.665972,1.294419,-1.294065,1.973991,-1.743156
124.000000,0.002000,-1.269116,0.410283,-0.685308,0.030977,0.243742,1.402356,3.692910,-1.637182,2.184288
125.000000,0.002000,0.819112,-0.556006,-0.262936,-0.670290,-0.679536,-1.011186,-4.259554,1.725699,1.628274
126.000000,0.002000,0.338940,0.480744,-1.380688,-0.629091,-0.745538,1.199596,-1.169042,-0.815769,4.277358
127.000000,0.002000,-0.397001,0.161149,-1.611874,-0.521230,-2.559478,0.860101,1.095233,-0.561286,4.099131
128.000000,0.002000,0.523885,-1.957773,-1.820770,0.382339,1.303949,-2.426715,-0.479987,1.804979,1.685924
129.000000,0.002000,0.042021,-1.478516,-0.733125,-0.019123,1.160923,1.128128,-0.315204,4.228831,1.990705
130.000000,0.002000,-1.618707,1.224662,0.792585,-0.096131,-1.741156,1.958178,2.560529,-1.935901,-1.124518
131.000000,0.002000,0.666902,0.283329,-0.016289,-0.248056,1.521714,1.244469,-4.994242,-2.044432,0.705737
132.000000,0.002000,-1.847634,-0.654634,-0.777522,-0.289264,-1.056317,0.153034,3.226669,1.115286,1.365485
133.000000,0.002000,0.618990,1.398661,1.267563,-0.994806,0.506005,-1.021423,-1.273440,-2.649398,-2.503922
134.000000,0.002000,0.501137,0.105631,-0.959454,-1.525065,2.412036,1.206932,-3.076505,-0.784619,5.611201
135.000000,0.002000,0.328524,0.525226,-1.399431,-1.627851,0.353415,1.853623,-0.814942,-2.214083,4.807510
136.000000,0.002000,-0.006413,0.715952,0.419121,-1.272555,-0.961226,0.857793,0.129503,-5.091884,-2.755269
137.000000,0.002000,0.091102,-0.743961,-1.381504,0.914076,0.511508,0.806479,-0.461427,1.561689,4.036756
138.000000,0.002000,0.281860,-0.245564,-0.907905,-2.074875,0.330718,-1.731138,-1.561711,1.055885,5.186951
139.000000,0.002000,1.727563,0.298921,0.394218,-0.599112,-1.355532,-0.030310,-4.409463,0.086465,-0.979076
140.000000,0.002000,0.815704,1.122232,1.330982,2.084160,-1.650714,-1.689142,-1.342763,-2.361903,-2.585071
141.000000,0.002000,1.240472,0.597837,-1.895610,0.786603,-0.054926,1.044764,-1.734493,-0.663824,2.514127
142.000000,0.002000,-0.154451,0.284595,0.159456,-0.814922,1.216289,-0.034751,1.343762,-1.940132,-1.212467
143.000000,0.002000,0.840721,-2.652620,-0.400135,-0.457385,0.611553,0.619512,-0.800273,2.228712,0.362278
144.000000,0.002000,0.015370,-0.524481,-1.449656,-0.885941,0.004002,0.532168,-0.109918,1.419405,4.720446
145.000000,0.002000,0.886728,0.211912,-0.535102,-0.541423,-0.349695,1.864023,-4.419692,-1.127572,2.857027
146.000000,0.002000,0.133327,0.736136,0.315833,-0.823728,-1.040642,0.857714,-0.260539,-5.209900,-2.128895
147.000000,0.002000,0.695041,0.072650,-0.268425,-0.922306,-0.093937,0.714525,-5.659644,0.363070,3.044143
148.000000,0.002000,-0.752694,0.347429,0.401135,1.967589,1.349109,0.399992,4.349725,-1.303905,-2.284620
149.000000,0.002000,0.647464,-0.657243,0.239533,-1.277462,-1.408256,-1.087280,-2.899334,3.708413,-1.607161
150.000000,0.002000,-0.892818,-0.649689,0.080188,0.760747,0.894688,0.628733,4.351243,2.884308,-0.229761
151.000000,0.002000,-1.314688,0.360491,-0.237539,-0.218080,-1.794854,-2.302840,4.764911,-1.298980,1.225770
152.000000,0.002000,0.313154,0.611649,2.371277,0.056827,0.798014,0.719633,-0.486569,-0.724997,-2.703044
153.000000,0.002000,-0.283210,-2.111684,0.721750,0.667001,0.745367,1.642455,0.199333,2.440335,-2.055505
154.000000,0.002000,-0.451933,-0.712747,-0.977642,-1.160750,-0.264787,0.562873,1.887614,2.932981,5.345692
155.000000,0.002000,-0.271122,-0.331641,-0.288088,0.914855,-1.598400,1.100672,4.527672,3.206564,5.199363
156.000000,0.002000,2.028259,-0.564636,-1.255314,-1.633869,1.428793,-1.357956,-2.384555,0.698612,1.531691
157.000000,0.002000,-2.452213,-0.005710,-1.217981,-0.242727,-0.870214,2.848833,2.278576,-0.066205,1.144874
158.000000,0.002000,-0.347412,-0.629427,-0.374219,0.995491,-0.779979,1.500526,2.885471,3.945146,1.437456
159.000000,0.002000,2.323921,1.144577,1.543228,1.679667,0.361103,0.554597,-1.615660,-0.808422,-1.107226
160.000000,0.002000,-1.021240,0.809098,0.730343,-0.063067,-1.461417,0.503188,2.948446,-2.288652,-2.259595
161.000000,0.002000,1.210354,0.688684,-0.977175,1.033752,-1.438433,0.130889,-3.388649,-1.875871,2.631977
162.000000,0.002000,-0.114845,0.307239,-2.375841,1.042877,-1.943730,1.343275,0.031224,-0.454181,3.043381
163.000000,0.002000,1.046007,0.786995,0.034244,-2.173181,0.397024,0.312901,-3.898343,-3.010607,0.193984
164.000000,0.002000,-0.123237,-1.047987,-0.399520,-1.175824,0.685729,0.058572,0.766680,4.958820,1.750004
165.000000,0.002000,1.371173,1.796914,2.705479,0.807869,1.542814,-0.168997,-0.615766,-0.806923,-1.213248
166.000000,0.002000,-0.052928,-0.299473,-0.278957,0.074841,1.575013,1.137242,-0.333811,2.988471,2.331143
167.000000,0.002000,-1.655606,0.044590,-0.027060,-1.435816,0.450667,-1.453097,5.500499,0.556520,0.190797
168.000000,0.002000,-0.224094,0.428316,-0.801383,-0.475665,-2.694247,-1.399883,1.142903,-2.942823,3.988709
169.000000,0.002000,-0.766413,-1.152271,-1.280204,-1.164225,-1.568861,1.639395,1.752380,2.296944,2.797351
170.000000,0.002000,-1.547931,-1.498901,1.702568,0.336013,-0.848705,1.074972,1.436225,1.386711,-1.637165
171.000000,0.002000,0.811427,1.386135,-1.693836,-0.454109,-0.286539,-0.854361,-0.823759,-2.251894,2.595348
172.000000,0.002000,-1.134162,-0.619951,-0.115502,3.391032,0.372167,-0.917351,4.510874,1.755082,0.394777
173.000000,0.002000,0.269162,1.036834,-0.127564,-0.998497,-0.738939,-1.316645,-1.496357,-5.168562,0.669887
174.000000,0.002000,1.382686,-0.273164,-1.086259,-1.707354,-0.087540,-0.214214,-3.576056,0.711393,2.930047
175.000000,0.002000,-1.625506,-0.580663,0.296356,0.868416,1.297537,0.068636,3.898501,1.525547,-1.193678
176.000000,0.002000,-0.384857,1.080672,1.463873,1.863355,0.138219,-0.316882,0.949904,-2.169553,-3.577830
177.000000,0.002000,-2.088642,0.544539,-2.080302,1.143160,-1.125095,0.739290,1.485434,-0.353197,1.513563
178.000000,0.002000,1.109630,0.730367,0.083451,1.875338,-2.180231,0.010072,-3.941524,-3.089072,0.375088
179.000000,0.002000,-1.004695,-0.690116,-0.124357,1.537125,0.004869,0.474583,3.785803,2.205749,0.560034
180.000000,0.002000,-0.352116,-0.429551,0.002320,-0.208760,-0.404323,0.277728,3.082218,3.313474,-0.469336
181.000000,0.002000,0.436724,-1.552841,-0.134366,0.556059,-0.489764,0.407846,-1.387738,4.483512,0.379075
182.000000,0.002000,1.072576,0.184254,-0.106835,-2.155455,1.961590,1.242284,-1.258697,-4.371901,-2.637864
183.000000,0.002000,0.954605,-2.275466,1.153351,-0.533837,1.248596,-0.245484,-0.863783,2.197004,-1.059969
184.000000,0.002000,-0.359749,-0.222533,0.113630,1.299028,-1.195254,-0.159719,0.840014,1.883327,5.933886
185.000000,0.002000,0.354934,-0.544285,-0.268958,-2.444589,-0.552728,1.609999,-2.873497,3.493104,1.787524
186.000000,0.002000,1.526289,-1.719739,-0.588364,0.502895,2.492032,-1.959367,-1.982487,2.273244,0.788338
187.000000,0.002000,-1.465284,-0.779610,1.637489,-0.124853,0.089396,-1.583081,1.973677,1.010781,-2.210307
188.000000,0.002000,-0.431986,0.114574,-1.778162,-1.170129,-0.315234,0.616660,1.375968,-0.271316,3.896748
189.000000,0.002000,-0.854384,0.372938,0.082167,0.198364,0.349041,-1.098830,4.906268,-1.655100,-0.208378
190.000000,0.002000,0.515836,0.128375,0.589080,-0.730713,0.417509,-0.147300,-3.236125,-0.439438,-4.117553
191.000000,0.002000,0.223609,-1.590671,0.064846,-0.889207,1.449316,0.063226,-0.683447,4.593008,-0.149889
192.000000,0.002000,0.811317,0.540307,-0.397312,-0.373985,-0.575660,0.129661,-3.886053,-3.394345,2.032374
193.000000,0.002000,-0.701913,-0.890656,0.412402,0.774068,1.306781,1.656796,3.343641,4.378724,-1.587853
194.000000,0.002000,0.941902,-1.945479,-0.872709,-0.840623,0.415262,-0.557745,-1.313128,2.639271,1.188979
195.000000,0.002000,-0.670272,0.217770,-0.072798,2.196122,-2.197052,1.855693,5.738286,-1.743596,0.896539
196.000000,0.002000,-0.769892,-0.207747,0.411074,-0.425939,0.256257,-0.457682,4.922616,1.220022,-2.790119
197.000000,0.002000,-0.398243,-3.260996,0.696820,0.011137,-0.448695,0.455929,0.198490,1.706616,-0.372707
198.000000,0.002000,0.137349,0.398764,-0.596687,-1.200580,1.855824,2.267384,-0.511092,-2.117805,4.481711
199.000000,0.002000,0.216305,-0.414066,-0.407507,-0.691990,-2.541363,0.533288,-1.502649,2.921308,2.544667
200.000000,0.002000,-0.356701,-1.365202,-0.590616,-0.326868,-0.779167,-1.149133,1.146002,4.128909,1.693985
201.000000,0.002000,-2.001336,0.278455,-0.552966,-0.978767,-0.559004,1.497449,3.679301,-0.457758,1.016062
202.000000,0.002000,0.028530,-1.270039,-0.099495,-0.777042,1.159269,1.749762,-0.724183,5.895474,0.575399
203.000000,0.002000,-0.154703,-1.370723,-0.265069,-0.047436,1.668012,-1.221138,1.367035,5.521732,1.057420
204.000000,0.002000,-0.489707,-1.794703,-1.410270,-0.255670,0.196005,-0.066794,0.794865,2.442625,1.966766
205.000000,0.002000,0.486454,0.337354,0.342438,-0.902997,-2.298323,1.412310,-3.814279,-2.323891,-2.652107
206.000000,0.002000,0.562315,0.393781,0.004347,-0.041296,0.221505,-1.152136,-4.372892,-3.185191,0.027218
207.000000,0.002000,1.368834,-1.260487,0.303231,-0.121479,1.218395,-1.375223,-2.849113,2.783623,-0.719301
208.000000,0.002000,0.162999,-0.217713,0.315159,1.838752,0.259242,1.837800,-2.455829,1.046880,-6.106374
209.000000,0.002000,-0.046417,-1.259459,0.307467,1.251338,0.663959,0.245709,0.150514,6.039184,-1.445593
210.000000,0.002000,1.758568,0.160126,0.022243,-0.387823,0.720603,0.086276,-4.460938,-0.289697,-0.219436
211.000000,0.002000,-0.492266,-0.304394,0.565928,1.159042,-0.407363,-0.172098,3.159572,2.194315,-3.998154
212.000000,0.002000,-0.611786,-0.418543,0.414405,-0.309556,0.513798,-0.389192,4.804581,1.634731,-3.520075
213.000000,0.002000,-0.593165,0.009744,0.249719,1.678393,-0.911665,-2.232920,4.141754,-0.551367,-1.745433
214.000000,0.002000,0.652285,-0.545552,1.228436,-2.705844,-1.340018,-0.991380,-2.242715,1.802125,-4.076476
215.000000,0.002000,0.777480,-0.214045,-0.948247,-1.226624,2.820343,1.493638,-3.157563,0.552704,4.143529
216.000000,0.002000,-0.352647,0.420533,-0.169322,0.016893,-2.586260,-0.131005,1.135056,-1.164202,2.287165
217.000000,0.002000,-0.516173,1.157699,0.718893,0.528647,-1.959057,1.150004,2.016367,-4.101668,-2.564697
218.000000,0.002000,-2.587853,0.013702,0.232264,-0.464547,-1.035084,-1.025714,2.849118,0.002610,-0.282937
219.000000,0.002000,-0.364938,0.551671,-0.002952,-1.815510,-0.118216,0.308274,1.651194,-3.410252,1.071862
220.000000,0.002000,-1.555865,-0.246108,-0.754449,-0.312910,0.487545,0.936513,3.470233,0.414064,2.320905
221.000000,0.002000,-0.825106,-1.264204,0.660467,0.766541,0.488827,0.446841,2.388266,3.490186,-1.960484
222.000000,0.002000,-0.417091,-0.751692,-0.557123,-1.466143,-0.541590,0.785861,2.557952,4.251771,3.096634
223.000000,0.002000,0.039572,1.003086,-1.811447,0.214312,-0.508792,1.103363,-0.145169,-1.766672,3.249734
224.000000,0.002000,0.340914,-0.124359,-1.758908,-0.233340,1.454349,1.011581,-0.810753,0.087002,4.102586
225.000000,0.002000,-1.323892,-0.669325,-0.097824,2.663988,1.081352,-1.006290,4.645500,2.020366,0.519346
226.000000,0.002000,0.614211,-1.520645,0.400717,0.508579,-1.430652,-2.282180,-1.556636,3.812223,-0.910770
227.000000,0.002000,1.125353,0.155523,-0.632590,-1.692504,-0.910975,0.259200,-4.737646,-0.615336,2.789932
228.000000,0.002000,0.964488,1.317436,0.580223,-0.906211,1.441467,-1.230512,-2.440302,-3.454224,-1.743697
229.000000,0.002000,-0.851745,-2.699647,2.097933,-0.601484,0.631201,-0.203437,0.364866,1.224331,-0.958750
230.000000,0.002000,-1.617660,0.100783,1.806752,0.241076,0.447484,-2.242975,2.017721,-0.184315,-2.332119
231.000000,0.002000,1.169698,1.201303,-1.306278,2.520917,0.559757,1.087686,-2.149485,-1.977758,2.180730
232.000000,0.002000,-1.587148,-0.658817,1.072986,1.069484,-0.223719,-0.338167,3.006497,1.310856,-1.948348
233.000000,0.002000,-0.354780,-1.002961,-0.467324,0.220323,-0.041310,-2.050419,1.828468,4.938972,2.275825
234.000000,0.002000,0.959813,-1.150881,-1.247540,-0.703599,1.350449,0.217014,-2.187110,2.496686,2.486083
235.000000,0.002000,-1.457975,0.899688,0.471268,-1.727263,-1.037316,0.624164,3.570652,-2.330900,-1.009283
236.000000,0.002000,1.695441,0.531390,0.055143,-2.006135,-1.532160,0.297120,-4.325985,-1.141912,0.055677
237.000000,0.002000,1.122671,0.166082,-0.567583,-1.139454,-0.207659,0.790005,-4.912003,-0.875063,2.083890
238.000000,0.002000,1.024033,-0.689433,-0.117986,0.559316,0.470886,0.652600,-4.476348,3.079361,0.670890
239.000000,0.002000,1.191103,0.142590,-0.832989,-1.070579,0.749522,0.312161,-4.492529,-0.422736,3.160655
240.000000,0.002000,-0.006521,1.439800,-0.911440,1.589787,0.808050,-0.852802,0.095044,-3.757883,2.390136
241.000000,0.002000,-0.271856,-0.139204,0.182513,0.642560,1.457706,-0.268423,2.192678,0.676490,-2.234582
242.000000,0.002000,-0.532472,-1.357948,-0.747030,-0.315691,1.338708,0.765826,1.467965,3.766556,2.052096
243.000000,0.002000,-0.782061,1.022741,0.601137,0.913996,-1.196905,-1.007837,3.571477,-3.210617,-1.747222
244.000000,0.002000,0.316953,-0.776775,-0.555042,-1.203823,-0.382326,1.285777,-1.839732,4.557915,3.256656
245.000000,0.002000,-0.686214,-1.273007,2.404422,-0.522124,-0.579013,-0.629516,0.551714,1.112949,-2.113509
246.000000,0.002000,-2.541121,0.103243,-0.870833,-0.624450,-1.576559,1.528752,2.477750,-0.123736,0.861839
247.000000,0.002000,-0.334758,-1.157836,-0.284815,-0.638095,0.101432,3.322091,-3.317631,5.728975,6.389294
248.000000,0.002000,-1.456765,1.350991,-0.095054,-0.673723,-1.777519,0.168477,2.768503,-2.563622,0.116179
249.000000,0.002000,-0.874744,-0.104666,-0.380182,0.335559,-2.312225,-1.106569,4.890321,0.292561,2.303956
250.000000,0.002000,0.639746,-1.489042,0.490850,-0.551901,1.657275,0.481444,-2.342142,3.489139,-1.299615
251.000000,0.002000,0.551267,-0.963702,0.700874,-1.029913,2.847378,0.581762,-2.208321,3.731734,-2.485482
252.000000,0.002000,1.448290,0.076610,0.643963,-1.418439,0.300802,-0.850069,-4.315234,-0.050686,-1.820040
253.000000,0.002000,0.938367,-0.601632,-0.009135,0.302439,0.805916,-0.183800,-4.916900,3.085049,0.333582
254.000000,0.002000,-1.611804,-0.306031,0.281936,0.458887,0.615070,-0.037774,4.229630,0.821131,-0.879916
255.000000,0.002000,0.347617,-0.267749,0.325888,-1.662613,-0.787641,-1.724896,-2.650147,1.096623,-3.124434
256.000000,0.002000,-0.652239,0.144148,0.157988,2.110660,0.804662,0.401122,4.483623,-1.296057,-0.642207
257.000000,0.002000,2.413982,-0.170039,-0.556087,1.403004,0.213254,-0.087254,-2.887167,0.356263,0.560085
258.000000,0.002000,0.506215,-0.559764,0.167409,1.278195,1.787981,-0.293102,-3.630375,4.239434,-1.255701
259.000000,0.002000,0.245741,-1.312626,0.288152,1.999827,2.281881,1.055032,-0.704440,5.119839,-1.407459
260.000000,0.002000,0.493817,-2.350875,-0.131911,2.644826,-1.883050,-0.192165,-0.708016,2.936277,0.330237
261.000000,0.002000,1.579795,-0.253591,0.198412,-0.341422,-2.564528,-1.533384,-4.580612,0.873963,-0.809480
262.000000,0.002000,-0.979675,0.569364,0.392381,1.881116,-0.045795,0.587448,4.427804,-2.833279,-1.786671
263.000000,0.002000,0.464734,0.308477,-0.935852,-0.453621,-0.624305,2.048205,-1.905832,-2.160803,4.691096
264.000000,0.002000,-0.068808,-0.339140,-0.181884,0.025328,1.937059,-0.278129,2.393877,6.632808,0.437407
265.000000,0.002000,-0.608904,1.564381,-0.112305,1.221578,0.287155,2.618285,1.604456,-4.117865,0.404955
266.000000,0.002000,-1.060505,0.418959,-1.182351,-0.080822,1.002094,0.096044,4.297253,-1.382938,3.623588
267.000000,0.002000,0.352575,-0.715130,1.040521,2.506225,0.756719,-1.841740,-1.477054,2.762646,-4.302452
268.000000,0.002000,0.775489,0.181200,-0.755731,-0.524857,0.736517,-0.834440,-3.343498,-1.064846,3.406832
269.000000,0.002000,1.088329,0.605906,0.424472,-0.074696,0.331604,-0.487319,-3.887204,-2.302649,-1.928462
270.000000,0.002000,-0.210717,-1.420533,0.077007,-0.558972,1.509835,0.606754,-1.891278,5.472257,-0.382262
271.000000,0.002000,-0.772608,0.353785,1.199991,-0.442069,-1.195614,0.017680,2.652642,-1.341693,-4.029613
272.000000,0.002000,-0.300918,0.095846,1.748832,1.322788,-1.298108,-0.565890,0.776427,-0.189027,-4.339053
273.000000,0.002000,-0.292557,0.720948,-0.426577,1.463372,-3.779455,1.813517,2.263258,-4.439197,2.990226
274.000000,0.002000,-0.090163,0.105019,0.088541,-0.250168,0.306523,0.140996,2.123165,-0.906055,-0.777923
275.000000,0.002000,-1.134835,-0.420467,-0.440581,-0.391272,0.864378,1.045640,5.205107,1.926817,1.405089
276.000000,0.002000,0.226324,0.095095,2.206002,-0.402374,-0.811623,-0.554448,-0.433945,-0.121910,-3.342314
277.000000,0.002000,1.181359,-0.701334,0.778064,-1.146918,-0.359475,1.229350,-2.222338,2.421678,-1.670511
278.000000,0.002000,0.491370,0.368813,-0.305387,-2.291336,0.860171,-0.528826,-4.242666,-2.458278,2.727125
279.000000,0.002000,-0.113978,1.184714,-0.927406,-0.499900,0.554653,0.215637,0.402508,-3.643563,3.029746
280.000000,0.002000,0.165258,0.657096,0.086467,1.633039,0.199041,-0.911144,-0.894884,-3.499653,0.766581
281.000000,0.002000,-0.558584,-0.451489,0.917419,-2.444696,-0.034872,-0.781868,2.532822,2.425240,-4.073402
282.000000,0.002000,2.030889,0.744798,-0.124612,-0.828319,0.985452,0.253516,-3.209382,-1.078968,0.180768
283.000000,0.002000,0.848779,-0.082731,-0.581043,-0.210820,1.657171,0.975498,-4.516146,0.499552,2.865150
284.000000,0.002000,0.092304,-2.609953,-1.284354,0.191389,0.219593,-0.291185,-0.019562,2.044450,0.958978
285.000000,0.002000,-1.275150,-1.426258,-1.184427,-2.833622,0.155772,-0.219672,1.822937,2.445746,1.612543
286.000000,0.002000,-0.698365,-1.155051,-0.254496,-0.579728,2.252884,0.648375,2.946619,4.465302,1.095950
287.000000,0.002000,-0.444444,0.026916,0.957162,0.640661,-0.003343,-1.353341,0.152818,-1.038333,-5.263735
288.000000,0.002000,0.234806,0.516633,0.569873,-0.016134,1.245832,1.078725,-2.219987,-3.641118,-5.000630
289.000000,0.002000,0.423005,-0.248191,-0.540118,0.324070,2.958009,-1.075194,-3.572138,1.188469,3.448465
290.000000,0.002000,0.747701,-0.980449,0.703527,1.172490,1.773652,-0.870186,-2.931501,3.089448,-2.243605
291.000000,0.002000,0.788521,-0.791310,-0.259571,-1.542503,-0.045937,0.067638,-3.825095,3.742720,1.117300
292.000000,0.002000,-1.048665,0.311327,-0.827085,-0.119403,-1.529259,1.236553,3.372572,-1.545497,3.187772
293.000000,0.002000,-0.203821,-0.941984,0.040076,0.237866,0.409873,-0.065184,0.977734,5.635239,-0.325851
294.000000,0.002000,-1.552472,0.977228,-0.710460,1.205013,-1.451980,1.027298,3.169676,-2.031682,1.302061
295.000000,0.002000,0.368656,0.260097,-0.649541,0.723803,1.492555,0.926951,-2.474283,-1.567755,4.039554
296.000000,0.002000,-0.833927,0.982028,-0.565077,0.564171,-0.350876,0.147058,3.026752,-3.596142,2.435479
297.000000,0.002000,-0.017823,-0.711584,-1.020638,-1.052058,0.803349,-0.665246,-1.344386,3.436766,6.027761
298.000000,0.002000,0.161281,0.623641,0.459031,-1.193729,-1.768824,1.932624,0.700083,-5.967911,-5.126750
299.000000,0.002000,-1.725315,1.978902,-1.366308,-0.807464,-0.293824,-1.557641,1.266756,-1.407191,1.084777
300.000000,0.002000,-1.438917,2.763308,-0.344951,0.487690,0.297907,0.232083,0.920909,-1.762784,0.218582
301.000000,0.002000,-1.254931,-0.451149,0.416485,1.289115,1.028489,-0.024142,4.425785,1.704403,-1.445857
302.000000,0.002000,0.195976,-0.457341,2.015949,-0.049915,1.460687,0.168402,-0.497399,0.820716,-3.468445
303.000000,0.002000,-0.894478,-1.615265,1.009436,-0.995287,-1.019345,-0.126685,1.500471,2.725095,-1.731590
304.000000,0.002000,1.139024,-1.013488,-1.640534,-0.913863,-0.459029,-0.428542,-1.680052,1.397438,2.496902
305.000000,0.002000,1.790280,-2.220239,-1.240570,2.353432,-0.333510,0.082271,-1.194757,1.405345,0.746964
306.000000,0.002000,0.891328,0.373907,-0.196735,-0.912920,1.184507,0.331471,-4.745028,-2.578980,0.945025
307.000000,0.002000,0.231123,-0.844566,-1.485983,-0.506889,-2.095518,0.018002,-0.390386,2.191936,4.538782
308.000000,0.002000,1.210098,1.477982,0.822687,-0.611475,0.091261,1.865764,-2.187674,-2.716060,-1.643821
309.000000,0.002000,0.358125,2.364096,-0.392388,1.012023,-0.355617,-0.318739,-0.354629,-2.906868,0.534685
310.000000,0.002000,-0.218081,0.197731,1.023321,0.230752,-0.636485,-2.193964,0.736761,-0.616354,-5.398348
311.000000,0.002000,1.533207,-0.172408,0.683522,-0.805086,0.359300,1.008346,-4.128086,0.482364,-1.883709
312.000000,0.002000,-1.029245,-0.302429,-0.514873,1.775085,0.150490,1.452829,4.470046,1.130171,2.384783
313.000000,0.002000,-0.808181,1.636421,-0.355387,0.922981,-0.680306,1.615413,1.528540,-3.856554,0.872894
314.000000,0.002000,-0.031989,0.285064,0.928404,1.686203,-0.374412,-1.890806,-0.496071,-1.035639,-4.993475
315.000000,0.002000,0.692267,2.287333,-0.571566,0.608183,-1.978317,-1.576994,-0.842042,-2.765967,0.816894
316.000000,0.002000,0.524213,0.445019,1.246279,0.628991,0.369735,-1.276159,-3.065211,-2.118174,-4.550598
317.000000,0.002000,0.350453,-0.450039,-0.954119,-0.808500,-0.958985,0.650668,-1.938080,1.437829,5.499652
318.000000,0.002000,0.369409,1.408546,-0.280081,0.236156,-0.648084,0.615209,-1.213184,-5.182395,1.247876
319.000000,0.002000,0.205974,0.263964,0.653596,-1.304077,-0.042218,-1.404438,-0.906923,-0.882558,-5.018671
320.000000,0.002000,-1.654623,2.243819,-1.226083,-2.681695,-0.613746,0.320911,1.192722,-1.657421,0.786415
321.000000,0.002000,-0.509328,0.951671,0.489611,-0.268762,-0.502088,0.364364,2.453844,-4.380391,-1.815876
322.000000,0.002000,0.359528,-0.482211,-0.165696,-1.999642,0.504238,-0.262430,-4.023648,2.043728,0.319307
323.000000,0.002000,-0.190536,1.901253,0.914616,-0.637602,0.588566,0.508950,0.404957,-3.349964,-1.549850
324.000000,0.002000,0.890635,-0.563803,0.224544,-0.219275,0.719703,-2.817933,-4.803435,2.760361,-1.765396
325.000000,0.002000,0.463222,1.340104,1.890592,0.727341,-0.416803,-0.784816,-0.511181,-1.786395,-2.616512
326.000000,0.002000,-0.604459,-0.435922,-0.493595,-0.578466,0.235951,1.754211,2.589172,3.428300,3.692754
327.000000,0.002000,0.402074,-0.146847,0.634435,1.583643,1.037116,0.417331,-2.069374,1.377928,-4.445299
328.000000,0.002000,-0.571786,-0.293550,1.203857,-1.194139,0.381542,-0.165701,1.794077,0.967696,-4.684534
329.000000,0.002000,-1.118827,0.581010,-0.155803,0.012852,0.192700,1.026424,3.509721,-1.429741,1.530871
330.000000,0.002000,0.468677,0.525094,-0.186968,-1.264859,-3.385868,0.598756,-3.609762,-3.693514,1.907843
331.000000,0.002000,0.369161,0.050676,-0.802885,-0.474216,-0.557764,0.556087,-1.463726,-0.474615,4.478451
332.000000,0.002000,-0.045680,0.543847,0.230411,-0.855274,0.409413,-0.860750,0.951078,-3.711294,-1.565925
333.000000,0.002000,-0.334144,0.310927,-0.768524,-0.211211,0.508898,1.850575,2.428903,-1.628838,3.836032
334.000000,0.002000,-0.907732,0.221853,1.262230,-1.416830,-1.288089,0.667329,2.752867,-0.499282,-3.800809
335.000000,0.002000,0.033269,0.276145,0.421844,1.593080,0.399252,0.276137,0.067007,-1.128298,-3.647660
336.000000,0.002000,0.309950,0.550946,-1.860421,0.276235,-0.130590,0.389632,-0.664099,-1.092133,3.626985
337.000000,0.002000,-0.206636,0.231423,-0.672585,-0.420928,-0.199695,1.709824,1.243271,-1.005552,4.618745
338.000000,0.002000,1.396744,0.078708,1.543895,-1.294685,-0.308885,-0.448348,-2.463035,-0.008412,-2.689435
339.000000,0.002000,-0.582204,-0.822080,-0.365945,1.179444,0.842820,-1.833141,3.125913,4.190209,1.616030
340.000000,0.002000,-1.375762,-0.093391,-0.058653,1.663843,-1.074878,-0.501246,4.048063,1.012753,1.209041
341.000000,0.002000,1.191487,0.538644,-0.368315,-0.043695,-0.880154,0.400578,-4.180256,-2.154545,1.448969
342.000000,0.002000,-1.483572,1.653982,-0.466162,-0.977828,-0.565493,1.226107,2.167063,-2.428966,0.672803
343.000000,0.002000,-1.167250,-1.528356,1.146925,-0.121167,-1.147786,-0.166237,1.714069,2.207884,-1.684761
344.000000,0.002000,-0.160613,-1.056398,0.237023,1.484332,-0.312240,0.117671,1.437725,5.588900,-1.280427
345.000000,0.002000,0.185119,-0.464657,0.822476,1.242485,1.103261,-0.350866,-1.142009,3.005484,-4.623918
346.000000,0.002000,0.575784,0.698316,0.777462,-2.038150,-1.361066,-0.403859,-3.384511,-2.185693,-3.851670
347.000000,0.002000,0.853693,-1.435339,1.445424,1.351766,1.448383,-1.074218,-1.368886,2.108538,-2.283408
348.000000,0.002000,0.095931,1.068112,1.405056,-0.805837,1.141642,0.405052,-0.509931,-2.519985,-3.695109
349.000000,0.002000,1.110662,0.177687,0.321204,-1.748581,-1.008291,-0.618398,-4.116439,-3.568573,-2.664342
350.000000,0.002000,0.012686,0.232438,-0.546477,2.213338,0.506684,1.666206,0.068800,-0.897090,4.022686
351.000000,0.002000,-0.900496,-0.579565,0.576623,-0.143756,1.420326,2.186787,3.638965,1.975332,-3.670232
352.000000,0.002000,0.947427,3.093656,0.090851,-0.423987,-0.519235,-0.342078,-0.579590,-1.797977,-0.069024
353.000000,0.002000,-1.310049,1.997779,-0.603423,0.434153,2.056969,-0.897751,1.568014,-2.394482,0.729988
354.000000,0.002000,-1.104820,0.094797,-0.915321,-1.031540,-0.468017,1.538970,3.967583,-0.437740,3.131455
355.000000,0.002000,0.147527,0.537840,-0.224015,-0.422522,1.768702,-0.886816,-1.083720,-3.253011,2.293612
356.000000,0.002000,-0.002799,0.566459,0.455252,-1.287493,1.270782,1.203797,1.747259,-4.741944,-5.439969
357.000000,0.002000,0.295257,0.131007,-0.667399,-0.228705,-1.155404,1.865061,-2.009272,-0.734330,4.568126
358.000000,0.002000,-1.225737,0.030450,-1.227775,1.143245,0.234034,1.143616,3.015235,-0.177189,3.035377
359.000000,0.002000,0.261606,0.469432,1.437208,0.429983,-1.881149,2.201373,-1.053575,-1.247117,-4.707859
360.000000,0.002000,-0.694462,-0.629691,0.283790,1.654193,1.310805,-0.272817,2.433082,2.865267,3.210039
361.000000,0.002000,-0.309307,0.028722,0.757890,0.593037,1.250548,-0.039173,1.610742,0.675329,-4.732481
362.000000,0.002000,-1.005998,0.038579,-0.936889,0.476446,1.494388,-0.022090,4.004208,0.121179,3.452857
363.000000,0.002000,-1.002907,-0.633343,0.697987,0.625066,1.090834,-0.279701,4.090489,1.955147,-2.641124
364.000000,0.002000,0.152684,-0.915130,-0.264396,0.211565,0.491056,0.021865,-1.837949,4.848322,0.694574
365.000000,0.002000,-1.537950,-0.213860,2.456162,0.531549,1.782549,0.724915,1.221877,0.183255,-1.989899
366.000000,0.002000,0.322745,0.014017,0.125522,1.173850,-2.565499,0.587503,-4.016234,-0.254994,-1.315184
367.000000,0.002000,-0.000929,0.133135,-1.034747,-1.204976,-1.985423,0.931425,0.087483,-0.854282,5.421512
368.000000,0.002000,-0.551285,1.530337,-0.543058,-1.610849,-0.708244,1.109885,1.004478,-3.669164,1.412564
369.000000,0.002000,-0.547065,-0.010474,0.623360,0.531932,1.062900,0.729498,3.978243,0.477402,-4.119022
370.000000,0.002000,0.520761,1.208133,0.072124,-0.378434,-0.790912,-1.590838,-1.876504,-4.211156,-0.545190
371.000000,0.002000,-0.314349,1.118254,0.953517,-0.758014,-1.005532,0.420278,1.007034,-3.728455,-3.014409
372.000000,0.002000,-1.651954,2.271210,1.667795,-0.394740,-1.040049,-0.477770,0.931834,-1.288938,-0.936049
373.000000,0.002000,-0.302043,-0.096919,1.224541,-0.325365,-1.559960,-1.079530,0.809309,1.052615,-5.261785
374.000000,0.002000,-0.182609,0.418734,1.317589,0.028200,-1.291730,0.073163,0.410493,-1.806349,-4.966126
375.000000,0.002000,-0.910723,-0.582267,0.495659,0.868620,0.317858,-1.794465,4.379096,1.619877,-1.652259
376.000000,0.002000,0.639120,1.216947,-0.068180,0.224406,0.370079,0.330146,-2.340324,-3.997820,0.900429
377.000000,0.002000,-0.057315,-1.815456,-1.506429,0.800510,1.000285,-0.922812,0.105676,2.469626,2.075147
378.000000,0.002000,-0.440394,0.783165,0.513654,-1.452964,-0.672582,-0.484994,2.373715,-3.654231,-2.756653
379.000000,0.002000,0.207829,0.263014,0.388950,1.075577,1.704498,0.246929,-1.967894,-1.308439,-2.410523
380.000000,0.002000,-0.387747,1.039543,0.329325,-1.418439,-1.930260,0.426872,1.581478,-4.728057,-1.517221
381.000000,0.002000,-1.618308,-1.433679,1.553868,-0.241855,-0.326823,-0.097486,1.637671,1.402177,-1.475046
382.000000,0.002000,-0.512601,0.380200,-0.001508,2.834546,-1.644876,0.926585,3.886292,-3.195155,-0.672680
383.000000,0.002000,-0.152571,-0.081336,0.961163,0.166894,0.236944,-1.603092,0.673821,0.391976,-5.638998
384.000000,0.002000,-0.273196,-0.002394,-1.185625,-0.134025,0.099637,1.850311,1.176895,-0.293390,5.256341
385.000000,0.002000,0.497534,0.312155,-0.221853,0.626285,-1.046442,-1.349913,-4.104326,-1.907873,1.993379
386.000000,0.002000,1.237218,0.119480,0.560725,-1.239845,0.212136,0.585878,-4.691585,-0.449632,-1.966325
387.000000,0.002000,1.503417,-1.540762,-0.469653,-0.865885,0.391913,0.089144,-2.258913,2.429640,0.773963
388.000000,0.002000,1.234836,0.669180,0.259742,-1.158316,-1.217930,-1.589274,-4.087366,-2.173824,-1.123531
389.000000,0.002000,0.447682,0.687344,1.294047,-1.549482,0.930743,-1.681786,-1.718248,-2.860832,-3.867123
390.000000,0.002000,-0.085062,0.074500,0.259704,-1.620346,-0.639634,0.101007,0.856709,0.362317,-2.430256
391.000000,0.002000,0.018845,-0.462642,0.966071,-0.685135,2.681877,0.093765,-0.486479,1.791203,-4.513294
392.000000,0.002000,-0.300058,1.499355,0.040341,-0.469134,-1.773232,0.395620,2.077966,-5.352241,0.121415
393.000000,0.002000,0.422231,0.585245,-0.654067,-0.290105,0.827141,0.440411,-2.151972,-3.606295,4.097353
394.000000,0.002000,0.900570,1.879418,0.111192,-0.533185,-0.550983,0.405874,-1.553913,-3.280250,-0.044116
395.000000,0.002000,-0.427180,0.000653,-1.007786,-0.193168,1.235665,3.595028,2.704832,-0.417687,4.985329
396.000000,0.002000,-0.053706,0.059527,0.948599,0.359909,-0.642299,-1.073442,-0.146307,0.177922,-5.456745
397.000000,0.002000,0.797679,0.102501,-0.565786,-1.120449,1.777068,-0.603659,-4.072183,-0.515318,3.275314
398.000000,0.002000,1.081894,0.145007,-0.506802,-0.823251,1.042704,0.325274,-4.874687,-0.537293,1.965657
399.000000,0.002000,1.034420,0.891715,0.005116,-1.735712,-0.941581,-0.002845,-3.821509,-3.583739,0.176443
400.000000,0.002000,-0.781390,-1.519612,0.371198,-0.415629,2.166587,-0.858014,1.974474,3.703019,-0.860941
401.000000,0.002000,-1.067284,-1.623270,0.921678,-0.365098,1.485954,-2.434823,1.691821,2.647852,-1.441031
402.000000,0.002000,0.880855,-1.067973,-1.239318,0.457909,0.635473,0.313955,-2.763988,3.362424,2.365453
403.000000,0.002000,0.331142,-0.768107,0.581238,-2.089469,0.790624,-2.865501,-2.149248,3.811007,-3.042709
404.000000,0.002000,0.272676,0.423622,-0.481303,-1.519775,-0.707988,-2.689022,-1.852451,-2.834601,3.183188
405.000000,0.002000,-0.225119,0.512298,-0.293457,-1.348200,-1.702105,0.952330,1.753326,-3.777786,2.373862
406.000000,0.002000,-0.439569,0.362510,0.462846,-1.545912,-1.712481,-0.757092,3.097653,-2.598785,-3.700237
407.000000,0.002000,-0.795016,-0.754501,0.520717,1.887299,-0.451487,0.617099,3.648662,3.212045,-2.227588
408.000000,0.002000,0.087756,1.532807,-0.456789,1.690517,-1.442409,-0.012069,-0.084607,-4.671955,1.638379
409.000000,0.002000,-0.426023,0.726476,0.292389,-0.563172,-0.774606,-0.362993,2.763997,-4.262309,-2.178942
410.000000,0.002000,0.161766,-0.470227,0.454422,1.013845,1.408019,0.033832,-0.470837,3.484612,-4.075310
411.000000,0.002000,0.650181,0.043498,-0.699103,-1.745623,-1.610612,0.731784,-3.582996,-0.635451,3.377813
412.000000,0.002000,1.412880,-0.998989,-1.248284,-1.397001,1.731710,1.381977,-2.609100,1.867916,2.140480
413.000000,0.002000,1.049699,0.677647,-0.511960,-0.276335,1.181112,0.443052,-3.716240,-2.444620,2.134362
414.000000,0.002000,-1.173624,1.596845,-0.274314,0.022955,-2.861407,-1.272654,2.308794,-3.331711,0.525920
415.000000,0.002000,0.497046,0.345170,0.627072,-0.663468,-0.198677,0.270703,-3.312280,-2.607771,-3.651212
416.000000,0.002000,-0.184238,0.084842,-0.515889,-2.451887,-2.394998,0.041474,1.420228,-0.909673,5.097479
417.000000,0.002000,-0.294287,-1.653793,-0.683138,0.100376,0.863790,0.580668,1.028804,4.032734,1.949087
418.000000,0.002000,-0.272918,0.863310,0.502276,-1.742574,-1.238503,-0.692150,1.207632,-4.293911,-2.866253
419.000000,0.002000,-0.840644,-0.910443,-2.396915,-1.575182,1.307693,1.579319,0.777974,0.874982,2.295223
420.000000,0.002000,1.232907,-0.387481,-0.649243,-0.352614,0.893470,-0.390506,-4.862782,1.470436,2.004278
421.000000,0.002000,0.156017,-0.664699,-0.214728,-0.097630,3.113608,0.597911,-1.583742,4.807928,0.817509
422.000000,0.002000,1.732457,0.836444,0.486390,-1.460778,0.897593,0.349309,-3.355961,-1.756116,-0.972948
423.000000,0.002000,-1.619148,2.066754,-1.086737,0.070598,-0.842932,1.251015,1.341130,-1.703493,0.829666
424.000000,0.002000,1.688453,-2.170334,1.300092,-0.952958,0.020492,-0.481696,-1.172678,1.444199,-0.899239
425.000000,0.002000,1.704777,-1.157767,0.951060,-0.121059,-0.838202,1.575935,-2.441435,1.760322,-1.308624
426.000000,0.002000,0.194282,-1.193345,-0.905398,-1.326399,-0.773568,2.276412,-0.543751,4.083793,2.982840
427.000000,0.002000,-1.265894,0.285609,0.143354,0.783748,-1.050020,0.668927,5.051131,-1.553600,-0.739442
428.000000,0.002000,-0.385903,0.948019,0.539322,0.806254,-0.619153,-0.257368,1.380978,-4.482702,-2.534354
429.000000,0.002000,-0.987128,-0.790500,0.579462,-0.314577,1.839753,-0.121617,3.972350,3.091240,-2.278927
430.000000,0.002000,-0.639492,0.113580,1.216357,-0.051034,0.006245,-1.838498,2.209735,-0.355602,-4.594658
431.000000,0.002000,0.408337,-0.431548,0.287874,-0.680772,1.914170,0.162348,-3.723721,4.142978,-1.747998
432.000000,0.002000,-0.532480,1.341697,-0.758873,1.616287,-1.414212,-0.360961,1.247095,-3.620333,2.144560
433.000000,0.002000,0.043434,0.146695,0.332574,-0.621955,-0.723404,0.354738,-0.477085,-0.683454,-2.961327
434.000000,0.002000,-2.154777,-1.538468,-0.541631,-0.344224,-0.074152,-0.225466,2.022768,1.529389,0.485228
435.000000,0.002000,0.186766,0.233793,-0.533911,-0.602471,1.102329,1.935833,-2.345978,-1.329524,4.115153
436.000000,0.002000,-1.241005,-0.633570,-0.290319,0.975253,-0.500517,0.779359,4.516701,2.130975,1.368881
437.000000,0.002000,0.064848,-0.628113,0.346093,-1.552955,-0.491425,-1.322095,-1.024189,4.356354,-2.175761
438.000000,0.002000,-0.408650,-0.078048,-0.385645,1.085549,0.766142,0.215366,4.030891,1.093881,3.395793
439.000000,0.002000,-0.711954,0.785595,-0.838251,0.607147,0.151128,0.393227,2.472666,-2.935246,3.324202
440.000000,0.002000,-0.183961,0.101756,-0.838830,1.290265,0.455904,2.201300,0.934763,-1.088889,4.831523
441.000000,0.002000,-0.719095,-0.308368,-0.082843,-0.792148,1.793687,1.178965,3.396718,4.509833,1.622939
442.000000,0.002000,-0.279874,-0.672589,-0.161114,-0.507390,1.033428,0.314154,2.253710,4.502215,1.205120
443.000000,0.002000,0.448974,-0.587011,1.060559,-3.223770,-1.646372,-0.818730,-2.062027,2.520350,-4.037710
444.000000,0.002000,0.542597,1.151054,-1.008257,0.484135,0.724403,-0.404588,-1.471957,-3.340405,3.001454
445.000000,0.002000,0.332837,0.164511,-0.629035,0.458342,-0.034724,0.398182,-2.676768,-1.393842,3.585388
446.000000,0.002000,-1.168276,-1.038315,1.038978,-0.835981,1.865299,-1.841660,2.527044,2.364281,-2.138208
447.000000,0.002000,-0.882697,1.522691,-0.606142,0.619452,0.079037,-0.266739,1.966201,-3.418488,1.470887
448.000000,0.002000,-1.236081,0.515781,-0.235382,-0.651655,-0.673228,1.577204,4.669134,-1.946911,1.366823
449.000000,0.002000,0.564907,-0.549081,0.376998,-0.481324,-0.331316,-0.747665,-3.548496,3.739873,-2.674516
450.000000,0.002000,-0.966513,0.608980,0.098882,0.596972,-1.148436,-1.436590,4.593006,-3.252096,-0.751332
451.000000,0.002000,-0.878406,2.695235,0.452634,0.243779,-0.146655,-0.354133,0.693901,-2.160999,-0.403728
452.000000,0.002000,1.793296,1.652659,-0.125409,-1.972059,-0.107518,0.243972,-2.170144,-2.141819,0.192358
453.000000,0.002000,-0.138995,-0.331342,-1.568478,0.989343,0.350773,1.505155,0.346524,0.705118,4.659325
454.000000,0.002000,-0.684159,0.025811,1.413626,0.327123,-0.751855,-0.987392,2.053844,0.121337,-4.306888
455.000000,0.002000,-0.853245,0.826646,-1.202815,0.012567,-0.487158,0.603900,1.879042,-1.989620,3.211828
456.000000,0.002000,-0.808642,-0.172128,-0.120695,-0.104122,1.197008,-1.657971,5.318764,1.031563,0.083601
457.000000,0.002000,0.540456,0.853538,1.026210,0.036463,-0.819035,0.333407,-1.861079,-2.904267,-3.672748
458.000000,0.002000,-0.070477,0.848844,1.627827,-1.085477,1.253892,-0.456351,0.024286,-2.135520,-3.910931
459.000000,0.002000,-0.347248,0.607290,-1.702579,0.628777,-0.752948,0.891863,0.632434,-1.283950,3.887682
460.000000,0.002000,0.815085,0.043893,-0.073917,0.743244,1.913658,-0.291806,-6.110655,-0.434881,1.619678
461.000000,0.002000,0.815690,0.331428,1.331321,-1.128430,0.444448,0.950878,-2.360388,-0.722040,-3.649248
462.000000,0.002000,1.481526,0.614153,1.013965,-0.440359,0.593062,-0.863328,-3.344454,-1.153255,-2.236820
463.000000,0.002000,-0.598982,-0.138564,-0.614740,-0.461119,-0.240606,0.301987,3.777971,0.908292,4.139805
464.000000,0.002000,0.877394,0.287549,-0.479231,-1.052171,-0.635726,0.380043,-3.954481,-1.069884,2.299992
465.000000,0.002000,-0.230480,0.666604,-0.134584,-1.138331,-1.920247,-0.152280,1.610217,-4.744967,0.825976
466.000000,0.002000,-0.859630,0.325732,-2.077313,0.501360,0.570000,0.124258,1.254188,-0.586185,3.018714
467.000000,0.002000,0.449278,-0.443973,-0.404447,-1.478710,0.204720,0.558765,-2.646364,2.359640,2.680376
468.000000,0.002000,0.509071,-0.798008,1.498205,-1.403502,2.138320,-1.939931,-1.322085,1.741000,-3.447684
469.000000,0.002000,-0.639203,-0.408477,0.868403,-0.205399,0.699672,-1.086365,3.178336,1.744872,-3.881871
470.000000,0.002000,0.534740,2.248055,-0.028945,-0.675811,-1.099480,0.630883,-0.506257,-3.010184,0.090718
471.000000,0.002000,0.169593,-1.196224,-0.447042,0.888292,1.645448,-0.190553,-1.080462,4.801625,1.788232
472.000000,0.002000,-0.811491,-0.490705,-2.181829,-0.132217,-0.039530,-1.003046,1.086022,0.514011,2.833950
473.000000,0.002000,1.434789,-1.467716,-2.977331,-0.852430,-0.080075,-0.391781,-0.627848,0.581585,1.277552
474.000000,0.002000,-0.816753,0.192702,-1.114133,1.628802,2.662997,0.672603,2.508252,-1.006469,4.004317
475.000000,0.002000,1.085305,0.185429,-0.309325,-0.725905,1.051355,-0.975031,-5.119229,-0.980307,1.450833
476.000000,0.002000,0.527370,-0.041599,0.698581,-0.622460,-1.107190,-1.568841,-2.798723,0.735515,-5.022621
477.000000,0.002000,-0.959453,-0.771422,1.288917,0.887590,-0.481095,1.648190,2.248382,1.729914,-2.914490
478.000000,0.002000,-1.832154,-1.679408,0.452056,2.650455,-0.773139,-0.236183,2.128683,1.935777,-0.497918
479.000000,0.002000,-0.141574,1.037294,0.098064,1.323683,-0.375611,-2.596501,2.201043,-5.905038,0.567428
480.000000,0.002000,-1.012216,-0.199974,1.407934,0.990078,-2.033779,0.158697,2.592688,0.351833,-3.716388
481.000000,0.002000,0.266725,-0.316156,0.280433,0.247443,2.552902,-2.443433,-1.208004,1.986134,-2.068929
482.000000,0.002000,0.432170,0.299734,0.379017,-1.174018,-1.098220,-1.578476,-3.588339,-1.228228,-3.130914
483.000000,0.002000,-2.683950,0.969889,1.631802,1.248569,0.224704,-0.713654,1.507393,-0.544257,-0.892261
484.000000,0.002000,0.704061,0.786370,0.265809,0.408966,1.538737,-1.754238,-3.756507,-3.684645,-1.724486
485.000000,0.002000,0.229197,0.732951,0.409690,-0.702086,-0.372634,1.044586,-1.504822,-5.205424,-3.361850
486.000000,0.002000,-0.951339,-0.677297,-1.576423,-0.303534,1.356685,-1.492274,1.800027,1.304722,3.250303
487.000000,0.002000,-1.215887,-0.916077,1.382464,0.815921,0.739641,-1.587155,2.196583,1.680461,-2.495522
488.000000,0.002000,0.682873,-0.757401,0.074706,-0.713341,0.083214,1.562570,-3.388944,3.569881,-0.148159
489.000000,0.002000,-0.201365,-0.028140,0.385794,-0.946081,2.367382,0.778214,0.781512,0.420131,-4.558280
490.000000,0.002000,0.700613,-0.177192,0.204241,-0.794270,-0.345792,-0.693136,-4.428897,1.603044,-1.615708
491.000000,0.002000,0.662516,-0.359412,0.008134,-1.295460,0.017677,-1.065168,-4.900236,2.307665,-0.077882
492.000000,0.002000,-0.379964,0.060250,0.055778,0.228367,0.250849,1.303569,3.546703,-0.582087,-0.690165
493.000000,0.002000,-0.587843,0.236435,0.758184,0.265232,0.095950,0.130130,3.392004,-1.441903,-4.115466
494.000000,0.002000,0.245644,0.019198,-0.672440,0.190976,-1.762152,0.751265,-2.629723,-0.477139,4.520365
495.000000,0.002000,-1.039787,0.575260,0.748484,1.072315,0.280757,-0.180789,3.718387,-1.939968,-2.682741
496.000000,0.002000,0.153242,1.173234,0.853947,0.267699,-1.101760,-0.571077,-0.733191,-3.843484,-3.039525
497.000000,0.002000,2.149573,-0.336766,-1.154225,-2.121856,-0.403606,-0.336319,-2.483114,0.450657,1.411341
498.000000,0.002000,-0.754217,-0.133853,0.028256,0.620643,1.687224,-1.652302,4.886146,1.380472,-0.049349
499.000000,0.002000,-1.875223,0.784797,-0.403702,1.396453,-1.989867,-0.469250,3.369238,-1.462034,0.710334
500.000000,0.002000,0.333430,-0.399998,0.246421,1.772261,2.787336,1.125232,-2.196938,3.877347,-0.698376
501.000000,0.002000,-0.162611,-0.024620,0.685594,-0.561825,0.411659,0.590760,-3.350442,3.513108,-8.724581
502.000000,0.002000,-0.523921,-0.600338,0.579934,0.573909,1.481025,-0.321341,2.841399,2.675486,-3.072194
503.000000,0.002000,0.193263,-0.057221,1.269026,0.197513,-0.819471,0.037472,-0.783970,0.248543,-4.794830
504.000000,0.002000,-0.202580,-0.830822,0.973076,2.984026,0.514868,-1.443016,-0.646369,7.080369,-0.451670
505.000000,0.002000,-1.665956,-1.526243,0.535423,-0.258600,-0.416394,-1.090524,2.327647,2.099432,-0.761139
506.000000,0.002000,0.932220,-0.019939,-0.119515,1.706851,-0.452607,-0.005571,-6.003704,0.339012,0.738525
507.000000,0.002000,-0.166577,0.045977,0.792218,-0.655926,0.430381,-2.603619,0.500914,-0.333735,-5.902091
508.000000,0.002000,-0.099202,0.618494,1.656795,1.064540,2.481626,-1.085580,0.060122,-1.756062,-4.464622
509.000000,0.002000,0.309569,2.413417,0.126124,0.909137,0.155464,0.757441,-0.312543,-2.941474,-0.118668
510.000000,0.002000,0.737772,-2.149612,0.218612,-2.329188,-1.211973,0.181649,-1.316359,2.880586,-0.308512
511.000000,0.002000,-1.279511,1.194676,-0.960451,1.374537,0.868754,1.158026,2.481331,-2.429699,2.448494
512.000000,0.002000,0.351607,-0.569371,-0.620578,-0.027461,-0.643590,2.347316,-2.694652,1.759288,4.161771
513.000000,0.002000,-1.352171,-0.043701,2.403982,1.110245,1.580543,1.875383,1.185909,0.016882,-2.217191
514.000000,0.002000,-0.530873,0.424918,0.077846,-0.465864,-2.062151,0.425560,3.135657,-2.487421,-0.566532
515.000000,0.002000,0.437524,-1.208650,-0.884278,-1.751662,2.600631,-1.318226,-1.805365,3.831797,2.573897
516.000000,0.002000,0.837852,-0.611882,-0.273138,-1.019252,-1.023479,-0.467540,-5.151763,4.563855,2.690570
517.000000,0.002000,-0.287017,0.896369,0.436161,0.670563,-1.518996,0.190595,1.429002,-4.848087,-1.828685
518.000000,0.002000,0.182171,0.607765,0.402918,0.589990,-0.811749,-0.884142,1.170187,-7.655560,-2.243056
519.000000,0.002000,0.161768,1.601701,-0.387788,-0.211110,-0.477935,-0.959069,-0.408733,-4.519132,1.236178
520.000000,0.002000,0.705673,0.150851,0.147472,0.907828,2.728289,-0.214421,-5.287679,-1.053222,-0.984749
521.000000,0.002000,1.805686,-0.815250,-0.729315,0.263198,-0.369654,1.534278,-3.067611,1.453182,1.210315
522.000000,0.002000,0.183774,0.157168,0.283527,-3.068875,1.070129,0.371555,-1.079603,-0.983263,-2.771807
523.000000,0.002000,0.293870,-0.006656,0.672523,0.958921,-0.245798,-1.252038,-1.662347,-0.013525,-4.745406
524.000000,0.002000,-0.680001,-1.017090,0.227052,0.958947,0.616822,0.320926,2.994752,4.484385,-1.151483
525.000000,0.002000,-1.954589,-1.427795,1.629959,-0.932877,-0.013119,-0.994106,1.543812,1.117318,-1.257056
526.000000,0.002000,0.311259,0.228981,0.959211,-1.766228,0.713951,-1.549752,-1.259812,-1.082752,-5.185744
527.000000,0.002000,-1.074382,-0.745285,0.155935,0.531144,-1.100720,-1.738043,4.019335,2.794014,-0.721451
528.000000,0.002000,1.088793,0.197693,-1.989362,0.480151,-1.118869,2.220433,-1.554936,-0.285819,2.744492
529.000000,0.002000,-0.960670,0.477675,-0.596785,0.566587,-0.256320,-0.447079,4.019853,-1.714217,2.233002
530.000000,0.002000,2.667997,0.895274,0.545088,0.083385,-0.207256,-0.098438,-2.257858,-0.652886,-0.392031
531.000000,0.002000,-0.775393,-0.031859,-0.248900,1.795043,0.097018,-1.607042,5.590181,0.002908,0.162400
532.000000,0.002000,1.061717,1.066874,1.111995,-0.565778,0.273841,-0.104841,-2.279136,-2.458548,-2.568275
533.000000,0.002000,-0.958737,1.455106,-1.451300,0.058491,-0.143944,0.068462,1.057038,-1.975462,1.986037
534.000000,0.002000,-0.172128,0.664779,0.241499,1.406142,0.263065,1.235093,-1.776802,-5.504923,0.865922
535.000000,0.002000,-1.366014,-0.739295,-1.262299,-0.881540,0.449702,1.318534,2.590946,1.497790,2.314263
536.000000,0.002000,0.371586,0.651296,-0.031192,-0.911720,-2.590432,0.273906,-3.010675,-3.623028,0.386796
537.000000,0.002000,-0.454674,-1.356544,0.973514,-0.017235,0.883824,-0.108404,1.482455,3.661508,-2.719906
538.000000,0.002000,2.104312,-2.526495,-0.937345,-0.532391,-2.242497,0.497026,-1.032526,1.234979,0.430222
539.000000,0.002000,-0.751045,-0.613229,0.387541,0.285237,0.221441,0.299405,4.211664,3.007023,-1.983947
540.000000,0.002000,1.780464,1.031574,0.468890,0.109299,-0.200669,-0.323835,-3.020238,-1.709777,-0.858893
541.000000,0.002000,-0.464975,-0.687611,-0.748914,1.242993,1.867504,0.654914,2.655714,2.742877,3.454070
542.000000,0.002000,1.541514,0.242512,-0.446605,-0.693417,0.899760,0.196450,-4.375941,-0.765039,1.340853
543.000000,0.002000,-0.497655,0.536725,-1.159914,-0.812323,-1.277180,1.092071,2.061957,-2.165680,4.297822
544.000000,0.002000,1.937269,0.032743,-0.431776,1.140368,-0.448535,-0.588574,-3.743238,-0.174229,1.036136
545.000000,0.002000,0.669529,-0.400025,-0.333136,0.166409,-1.920214,0.391031,-4.497674,2.355859,2.366249
546.000000,0.002000,-0.286833,-0.506363,0.461868,0.019033,1.690935,-1.069581,1.007743,3.328611,-3.932073
547.000000,0.002000,-0.745025,-0.698531,-0.142696,-0.219293,1.382214,-1.066707,4.163523,3.625891,0.754050
548.000000,0.002000,1.314035,-0.151432,-0.493648,-0.684040,-0.292845,0.636284,-4.715703,0.350633,1.876293
549.000000,0.002000,-0.004099,1.710034,-1.621901,-1.387080,-1.093404,-0.265135,-0.048591,-2.334734,2.120363
550.000000,0.002000,0.298947,-0.110956,1.038465,-0.491115,-1.015615,-1.048036,-1.659459,0.377203,-5.124858
551.000000,0.002000,0.530985,-0.040903,-1.616397,-1.766197,0.487018,0.788671,-1.357184,-0.033907,4.103902
552.000000,0.002000,0.670715,-0.655221,-0.840810,-0.844533,1.003444,0.809748,-2.748878,2.806067,3.672720
553.000000,0.002000,1.369323,-1.221429,1.043185,0.413677,-0.746286,-1.499302,-2.269149,2.107315,-1.809786
554.000000,0.002000,0.237846,0.489526,0.482431,-0.805599,0.154564,0.306876,-4.065321,1.986599,-6.525624
555.000000,0.002000,-0.965149,-1.021693,0.107372,2.648709,2.995180,-0.397108,3.320230,3.783983,-0.408351
556.000000,0.002000,0.693841,0.017809,-0.881497,-0.018165,-0.286452,0.420819,-3.013625,0.382066,4.709706
557.000000,0.002000,0.137153,-0.107028,-0.680309,0.350458,-0.148795,1.530670,1.822078,-2.130879,3.885799
558.000000,0.002000,1.127409,-1.881606,-0.121740,0.110692,-0.077388,-2.403449,-1.717135,2.837827,0.119859
559.000000,0.002000,0.485925,0.469186,-0.648986,0.076707,-2.174935,1.716698,-2.747825,-1.632933,3.754733
560.000000,0.002000,0.360156,2.360067,0.265214,0.812600,0.173547,-1.401984,-0.436827,-2.963331,-0.430267
561.000000,0.002000,0.446155,0.808823,0.276324,0.796133,0.387270,0.474609,-3.077657,-4.022017,-2.116982
562.000000,0.002000,1.631341,0.789740,-0.454898,-2.357860,-0.889268,-1.127789,-4.400081,-1.822569,1.383803
563.000000,0.002000,0.750943,-0.135961,0.559795,1.213235,1.051655,-2.717680,-4.325538,1.339884,-3.299161
564.000000,0.002000,-1.206331,-1.768175,1.258245,0.873083,-0.256191,-0.885347,1.406504,2.075198,-1.451609
565.000000,0.002000,2.401740,0.355042,0.162515,0.332068,-0.441186,0.102874,-3.056456,-0.301593,-0.203242
566.000000,0.002000,0.235808,-0.375487,0.028264,-1.725200,1.342715,-0.661501,-0.943785,3.804592,-3.819032
567.000000,0.002000,-0.091544,0.226493,-1.104692,-0.409988,-1.549870,2.188257,0.152522,-1.553131,5.404725
568.000000,0.002000,-0.850322,0.438436,0.142276,-0.626492,-1.795562,2.796335,4.492173,-2.440857,-0.672182
569.000000,0.002000,-0.856035,2.159461,0.132935,0.643489,-0.046452,0.295695,1.185285,-2.975102,-0.145292
570.000000,0.002000,-0.572483,-1.346154,0.672366,0.242790,1.701353,-0.427934,1.727298,4.015195,-1.804439
571.000000,0.002000,0.442606,-0.922208,-0.656723,-1.182733,-1.728837,1.939958,-2.338307,4.360524,2.267195
572.000000,0.002000,-0.068366,-0.912827,-0.908998,-0.149842,0.281860,0.645910,-0.042799,3.961911,3.917295
573.000000,0.002000,0.225527,-0.742230,0.193349,1.032595,1.674871,-0.366792,-1.526733,4.687762,-1.387603
574.000000,0.002000,0.863971,-1.034881,-1.250236,0.561414,-0.312871,0.831075,-1.846854,1.278014,3.145266
575.000000,0.002000,1.778396,-1.011984,-1.024430,0.308428,0.020167,-1.016439,-2.591327,1.504400,1.441638
576.000000,0.002000,0.249202,0.803948,-0.252961,-0.110154,0.108913,0.249259,-1.997147,-4.455169,1.065695
577.000000,0.002000,0.496755,-0.129056,-0.517474,-0.284623,1.019545,2.032358,-3.338141,0.364240,3.175431
578.000000,0.002000,1.587939,2.823054,1.675557,0.438383,0.936012,-0.182007,-0.643386,-1.149237,-0.699364
579.000000,0.002000,0.097607,1.732592,0.321856,-0.170166,-0.997953,-0.226614,0.168293,-4.907151,-1.060183
580.000000,0.002000,-1.031004,0.184580,-0.117202,-1.208312,-1.133490,0.000008,5.145564,-3.127944,0.841353
581.000000,0.002000,-0.391929,-1.120109,0.556948,2.245800,-0.196388,-1.161578,1.689218,4.732016,-1.622270
582.000000,0.002000,-1.751110,0.946977,-1.422535,0.645126,0.999773,0.947312,2.554942,-1.034957,1.678379
583.000000,0.002000,-2.019118,-1.668462,2.056664,0.500043,0.702636,0.140600,1.083707,0.901332,-1.114362
584.000000,0.002000,0.039777,0.540037,1.533337,0.765212,1.378634,-0.271153,-0.337789,-1.398532,-4.524716
585.000000,0.002000,0.769681,-1.564513,0.320931,-0.876992,-0.069286,-1.989136,-2.429723,3.824171,-0.579889
586.000000,0.002000,0.176264,-0.520858,-0.211993,-0.300301,-0.184482,-0.715463,-2.723934,4.400169,1.581573
587.000000,0.002000,1.115446,-0.594165,-0.025392,-1.173890,1.325005,-1.496310,-5.049334,2.170413,-0.022763
588.000000,0.002000,-0.263877,-1.469056,-0.802660,-0.777077,1.680938,0.237717,0.532364,3.996213,1.967337
589.000000,0.002000,-0.187695,0.847208,0.613831,-1.261844,-2.084255,-1.707130,0.701028,-4.368829,-2.925882
590.000000,0.002000,0.818344,-1.077160,1.666481,0.562330,-0.630901,-0.854891,-1.163168,1.768680,-2.597246
591.000000,0.002000,-0.224721,-0.529971,0.031802,-1.295552,2.160780,0.719286,1.757081,4.225230,-0.713035
592.000000,0.002000,1.153057,-0.272663,0.512444,0.284034,-0.773453,-1.632956,-4.532927,1.328180,-2.187822
593.000000,0.002000,0.644732,0.425940,-0.876875,-1.963106,-0.151260,0.431479,-2.603816,-1.851831,4.100984
594.000000,0.002000,0.555540,-0.346608,1.580927,1.220604,-1.209065,-1.519744,-1.565552,1.010919,-4.035071
595.000000,0.002000,-1.846554,0.033358,-0.561976,-0.178146,0.567031,0.248437,3.789510,-0.084425,1.232812
596.000000,0.002000,-0.432393,-2.065783,0.820020,-2.521855,1.669229,-1.163454,0.720572,3.038463,-1.189190
597.000000,0.002000,0.114413,-1.356328,-0.095276,0.281579,2.303362,0.950352,-0.751941,5.321652,0.181477
598.000000,0.002000,0.615430,-1.654582,-0.289606,-0.249614,0.388638,-0.891447,-1.859457,4.038684,0.892844
599.000000,0.002000,-0.600229,-0.743167,0.082311,2.037142,-0.220346,0.097793,3.370756,3.668480,-0.475373
600.000000,0.002000,0.630497,-0.068586,0.126845,1.034413,1.506977,-0.715765,-4.788279,0.491752,-1.128635
601.000000,0.002000,0.899886,-0.157781,0.995138,-0.137668,0.525969,-2.015843,-3.390872,0.832344,-4.021103
602.000000,0.002000,1.073367,-0.176438,-0.897532,-1.895730,0.980475,-0.514946,-3.976240,0.624204,4.062717
603.000000,0.002000,-0.797188,-0.024959,-0.286862,3.618053,0.362919,0.436376,6.666214,-0.290919,2.568038
604.000000,0.002000,0.457795,-1.063458,-0.338357,-1.389455,2.106094,-0.067556,-2.101961,4.320357,1.270765
605.000000,0.002000,0.870777,-0.634163,-0.377909,-0.940620,0.761450,1.554052,-4.863095,3.412123,2.038703
606.000000,0.002000,-1.137395,2.225771,-0.513333,1.202514,-1.639220,0.864356,1.255659,-2.431221,0.573279
607.000000,0.002000,-1.022465,-0.779007,-1.025368,1.345887,0.382448,-0.430313,2.801721,1.917982,2.987788
608.000000,0.002000,-0.654008,0.492092,-0.018698,-0.867101,-1.718553,1.041908,4.383750,-3.051000,-0.870973
609.000000,0.002000,-0.649104,-0.599994,0.187268,1.364826,3.394704,0.436082,3.821647,3.549556,-0.532770
610.000000,0.002000,0.121779,1.073144,-0.190395,0.380606,-2.291371,-0.835616,0.253312,-5.361332,0.983977
611.000000,0.002000,-0.071084,-0.664159,0.037151,0.171595,1.937724,1.186342,0.055275,4.084851,-0.740149
612.000000,0.002000,0.014140,-0.440240,-1.037224,1.596489,-0.065146,0.327821,0.031750,1.819263,4.788122
613.000000,0.002000,0.484152,0.102500,0.026135,-0.634774,0.749923,0.842386,-4.227411,-0.260890,0.109080
614.000000,0.002000,-1.705448,0.368308,0.128074,0.651609,-0.581464,-1.293009,4.292692,-1.095796,-0.410189
615.000000,0.002000,-1.171574,1.413567,-1.174728,-0.863695,1.101611,0.954935,1.653916,-1.920566,2.154217
616.000000,0.002000,0.286925,-0.134119,-0.597071,0.888349,0.524072,3.003431,-1.552616,-0.081578,3.995387
617.000000,0.002000,0.206516,1.315849,-0.137535,0.034930,-1.964360,-0.652960,-0.168398,-4.966905,0.354830
618.000000,0.002000,-0.433293,0.292175,0.565321,0.610367,-0.787374,1.223802,2.443177,-2.220201,-4.172149
619.000000,0.002000,0.286938,-0.336746,1.556945,0.710112,0.469475,-0.195211,-2.558401,0.641791,-4.145526
620.000000,0.002000,0.268837,-0.630998,0.024457,-0.980440,0.260742,0.404693,-2.047937,4.865660,-1.557670
621.000000,0.002000,-0.245150,-0.100323,-0.258544,2.040136,1.923885,1.638629,0.970830,1.762616,1.389925
622.000000,0.002000,-1.281276,1.067137,-0.341553,0.002803,0.532428,-0.042826,3.342231,-2.886117,0.888724
623.000000,0.002000,0.776760,-0.009484,-0.522045,0.207868,2.351896,-1.190656,-3.948017,0.042901,2.853704
624.000000,0.002000,-0.591942,0.752196,-0.140618,1.003695,-0.472999,0.558857,3.493478,-4.546247,1.074459
625.000000,0.002000,-1.121375,-1.729131,-0.074769,-1.055642,0.181264,-1.154446,1.935103,3.020742,0.140249
626.000000,0.002000,-0.724512,-0.127986,-0.672748,0.486393,-0.339385,-0.077451,3.812000,0.499663,4.083716
627.000000,0.002000,0.674436,-0.027049,0.764065,-1.449048,-2.035222,0.582996,-3.300721,0.088189,-4.472389
628.000000,0.002000,-0.171167,-0.303874,1.220877,1.631481,-2.503429,-2.313797,0.648152,1.215181,-4.849265
629.000000,0.002000,-0.662922,-0.599018,-1.474398,0.778561,-2.467024,1.166837,1.832404,1.303559,3.865376
630.000000,0.002000,1.177171,-0.543343,1.014002,-1.185461,-0.247325,0.425571,-3.012599,1.871879,-2.816551
631.000000,0.002000,-1.991031,2.121281,-0.420286,-0.645279,0.818943,-0.163758,1.514883,-1.621457,0.294779
632.000000,0.002000,0.470212,-0.020137,0.132715,-0.737779,-0.644008,1.247959,-3.580366,0.519121,-0.897527
633.000000,0.002000,1.889233,-2.040845,0.418560,0.424495,-1.029698,0.348228,-1.567875,1.772100,-0.350306
634.000000,0.002000,0.815393,-0.055419,0.376957,-0.932107,-0.095492,1.397366,-4.401723,0.148330,-2.794626
635.000000,0.002000,0.378568,-0.466133,0.100259,1.557879,3.088364,0.116521,-3.055684,3.163286,-0.688042
636.000000,0.002000,0.125681,-0.361962,-0.039909,-1.580243,-1.218774,0.844129,0.573091,3.228663,-2.222205
637.000000,0.002000,-0.745284,0.094968,1.091884,-0.512645,1.270611,-1.171183,3.088080,-0.382550,-4.279151
638.000000,0.002000,-1.791541,-0.299983,-0.500468,1.551479,-1.059099,-0.436475,4.014719,0.624837,1.049330
639.000000,0.002000,1.257387,0.146362,1.595020,-0.976803,0.280924,-0.052789,-2.279194,-0.258738,-3.053262
640.000000,0.002000,-2.518861,0.031261,-0.151300,-0.847984,-1.480194,-1.421787,2.996285,-0.108266,0.277385
641.000000,0.002000,1.323953,-1.472670,0.424397,-0.564316,0.957864,1.861308,-2.407811,2.706658,-0.778222
642.000000,0.002000,-0.099290,-0.246396,1.224798,-0.557270,1.040497,-0.644439,0.070375,0.906873,-4.951169
643.000000,0.002000,-0.035980,2.240746,1.350726,1.037827,0.312449,0.775657,0.047226,-2.350001,-1.413541
644.000000,0.002000,1.048091,0.330477,-1.441497,-0.067419,-0.911744,-0.768955,-2.404213,-0.699513,3.476011
645.000000,0.002000,-0.166006,0.086476,0.421009,1.135626,-1.746983,-1.241266,1.106932,-0.382756,-3.560447
646.000000,0.002000,1.590173,-0.578158,-0.900206,0.456627,-0.166996,0.164880,-3.370270,1.219553,2.008601
647.000000,0.002000,1.197941,-0.825750,0.256316,0.647180,0.407172,-2.296893,-3.818591,3.055468,-1.170284
648.000000,0.002000,1.339676,0.149966,-0.067680,-0.271404,-1.125388,1.047862,-5.103143,-0.596698,0.406109
649.000000,0.002000,-0.117419,0.754978,-0.038308,-0.347210,-0.104714,-0.031493,1.757814,-5.205845,0.808045
650.000000,0.002000,2.814223,-0.903481,-0.784286,1.750081,0.400424,0.825348,-1.894386,0.613685,0.520857
651.000000,0.002000,-0.871278,-0.184361,-2.059790,0.532459,1.410767,0.831634,1.288080,0.303595,3.088661
652.000000,0.002000,-0.179367,-0.659807,-0.027057,1.820919,0.571498,-0.405426,1.378563,4.734057,0.010508
653.000000,0.002000,0.761207,-0.763028,0.971699,0.843669,1.993746,-0.251260,-2.818379,2.652354,-3.464420
654.000000,0.002000,1.639143,-0.282592,1.663385,-0.872443,-0.181385,-0.040522,-2.232321,0.504137,-2.215406
655.000000,0.002000,-0.126836,2.096877,0.965660,-1.087471,-0.105876,-0.706181,0.207817,-3.035153,-1.346213
656.000000,0.002000,-1.351777,0.137966,1.554572,1.101240,0.364641,1.278488,2.338201,-0.229473,-2.775207
657.000000,0.002000,0.461895,0.032134,1.036765,1.303666,0.245556,-1.558717,1.409895,3.377296,-6.090578
658.000000,0.002000,-0.554035,-0.079758,0.249103,1.005553,-0.285139,-0.411432,2.159254,-0.435789,0.366311
659.000000,0.002000,-0.355761,0.402867,1.125331,0.150229,1.291256,0.550072,2.089635,-3.733837,-4.377838
660.000000,0.002000,0.573937,-0.287061,-1.315593,0.210013,1.840503,-0.195015,-1.903997,-1.486464,5.488090
661.000000,0.002000,-0.363077,-0.087658,-0.678579,1.846886,-0.203783,-1.220398,2.639364,0.347720,4.823224
662.000000,0.002000,-0.715934,-0.636820,-1.308224,0.682627,0.041226,1.224084,2.194071,1.275309,3.558653
663.000000,0.002000,0.408698,0.254993,-1.257826,-0.183257,0.881450,0.672511,-0.883038,-0.979014,4.711890
664.000000,0.002000,0.163953,1.151680,-1.111353,0.409651,-1.136653,-0.807197,-0.712071,-2.948963,3.252056
665.000000,0.002000,0.912259,-0.539822,0.094540,-2.026623,-0.424209,-0.442483,-5.729223,2.884756,-0.594324
666.000000,0.002000,0.159726,0.999588,0.192547,0.153829,-2.065966,-0.085980,-0.622170,-5.066121,-2.635843
667.000000,0.002000,-1.124870,-1.390917,-1.314302,0.302193,0.049010,1.041279,1.602548,2.269134,2.154141
668.000000,0.002000,-1.065561,-0.315391,-0.645410,2.719693,-1.127723,1.423320,4.341467,0.941412,2.654969
669.000000,0.002000,-0.715399,-0.791825,-0.455596,-1.729534,0.164638,1.430087,4.641488,2.563039,1.985938
670.000000,0.002000,-0.150050,0.675409,0.994519,1.245519,-0.460053,-0.356218,0.606154,-2.943306,-4.715153
671.000000,0.002000,0.352703,-0.766514,0.789988,-0.280872,1.232612,0.006772,-1.671784,3.551901,-3.539862
672.000000,0.002000,0.812279,0.318505,-0.707614,-0.115221,-0.196679,0.030525,-3.292064,-2.189289,1.977066
673.000000,0.002000,0.316548,0.600707,-2.528955,-1.357812,0.519415,2.300344,-0.309545,-0.617067,2.539913
674.000000,0.002000,0.378040,-1.843061,0.978219,-0.999918,0.709397,0.810942,-0.534417,2.990172,-1.897763
675.000000,0.002000,-0.342136,1.057810,-0.213677,-0.492503,-1.133221,-0.171189,1.322220,-4.329473,1.620835
676.000000,0.002000,-0.830138,-0.270723,0.950872,0.590837,-0.270420,-0.788965,3.274055,1.299795,-3.546014
677.000000,0.002000,0.368171,0.109701,0.513424,0.912727,0.778255,-1.234760,-2.714280,-0.421594,-3.593687
678.000000,0.002000,-0.293624,-0.231642,1.037145,-1.641062,-0.667745,-1.791179,0.982643,1.105754,-5.246444
679.000000,0.002000,1.706636,0.739530,-0.121847,-0.060664,0.157910,0.617569,-3.991161,-1.764466,0.325945
680.000000,0.002000,1.286291,1.213860,0.549722,-1.119443,-0.252800,-0.730770,-2.653745,-2.722556,-0.816828
681.000000,0.002000,-0.966426,-0.093561,-0.718590,1.352492,-0.765482,0.592983,3.673835,0.255074,3.219256
682.000000,0.002000,-0.128453,0.336535,0.247011,0.291820,0.075233,0.292435,1.259885,-2.006965,-1.689781
683.000000,0.002000,-0.272542,0.827368,-1.229828,0.826951,-1.825363,2.017203,0.974378,-2.562441,3.739983
684.000000,0.002000,0.439262,-1.834340,0.100581,-1.209709,0.569602,-0.980708,-1.080022,3.839791,-0.022077
685.000000,0.002000,-0.804861,0.616054,0.025628,0.852754,-1.306855,-0.271290,4.836338,-3.467782,-0.722862
686.000000,0.002000,0.148832,-1.355839,-0.640960,-0.426023,-0.475627,0.345314,-0.229938,4.765179,1.947806
687.000000,0.002000,0.053710,0.507274,3.122396,-0.527967,-0.292140,0.349181,-0.040969,-0.254030,-1.922945
688.000000,0.002000,0.163259,1.384066,-1.433702,-0.246849,0.973924,0.846500,-0.361795,-2.717995,2.742774
689.000000,0.002000,-1.592901,-0.308806,-0.628688,-0.390029,0.346687,2.189133,3.845137,1.104847,1.270794
690.000000,0.002000,1.728578,-0.098814,1.533080,0.458187,1.103283,0.169899,-2.457533,0.230650,-2.186158
691.000000,0.002000,1.203042,-0.450867,0.682269,-1.576416,-1.457171,0.299309,-4.003995,1.590145,-2.464939
692.000000,0.002000,0.108461,0.468223,0.516486,0.534457,-0.677421,-0.300819,2.081012,-4.952538,-6.317802
693.000000,0.002000,-0.241289,0.712766,1.681538,-0.286995,0.495596,-0.656117,0.550100,-1.765218,-4.147987
694.000000,0.002000,0.422662,0.390799,-0.333569,-1.414420,-0.197664,-1.302518,-3.242912,-3.010866,3.322722
695.000000,0.002000,-0.623013,-0.537311,-0.049563,1.816364,2.093701,-1.237387,4.844871,1.806801,-0.666243
696.000000,0.002000,-1.292837,-1.037714,1.745643,0.568723,-0.749673,1.212999,2.455997,1.019904,-1.274262
697.000000,0.002000,1.865251,-1.919859,1.873641,-0.330729,-0.683728,0.662972,-1.032984,1.056077,-1.034876
698.000000,0.002000,-0.082348,-0.156232,0.369387,0.585641,-0.209748,1.368785,1.065195,1.838530,-3.115023
699.000000,0.002000,1.636273,-1.110788,0.087482,1.439983,2.049245,-1.290112,-3.130464,2.547988,-0.172622
700.000000,0.002000,-1.253331,0.576613,1.885122,-0.758900,-0.110422,0.740426,1.537750,-0.804618,-2.458726
701.000000,0.002000,-0.643335,0.426499,0.990576,-1.872391,-0.126379,1.366608,2.971095,-2.007003,-4.053694
702.000000,0.002000,-1.224003,1.354809,1.826564,-1.214602,-0.751311,0.104219,1.340384,-1.469311,-1.925257
703.000000,0.002000,-0.028478,0.497015,-0.344770,-2.572023,1.127858,0.803774,0.557020,-3.708536,2.986865
704.000000,0.002000,-0.770005,1.654113,1.464310,-0.313168,-0.529674,-0.120269,1.136562,-2.257073,-1.983222
705.000000,0.002000,-0.923264,-1.597226,-2.375568,-2.798114,0.108424,1.781025,0.637456,1.151604,1.746291
706.000000,0.002000,-0.672036,-0.074828,1.058869,1.739963,0.280953,-1.709412,2.640807,0.577377,-4.530813
707.000000,0.002000,-0.517426,0.081194,0.868051,0.727194,-1.509440,-2.084259,3.082456,-0.191652,-5.174169
708.000000,0.002000,0.111991,0.115615,-1.011777,-0.112777,0.752146,1.657021,-0.191094,-0.745841,5.227555
709.000000,0.002000,-1.962255,0.458330,-0.812443,-2.008162,-0.023559,-1.845249,3.203809,-0.791569,1.322146
710.000000,0.002000,0.520527,-0.031141,0.168505,0.980185,0.107467,-2.017453,-4.180140,0.856936,-1.522462
711.000000,0.002000,-0.891733,-0.573352,2.163138,-0.199989,-0.694709,0.459078,0.930698,0.752715,-2.731923
712.000000,0.002000,-0.608124,-0.444155,-0.734777,1.096490,-0.303655,0.047185,3.338833,2.119042,3.640930
713.000000,0.002000,0.263928,0.281059,0.014178,-0.859000,-2.945421,1.900516,-2.221253,-3.155268,-1.047993
714.000000,0.002000,0.169968,-0.419703,0.412515,2.048711,-0.129547,-0.864462,-0.344851,2.714832,-3.672017
715.000000,0.002000,-0.288693,-0.618957,-2.509919,1.569176,-0.724839,-0.063352,0.277264,0.633486,2.661294
716.000000,0.002000,-1.291983,0.134386,0.900578,0.839044,0.831671,-0.371351,3.843172,0.061920,-3.537655
717.000000,0.002000,0.028261,-0.740334,-1.161822,-0.927227,1.586035,1.355538,-0.250296,2.893336,4.339183
718.000000,0.002000,0.204785,-1.330165,1.443624,0.017345,1.461685,0.878612,-0.489727,2.577153,-2.749247
719.000000,0.002000,0.150661,-1.568128,-1.207908,0.247007,0.599532,-0.451846,-0.386832,3.171186,2.479771
720.000000,0.002000,-0.428906,-0.707452,-1.341603,1.164399,0.497318,1.060118,1.567800,1.990362,3.934900
721.000000,0.002000,-0.459783,-0.850409,-0.550016,1.785635,-0.060446,0.919420,2.569468,4.488983,2.727950
722.000000,0.002000,0.649028,0.445683,-0.668416,-2.090900,0.906519,1.552914,-3.343931,-2.016203,3.089048
723.000000,0.002000,-0.340788,-1.157036,-0.278159,0.233642,-0.181242,0.180924,6.604729,4.403293,-4.512791
724.000000,0.002000,0.638807,0.333207,1.814927,-0.967857,0.197553,-2.053018,-1.191870,-0.592179,-3.691975
725.000000,0.002000,0.420003,-0.550988,0.485626,-0.272714,1.723388,-1.593850,-3.374810,3.772179,-3.579224
726.000000,0.002000,0.891513,1.422159,-1.492312,-0.871227,0.761548,-0.976553,-1.399686,-2.180941,2.288043
727.000000,0.002000,-0.191278,1.150476,-1.419368,-0.078198,-0.258818,1.372117,0.499087,-2.591780,2.907516
728.000000,0.002000,-0.818972,-0.999384,-0.702714,-0.777215,1.885317,1.088427,3.367404,2.025347,1.740951
729.000000,0.002000,-0.958362,1.086630,-0.271524,0.622391,-1.071367,-0.023823,2.684812,-4.300353,1.375638
730.000000,0.002000,-0.960428,-0.617005,0.440816,0.235902,1.867319,0.766073,5.323176,2.454391,-2.062840
731.000000,0.002000,-0.260661,0.925211,0.215480,-0.690815,-2.111104,-1.207725,1.490805,-5.226751,-1.426498
732.000000,0.002000,-1.540286,-0.345863,0.763877,0.121726,1.123742,-1.293007,3.468229,1.104224,-1.776015
733.000000,0.002000,-0.414795,1.374977,-0.858138,0.820610,-1.677838,1.118855,0.964486,-3.743883,2.250136
734.000000,0.002000,0.221635,-0.624440,-0.759546,-1.326213,1.299496,-0.403389,-1.075048,3.415978,4.018069
735.000000,0.002000,1.079530,-0.317799,0.856627,-0.577201,-0.488097,-0.277602,-3.771778,1.249805,-2.873387
736.000000,0.002000,-0.174630,0.675351,-0.385001,-2.089244,-0.778060,2.150855,1.862472,-4.226769,2.413787
737.000000,0.002000,-0.339793,-0.266671,-0.784191,-0.116804,-2.343582,0.830938,2.701716,1.350379,4.319160
738.000000,0.002000,1.658486,-0.325101,-0.690533,-0.448825,1.689982,-1.103829,-3.868267,0.846391,1.579972
739.000000,0.002000,-0.992155,-1.689540,1.357276,0.200721,1.808932,-1.708840,1.298908,2.253985,-1.729358
740.000000,0.002000,-0.320663,-0.186395,-0.675474,-0.066863,1.032995,-1.033524,2.282543,0.822502,4.758400
741.000000,0.002000,1.552243,-0.899202,0.116410,-0.058791,0.555535,-2.015274,-3.050928,2.157135,-0.558390
742.000000,0.002000,-0.267356,-0.663734,0.551950,0.706660,0.316859,-0.504211,1.301167,3.786629,-3.518368
743.000000,0.002000,1.314019,0.078949,-0.616625,0.451808,2.009030,0.849307,-4.780980,-0.238893,2.175239
744.000000,0.002000,-1.047093,0.780704,-1.125712,0.751516,-1.402995,-1.457081,2.401561,-2.063948,2.903371
745.000000,0.002000,-1.716846,1.174805,-1.651098,0.689922,-0.983099,-0.704376,1.562753,-1.261008,1.870267
746.000000,0.002000,0.557686,0.210540,0.169086,-1.308329,-0.106670,-0.617311,-4.666912,-2.073398,-1.577503
747.000000,0.002000,-0.228340,0.331213,-1.758247,1.306447,-0.270227,0.282467,0.570735,-1.142614,3.913555
748.000000,0.002000,0.309055,1.041987,0.937968,-1.123478,-2.199563,-0.217031,-1.254545,-3.557565,-3.120871
749.000000,0.002000,-1.525226,-1.192806,-0.078314,2.110350,-0.377772,0.413604,3.029567,2.663688,0.216649
750.000000,0.002000,0.086143,-0.094830,-0.590890,-1.524359,0.062675,0.195796,0.224803,0.023439,4.559864
751.000000,0.002000,0.438747,1.285398,0.000567,-0.788388,-0.252741,0.830484,-2.268718,-4.632669,0.263403
752.000000,0.002000,1.054113,-2.692208,-1.125011,0.981949,-0.097188,-0.518365,-0.700680,1.746104,0.699314
753.000000,0.002000,-0.383867,-0.053196,0.303557,0.085243,1.587858,-0.387222,4.133734,-0.186958,-3.397270
754.000000,0.002000,0.317895,0.362250,-0.502377,-2.700559,-0.786782,0.818003,-2.703921,-1.993146,3.136060
755.000000,0.002000,-1.806303,0.791481,-1.503937,-0.647328,0.669925,1.408291,2.191531,-0.789603,1.777876
756.000000,0.002000,0.391473,-0.741988,-1.121870,-1.055966,-1.610233,0.738420,-0.900982,1.596596,4.247642
757.000000,0.002000,0.042890,0.378022,0.091998,-0.862491,0.988941,0.349276,-1.200214,-6.386255,-2.403783
758.000000,0.002000,-0.120546,0.316094,0.625335,-0.005808,-0.525298,-1.683070,0.964741,-1.773893,-4.629000
759.000000,0.002000,0.682002,0.684484,0.195480,0.120796,-1.578930,0.730604,-4.591867,-3.616889,-1.483653
760.000000,0.002000,1.516226,0.666828,-0.503433,-0.886953,0.090801,0.330080,-3.753068,-1.743054,1.346776
761.000000,0.002000,-0.787999,0.016980,-1.462800,1.353258,-0.693079,0.010519,2.266577,-0.290357,3.978631
762.000000,0.002000,-0.694947,-0.060659,-0.296087,1.421990,-1.014962,1.452600,3.146988,1.752174,1.690508
763.000000,0.002000,-1.251388,0.210273,0.143431,-0.344703,0.723567,0.020879,5.139171,-0.885843,-0.995688
764.000000,0.002000,-0.016260,-0.555452,0.590792,0.674224,-0.193040,-1.415825,0.085089,3.243939,-3.969467
765.000000,0.002000,0.096131,-0.285990,2.334529,-0.865722,-0.153790,-0.872484,-0.197618,0.393841,-3.127098
766.000000,0.002000,0.223658,0.574099,-0.610049,0.019842,-2.451825,0.212020,0.239163,-5.054836,0.207066
767.000000,0.002000,-1.191186,-0.770683,-0.135559,1.188244,0.430069,0.555241,4.632014,2.862622,0.792898
768.000000,0.002000,-0.134899,1.210628,-0.422720,1.341994,-1.091828,-0.799230,0.999071,-4.502125,2.038017
769.000000,0.002000,0.462928,0.189698,-0.072067,-0.464863,0.703451,1.423109,-4.107818,-0.979090,2.274545
770.000000,0.002000,0.465287,1.991237,-0.927978,1.275066,0.439490,-0.341592,-0.771308,-3.710386,1.062724
771.000000,0.002000,1.070076,-0.941683,-0.702562,0.563964,0.737506,-0.546301,-3.556873,2.897925,1.807112
772.000000,0.002000,0.072492,0.314013,1.367882,0.182983,-0.186738,-1.030700,-0.255216,-1.152301,-5.002609
773.000000,0.002000,0.265822,-0.867160,0.297052,0.874832,0.479525,-1.539005,-1.252147,3.506588,-1.171337
774.000000,0.002000,-0.221453,0.396172,0.185827,0.727011,0.211050,0.887298,2.517735,-2.455874,-2.281349
775.000000,0.002000,-1.439454,0.735018,0.286509,2.238725,0.509048,-1.120933,5.111424,-1.672823,0.053737
776.000000,0.002000,1.011210,1.161194,-1.329958,0.006753,-2.488993,-0.129413,-2.282563,-1.970309,2.579728
777.000000,0.002000,-0.046958,0.353018,-0.188912,-1.986644,-0.558112,1.077175,-0.500465,-2.647787,1.740533
778.000000,0.002000,0.331312,0.618009,-0.845676,-0.431425,0.050811,1.889218,-2.177458,-4.341645,4.955359
779.000000,0.002000,0.302797,-0.674890,-0.402974,-0.001763,1.438272,1.122942,-1.367286,4.397279,0.856452
780.000000,0.002000,-1.409309,-0.093715,0.064427,1.856839,1.432157,0.894629,4.965614,0.706104,-0.551741
781.000000,0.002000,0.849724,0.281331,-1.306552,0.714032,0.835152,1.391112,-2.598757,-0.833130,4.010974
782.000000,0.002000,0.743190,-0.316929,0.925538,-0.869138,-0.436960,0.946500,-3.310953,1.692204,-4.281198
783.000000,0.002000,0.741386,1.220853,2.018521,-0.888163,-0.893938,-0.150656,-0.858944,-1.456173,-2.518632
784.000000,0.002000,-0.090057,0.474645,-0.617679,0.022339,0.180830,2.135177,0.804677,-3.243648,4.321688
785.000000,0.002000,0.924073,-0.356649,-1.406023,-0.777181,2.926191,1.810117,-2.559886,0.882694,3.643861
786.000000,0.002000,0.343942,-0.303986,0.999327,-1.950001,0.963526,0.123567,-1.556615,1.360249,-4.916930
787.000000,0.002000,0.575761,-1.711669,-2.739092,0.513987,-0.127739,0.171315,-0.325055,0.954713,1.538445
788.000000,0.002000,-0.950051,0.391718,-0.682847,0.972897,1.060868,2.261790,4.368756,-1.722909,2.584587
789.000000,0.002000,-0.322808,-0.882841,0.113905,1.390936,2.563104,-0.331964,1.999244,5.445533,-0.869240
790.000000,0.002000,-0.135089,-0.159534,0.727380,-0.739529,1.278984,-2.960517,1.004136,1.101267,-4.937577
791.000000,0.002000,1.336718,0.167214,-1.543015,-0.872401,-1.403802,1.244713,-2.513478,-0.356150,2.897552
792.000000,0.002000,-1.449918,0.031426,-0.521379,-0.530484,-1.340039,0.649393,4.319144,-0.263477,1.911129
793.000000,0.002000,-0.560411,1.246924,0.454024,0.035090,0.523841,-0.416246,2.246441,-4.337900,-1.625515
794.000000,0.002000,0.713950,-0.078737,1.352627,-2.330742,1.275525,-0.631843,-2.402239,0.579117,-4.136333
795.000000,0.002000,-0.761067,1.222217,0.081897,-0.366648,-1.510060,-0.127958,2.773988,-3.759161,-0.038935
796.000000,0.002000,-1.475875,-1.878632,-0.237241,-1.750991,-0.380525,0.307208,2.062603,2.423124,0.319009
797.000000,0.002000,-0.670391,0.448453,-0.131855,-0.868641,-1.806201,0.087877,4.600368,-2.039663,1.646593
798.000000,0.002000,-1.122140,0.862773,0.345648,-1.793966,-1.202822,1.829665,3.703808,-3.091622,-1.498678
799.000000,0.002000,-0.351063,0.169916,-0.155802,1.145805,-1.715402,1.410434,3.572527,-2.234216,1.541899
800.000000,0.002000,0.347907,-0.628250,-0.248002,-1.284987,0.508598,-0.028537,-4.512686,2.666377,-3.218569
801.000000,0.002000,-0.362186,-0.222065,0.122070,-1.514582,0.857398,0.225100,4.902102,1.037460,-8.365142
802.000000,0.002000,1.113623,0.343478,0.731164,0.299481,-0.446671,0.499385,-4.853287,-1.359014,-4.444311
803.000000,0.002000,-0.249720,0.592672,0.166515,1.541292,-1.414186,-1.905826,0.860389,-3.772821,-1.222537
804.000000,0.002000,0.468161,-0.216731,-0.639144,-2.320990,1.966324,-1.179732,-3.215704,1.481160,3.955972
805.000000,0.002000,0.419466,-0.532893,-0.132159,-1.098661,0.773489,0.359269,-2.985717,3.955631,0.391745
806.000000,0.002000,1.406930,1.863955,0.883306,-1.958786,-0.570094,-1.337024,-1.661506,-2.152940,-1.058104
807.000000,0.002000,1.093529,-1.044916,0.632274,0.096390,0.338869,0.152224,-2.925078,2.881926,-1.709177
808.000000,0.002000,0.084553,-0.887791,-0.693860,1.504403,1.170559,-0.191772,-0.553282,4.074113,3.153621
809.000000,0.002000,0.323160,-0.093234,-0.678853,0.439569,1.607538,0.039952,-1.420413,-1.170714,4.023291
810.000000,0.002000,0.417001,-0.104024,0.251742,-1.749509,-0.684563,-0.274560,-2.694131,1.156963,-2.731260
811.000000,0.002000,-0.298242,-1.298035,-1.282863,-1.304199,-1.652772,0.776988,0.480398,3.013967,2.878722
812.000000,0.002000,0.231099,-0.456856,-1.590665,-0.355222,0.290103,2.004552,-0.644188,1.018704,4.427358
813.000000,0.002000,-0.424202,-0.953323,0.853221,0.137367,0.967554,0.081851,1.363756,3.012475,-3.962023
814.000000,0.002000,-0.149272,0.962713,-0.679429,-2.244573,1.029147,0.404181,1.141471,-4.483936,3.096687
815.000000,0.002000,0.869760,0.216474,-0.638639,-0.054511,-0.515534,-0.406500,-4.035443,-1.223631,3.045172
816.000000,0.002000,-0.673785,0.465599,-0.614199,-0.343230,-1.807632,-0.047666,3.257808,-2.173241,3.362450
817.000000,0.002000,0.670648,0.872153,1.670569,1.074627,-0.772287,-1.244378,-1.289557,-1.497900,-3.155583
818.000000,0.002000,1.213436,0.858611,-1.395271,-1.840899,-0.336710,0.720750,-2.299415,-1.535015,2.623967
819.000000,0.002000,-0.452281,-0.910938,1.301617,0.984901,-0.907024,-1.705936,1.130418,2.441497,-3.542523
820.000000,0.002000,-0.381243,0.099003,0.199028,1.488771,-1.156639,0.054309,0.916378,-0.791667,-0.402379
821.000000,0.002000,-1.015213,0.054473,0.223628,0.314081,-1.186420,-0.858572,5.145947,0.383674,-1.736527
822.000000,0.002000,-1.137483,1.539191,-1.485386,0.630520,0.807769,2.273119,1.414527,-2.241845,1.538415
823.000000,0.002000,-0.320677,1.134150,-0.887858,1.128623,0.086456,1.471959,1.145574,-3.781972,2.879970
824.000000,0.002000,0.341458,-1.070281,0.037327,-0.249859,1.449917,0.425679,-1.887202,5.229070,-0.452448
825.000000,0.002000,-2.067942,-0.366751,-1.684825,1.115267,1.654139,-0.243746,2.100973,0.386310,1.797296
826.000000,0.002000,0.003750,-0.272125,-1.114740,1.436765,0.613623,-0.841446,0.103259,0.730054,5.245798
827.000000,0.002000,0.514457,-0.643692,0.474224,-1.410764,1.286140,-0.924462,-3.194171,4.229093,-2.843941
828.000000,0.002000,2.113792,-0.065782,-1.066944,1.173815,-0.684737,-0.467566,-2.752521,0.139567,1.427977
829.000000,0.002000,-1.122715,-0.244218,0.354534,0.985657,1.789646,-1.385897,4.762634,1.197938,-1.322654
830.000000,0.002000,0.098732,1.013147,0.665563,-0.263990,-0.296845,-0.810310,-0.415195,-4.384662,-3.480529
831.000000,0.002000,-0.136130,0.250869,1.601818,-0.904851,-0.840009,-1.485286,0.054611,-0.698223,-4.873436
832.000000,0.002000,1.415470,-0.360378,1.182657,-0.458703,-0.072431,0.244263,-2.944523,0.827136,-2.663709
833.000000,0.002000,0.419900,0.426880,0.833532,-0.897605,-2.781552,0.025983,-2.294032,-2.313524,-4.636060
834.000000,0.002000,-0.822779,-1.155345,0.126835,0.866527,2.085732,-1.603597,3.081782,4.283683,-1.045534
835.000000,0.002000,2.218912,-0.734544,0.279437,0.594244,0.295779,1.529428,-2.951960,1.049754,-0.425626
836.000000,0.002000,-1.192360,1.401880,-2.588953,-0.404258,0.615711,-0.692868,0.736860,-0.839650,1.574054
837.000000,0.002000,-1.801214,0.863426,0.583068,2.014948,1.420396,2.123161,3.370499,-1.715808,-1.034073
838.000000,0.002000,-0.373287,-0.652141,0.413675,0.582136,-0.749505,-0.838378,1.879687,4.246247,-3.125884
839.000000,0.002000,-0.579550,-1.021460,-0.459830,-0.262909,0.815602,1.871002,2.475720,4.442667,1.929001
840.000000,0.002000,1.306251,-0.352415,-2.087012,1.121352,0.664674,-1.926775,-1.518054,0.501488,2.396081
841.000000,0.002000,0.658471,1.014458,1.056972,1.623538,1.332451,-1.427857,-1.895519,-2.805833,-3.141832
842.000000,0.002000,-0.537462,-0.519287,0.715146,-2.330583,0.811588,0.316036,2.658330,2.350418,-4.187263
843.000000,0.002000,0.950342,0.098869,0.153035,0.026995,0.436322,0.566779,-4.988378,-0.935938,-0.142224
844.000000,0.002000,-0.195683,0.337633,1.040591,-1.510326,1.253178,2.043164,0.859916,-1.626749,-4.481576
845.000000,0.002000,-0.815368,-1.037148,-0.479438,1.126225,0.875079,1.424674,3.170428,3.795651,1.423161
846.000000,0.002000,0.423669,-0.046593,0.456891,-1.089712,-0.924256,-2.482277,-3.244708,0.571895,-3.035405
847.000000,0.002000,-0.099147,-1.042401,1.180228,0.325816,0.778307,-0.367310,0.063361,3.081782,-3.557096
848.000000,0.002000,0.384937,1.296595,0.464745,1.196695,-0.612323,-0.738569,-1.549198,-4.802962,-2.072194
849.000000,0.002000,1.743101,0.632330,0.929483,-1.945258,2.757366,-0.120757,-3.182819,-1.100675,-1.720652
850.000000,0.002000,0.745333,-0.661205,-0.760205,-1.001970,0.060656,-1.619438,-2.557831,3.513194,3.395164
851.000000,0.002000,-1.395129,-1.179198,0.378798,0.659121,1.644799,0.763925,3.375377,2.921787,-0.911518
852.000000,0.002000,0.561916,0.738683,-0.229488,-1.326803,-0.135861,-1.833551,-3.213541,-3.143502,1.079689
853.000000,0.002000,0.438066,-0.252485,-0.169818,-1.903128,1.454226,0.612022,-4.999791,0.592529,-2.053732
854.000000,0.002000,0.804540,0.571947,-0.255753,-0.359844,0.088099,0.014550,-4.324262,-3.100403,1.259512
855.000000,0.002000,0.927823,-1.050820,-0.731488,-1.746669,1.317199,-0.503972,-2.794496,3.615867,1.648042
856.000000,0.002000,-0.423071,0.999082,0.122372,-0.208342,-0.094756,0.355849,2.783889,-5.760366,-0.886414
857.000000,0.002000,-1.431888,0.137014,1.020497,-0.043004,-1.384870,-0.582471,3.590022,-0.440255,-2.593274
858.000000,0.002000,1.135434,0.417256,-1.441737,1.005324,-0.810233,1.929354,-2.667428,-0.958160,3.196783
859.000000,0.002000,-0.514170,0.264377,-0.455167,1.793610,-1.106453,-0.854558,3.795697,-2.023573,7.624108
860.000000,0.002000,0.240066,-1.106273,-0.184897,-1.174991,1.201066,-0.287272,-1.717365,5.434884,0.866255
861.000000,0.002000,-1.315160,-2.320919,0.403088,0.435527,-0.875312,0.305705,1.184484,2.222371,-0.372636
862.000000,0.002000,0.833802,0.103708,-0.453628,-0.639978,-0.641775,-1.124813,-4.294305,-0.472050,2.748327
863.000000,0.002000,-1.544526,1.125202,-0.253154,0.528966,0.084719,-0.655113,3.081011,-2.323266,0.346276
864.000000,0.002000,2.032650,0.567866,-2.458328,0.059047,-1.314136,-1.296655,-1.146235,-0.343577,1.417067
865.000000,0.002000,1.168238,-1.224448,-1.279673,1.087408,0.957732,-1.485929,-2.466349,1.461649,1.798458
866.000000,0.002000,0.434499,-0.370889,-0.180853,2.050929,-0.555035,-1.988410,-3.629799,4.026434,1.716491
867.000000,0.002000,-1.201674,-1.061002,0.099347,-0.172231,0.764264,-1.773391,3.120867,3.521814,-0.114444
868.000000,0.002000,-0.326585,0.305831,-2.099180,-1.004556,0.355058,0.829454,0.450256,-0.623672,3.435438
869.000000,0.002000,0.140970,-0.607672,-0.691090,0.991719,1.395911,1.327056,-0.631594,3.102871,4.149897
870.000000,0.002000,1.112149,-0.428709,-0.659010,0.140944,2.536595,1.773008,-3.876896,1.684138,1.726922
871.000000,0.002000,-0.226693,0.174065,-1.429340,0.486722,-1.083925,-1.172171,1.145884,-0.570190,4.998727
872.000000,0.002000,1.715658,1.330619,-1.023629,1.283365,-0.678945,-0.262793,-2.195892,-1.661596,1.343521
873.000000,0.002000,-0.753923,-0.738815,-1.393518,-1.534586,0.377033,1.523315,0.487027,0.337513,3.575915
874.000000,0.002000,0.539961,0.642705,1.506504,0.618614,-0.518492,-2.215220,-1.529782,-1.640861,-3.944004
875.000000,0.002000,-0.910145,1.456394,1.089013,0.218014,0.003937,-1.155555,1.773812,-2.826522,-1.955369
876.000000,0.002000,-0.699398,0.607150,0.864704,-2.723626,-0.407921,-0.533462,3.108368,-2.440969,-3.548377
877.000000,0.002000,1.792718,0.252945,-0.160021,-1.200670,-0.871972,-0.306084,-4.193014,-0.624675,0.407378
878.000000,0.002000,-0.884931,0.037706,0.901355,0.412752,-0.977594,-0.946121,3.580367,-0.272348,-4.012179
879.000000,0.002000,-0.230987,-0.809378,0.006384,-1.574164,0.625690,-0.344910,1.042397,4.929207,-0.372889
880.000000,0.002000,-0.478373,0.344136,-1.547066,-1.008550,0.122926,0.966490,1.462676,-1.145148,4.215159
881.000000,0.002000,0.344212,0.745219,0.606969,-1.060941,-0.079587,0.104938,-1.969507,-4.292317,-3.572776
882.000000,0.002000,-0.107294,-2.140701,-0.315365,-0.300219,-0.548471,-0.954227,-0.062456,3.631867,0.608684
883.000000,0.002000,1.228209,-0.419942,-1.890851,0.314247,1.584444,0.718455,-1.811566,0.614681,2.618011
884.000000,0.002000,-1.413112,0.774748,0.486296,1.013419,1.277648,0.200496,3.779964,-2.111915,-1.324751
885.000000,0.002000,0.376886,-0.354516,-1.658810,-1.908543,-0.945195,0.075083,-1.122434,0.612713,4.361689
886.000000,0.002000,-0.723084,0.697890,0.473789,0.820452,-0.864296,0.849214,3.725247,-3.551223,-2.309638
887.000000,0.002000,0.339204,-0.080681,-0.352932,-1.433256,-1.782380,-0.032613,-2.601985,0.175374,4.150733
888.000000,0.002000,-0.025573,1.487716,0.433806,0.542477,-1.831623,-0.085589,0.052842,-4.747954,-1.432446
889.000000,0.002000,0.106541,0.320384,-0.041042,0.730725,-0.849375,-0.885771,-0.738594,-3.076263,1.363266
890.000000,0.002000,-2.269582,0.699926,1.490147,-0.087902,0.079927,-1.297335,2.004984,-0.632714,-1.262116
891.000000,0.002000,-0.850018,0.931970,-0.476978,0.163326,-2.259558,-0.550966,3.010581,-3.552202,2.261519
892.000000,0.002000,0.156536,0.873984,-0.044659,-0.562830,-1.378085,2.466988,-1.143186,-5.825692,0.470715
893.000000,0.002000,1.160764,-0.928492,-1.090027,-0.662851,1.256997,-0.406674,-2.776552,2.140727,2.398106
894.000000,0.002000,-0.289330,0.619747,0.144369,1.259332,-0.700104,1.638946,1.485140,-4.847258,-0.198316
895.000000,0.002000,-1.507636,-0.508344,-1.004317,0.523667,-0.838287,-0.445973,3.173150,0.942068,2.182305
896.000000,0.002000,0.223177,-0.350977,0.357210,-2.075171,0.289097,0.584762,-1.276234,1.984876,-2.605268
897.000000,0.002000,-0.189744,0.479555,-0.294842,0.946569,-0.249861,-0.031273,0.639736,-2.871924,2.888607
898.000000,0.002000,0.429408,-2.067670,-0.485952,0.257261,2.214970,-1.874219,-0.736538,3.352483,0.813373
899.000000,0.002000,0.014843,0.193978,0.578618,-1.468276,1.244107,-0.893894,-0.329086,-0.870440,-4.632253
900.000000,0.002000,0.443838,1.196386,0.210407,-1.240328,-0.961854,0.254383,-1.924175,-4.327348,-1.031165
901.000000,0.002000,-2.069082,-2.154785,-1.594539,-0.363580,0.604341,0.147197,1.053933,1.108011,0.816989
902.000000,0.002000,0.403835,0.033203,0.177062,1.146212,0.746069,-0.609135,-3.260140,0.490003,-1.857085
903.000000,0.002000,-0.556133,-0.567929,0.514045,0.674209,1.000477,-0.554075,3.078179,3.162863,-2.806320
904.000000,0.002000,0.659924,-0.513630,0.011099,-0.563072,-0.543159,0.071207,-1.474252,5.404653,-0.586311
905.000000,0.002000,0.128852,0.465969,-1.205822,-1.033444,-0.377423,0.469231,-0.542806,-1.938442,4.925310
906.000000,0.002000,-0.340005,-0.914242,-0.149693,1.595129,1.735087,1.397952,1.932833,4.561437,0.986795
907.000000,0.002000,0.705030,0.524539,-0.858038,-0.759687,-0.398938,1.287653,-3.593108,-2.192288,4.559038
908.000000,0.002000,0.747428,-0.171567,-0.298616,0.275366,-0.787151,0.990104,-4.638079,1.234713,2.583009
909.000000,0.002000,-1.375496,-0.103972,0.767943,0.655821,0.329807,0.050853,3.911830,0.928462,-1.845082
910.000000,0.002000,-2.307253,-0.088927,2.694766,-0.309711,1.036825,1.275779,1.035031,0.035503,-1.218603
911.000000,0.002000,0.873149,0.354292,-0.527356,0.091316,0.032500,1.098652,-3.907800,-2.533303,3.119063
912.000000,0.002000,-0.719337,-0.318114,1.834002,0.085194,-0.679800,0.220072,1.238237,0.730855,-3.562057
913.000000,0.002000,-0.132926,-0.914849,1.297550,-2.051483,0.192316,-0.177444,0.226567,2.611811,-3.902912
914.000000,0.002000,-0.089864,0.331714,-0.801197,0.810800,-5.028964,-0.248239,2.485922,-1.515905,2.737321
915.000000,0.002000,-0.744848,-0.040107,0.816107,1.352673,-0.658054,-1.041284,3.824058,0.591977,-3.501882
916.000000,0.002000,1.250463,-0.035992,-1.312402,0.236798,-0.666833,-0.602105,-3.009800,-0.161032,3.487838
917.000000,0.002000,0.213198,-2.082782,-1.422548,2.398779,0.196338,-1.464537,-0.328723,2.470743,1.692187
918.000000,0.002000,-0.379078,0.463633,-0.132721,-0.391945,-0.138592,0.980614,2.088574,-4.909804,-0.102847
919.000000,0.002000,-0.619692,-0.165001,0.546668,-1.489277,0.895591,-1.205974,4.210816,1.227189,-3.569515
920.000000,0.002000,-0.756714,1.094461,1.616530,0.670661,0.604863,-1.563667,1.386364,-1.994243,-2.862442
921.000000,0.002000,0.505939,-0.647180,-0.225369,-0.349327,0.114968,1.202452,-3.010664,4.528144,1.175249
922.000000,0.002000,0.910901,-0.425726,-0.873410,-1.489864,2.665358,0.656793,-3.594470,0.225781,1.081926
923.000000,0.002000,-0.373820,-1.309240,-1.341623,2.834127,0.302867,-0.613921,0.897261,2.926663,3.002949
924.000000,0.002000,0.069235,1.292693,-0.654281,-2.522261,0.057034,0.538284,-0.297849,-4.310833,2.566088
925.000000,0.002000,0.494243,0.537545,0.587583,0.529549,-1.250091,1.259184,-3.067011,-3.067065,-3.756005
926.000000,0.002000,-0.920863,-1.532378,1.407814,0.337342,0.144890,1.050973,1.462265,1.944074,-2.127611
927.000000,0.002000,0.362806,0.758336,-1.160232,-0.676577,0.295111,0.429834,-1.579275,-2.725408,4.029228
928.000000,0.002000,0.310930,0.675322,0.447982,-0.059777,-0.535732,0.030351,-3.319155,-6.300564,-5.396386
929.000000,0.002000,-0.415330,1.555432,-1.453685,1.231246,1.479362,0.598377,0.748479,-2.423697,2.236777
930.000000,0.002000,0.653482,1.562912,1.431504,-1.105118,1.283416,-0.814987,-0.893674,-2.083114,-2.350082
931.000000,0.002000,-0.053536,-1.227048,0.679468,1.030734,-0.171488,-0.791460,-0.098851,4.344318,-2.876514
932.000000,0.002000,-1.074525,0.263050,-0.173972,-0.570312,0.558063,0.677358,4.914489,-1.540280,1.148953
933.000000,0.002000,-0.927903,0.357927,-1.085665,0.268286,-0.072041,1.534984,2.803048,-1.411096,3.582928
934.000000,0.002000,0.766733,-0.774420,-1.587322,0.354332,0.883821,1.003796,-1.883969,1.610834,3.693570
935.000000,0.002000,-0.173355,0.370348,0.615064,-0.248465,-0.419494,-0.425313,1.767405,-2.328906,-4.292356
936.000000,0.002000,0.852517,-2.172978,-0.977736,-0.019466,0.958703,0.242683,-0.957233,2.471481,1.086884
937.000000,0.002000,0.184380,1.369804,0.710373,0.184427,-1.072163,-0.538426,-0.694942,-4.307864,-2.435648
938.000000,0.002000,2.092348,-0.167741,0.304979,0.126084,1.257540,0.014160,-3.350960,0.190195,-0.488297
939.000000,0.002000,-0.727512,-0.491924,-0.681752,1.736475,-0.056305,0.629268,3.688832,2.276098,3.785468
940.000000,0.002000,-0.669713,-0.422642,0.339519,0.375593,0.226365,0.926413,4.364566,2.849872,-2.879019
941.000000,0.002000,-0.283595,-0.577104,-0.096534,-0.763805,-3.478696,-0.776123,2.626299,4.486657,0.219193
942.000000,0.002000,0.309806,-0.295169,0.032445,2.010816,1.108258,1.187139,-2.910220,2.519531,-1.139212
943.000000,0.002000,-0.187412,0.686944,0.875863,1.043311,0.295506,-0.552726,0.887065,-2.972045,-4.434366
944.000000,0.002000,0.989262,-0.391327,0.810726,-1.498004,1.660158,0.794304,-3.854740,1.461900,-2.682785
945.000000,0.002000,-0.904777,0.672399,1.340307,2.025569,0.789275,0.394929,2.312960,-1.554059,-3.351342
946.000000,0.002000,-0.087260,1.163994,-1.499577,0.235957,-0.073649,-0.742740,0.111659,-2.422665,3.277634
947.000000,0.002000,-1.065742,0.201749,0.230509,0.051305,1.103644,-2.939451,5.434597,-0.837108,-1.887340
948.000000,0.002000,0.033344,-0.072051,-0.712943,1.676122,1.363494,1.484160,-0.071807,-0.157117,3.963715
949.000000,0.002000,0.294396,1.010554,0.380553,0.160485,-1.447064,-1.480873,-0.613083,-4.625853,-2.497347
950.000000,0.002000,0.842852,-0.164650,-1.015935,0.053371,0.257475,-0.923385,-3.068055,0.437699,4.161831
951.000000,0.002000,-0.029626,-0.130692,-0.292472,-2.539474,-0.251516,-0.058504,0.361066,0.454113,2.386029
952.000000,0.002000,0.937785,0.055312,-0.763437,-0.507872,0.823839,0.717766,-4.366772,-0.053798,3.579336
953.000000,0.002000,0.556330,-0.191851,-0.703747,-1.628784,-0.820165,1.699852,-3.764184,0.950580,4.626351
954.000000,0.002000,-0.943534,0.534972,2.209759,0.720981,1.409961,-0.821411,0.978807,-0.624043,-2.669001
955.000000,0.002000,-1.072925,-0.221337,0.812675,-1.843388,0.565747,-2.864627,3.694836,1.085375,-2.571409
956.000000,0.002000,0.471876,-1.037281,-1.196930,1.680782,1.812109,1.714339,-1.282333,3.039099,2.985581
957.000000,0.002000,1.211882,0.458540,1.416681,-0.412617,-0.849252,1.552282,-2.411847,-0.999713,-2.995967
958.000000,0.002000,0.413765,-0.213095,-0.246961,1.330435,2.066388,0.162934,1.481244,2.352696,1.535410
959.000000,0.002000,-0.312246,-0.825703,0.396051,-1.323173,0.613484,-0.943620,1.633877,4.646831,-2.568983
960.000000,0.002000,-0.709536,-0.309596,0.033147,2.523858,0.339603,0.823045,4.838734,2.408146,-0.470650
961.000000,0.002000,-0.939233,-2.408552,0.304054,-0.689372,-0.278808,-0.508660,0.981092,2.542885,-0.330277
962.000000,0.002000,-0.848984,1.297613,-0.428606,0.037707,-0.650498,-0.132660,2.271300,-3.971779,0.958044
963.000000,0.002000,-0.415608,0.351622,0.410596,0.742314,0.726463,-2.598261,3.135178,-1.956501,-2.147792
964.000000,0.002000,-0.525591,0.449401,1.359953,0.351483,-2.108566,-0.856740,1.962452,-1.378603,-4.294907
965.000000,0.002000,0.958264,1.407573,1.368833,-0.329032,-1.056756,-0.048446,-1.577185,-2.206011,-2.174777
966.000000,0.002000,0.874127,1.495985,0.225394,-2.477261,-0.861690,-0.021407,-2.212431,-3.987427,-0.630155
967.000000,0.002000,-0.150404,-2.132683,-1.840251,0.968557,0.732387,-1.498762,0.131048,1.857839,1.583424
968.000000,0.002000,-0.489645,0.052987,0.275195,0.302771,1.547338,1.221625,3.371390,-0.095975,-2.510422
969.000000,0.002000,-1.067391,-1.744443,0.132365,0.072395,-0.020743,0.885291,1.884700,3.300228,-0.272985
970.000000,0.002000,-0.305189,-0.609086,-0.577915,-0.220916,1.082046,1.059367,0.161943,3.339523,3.766783
971.000000,0.002000,-1.112745,-0.219029,-0.672792,-0.028992,0.685536,1.055283,4.428456,0.441666,2.755925
972.000000,0.002000,0.672870,0.299599,-1.230635,-2.382955,0.074043,-0.297877,-2.179654,-0.928855,4.629550
973.000000,0.002000,-0.339698,-1.582608,1.066594,-0.123649,-0.876583,-0.186826,0.642754,3.237438,-2.173655
974.000000,0.002000,1.429910,0.397377,-0.781453,-0.337891,-3.072297,1.527283,-3.947858,-1.138027,2.164389
975.000000,0.002000,0.135979,-0.494414,0.318210,0.720825,0.111859,-1.198689,0.173819,4.962058,-3.415992
976.000000,0.002000,-0.573835,0.001104,0.049924,2.026640,2.464108,1.594106,4.286305,0.133272,-0.397746
977.000000,0.002000,-0.025975,0.123494,-0.554371,-0.608586,-2.177477,-0.194063,0.103224,-1.006598,5.201935
978.000000,0.002000,0.328510,0.385368,-0.674332,-1.481678,-1.799691,-1.116509,-2.598828,-2.243726,4.414278
979.000000,0.002000,-1.217197,-1.161367,0.448782,0.480014,0.501609,-0.719271,2.512240,3.254605,-1.616271
980.000000,0.002000,-0.628123,-1.858816,0.050064,-0.333749,0.053630,-1.949633,1.317144,3.685830,-0.144511
981.000000,0.002000,0.038989,-1.304806,1.110134,-0.239880,0.757243,-0.646437,-0.120399,3.517169,-3.819863
982.000000,0.002000,1.093310,0.501658,-0.780668,0.334488,1.009561,2.110021,-3.818110,-1.919903,2.731746
983.000000,0.002000,-1.033332,-0.096883,-1.993198,1.483599,0.741894,-0.500532,1.546527,0.157604,2.928681
984.000000,0.002000,0.310297,-1.177172,-0.151065,-0.499474,1.448910,-1.045237,-1.573628,5.334373,0.402155
985.000000,0.002000,-0.378191,0.605849,-0.874481,-0.059858,-0.784627,0.711984,1.411201,-3.648939,3.574971
986.000000,0.002000,0.147035,-1.006892,0.142776,-0.613530,1.985190,-2.389640,-1.471759,4.985198,-0.909618
987.000000,0.002000,-0.142371,0.661247,-0.984376,-0.119596,0.195215,1.725706,0.192958,-4.899241,2.852505
988.000000,0.002000,0.048605,0.441144,0.672412,-1.634150,0.205220,0.405445,-0.152556,-2.702251,-5.372369
989.000000,0.002000,-0.085965,-0.088625,1.163578,-1.387723,0.447073,-0.968687,0.152329,0.566739,-5.110303
990.000000,0.002000,-0.202406,-0.573026,-0.164104,0.080819,1.124369,-0.276584,1.877885,3.661441,1.958677
991.000000,0.002000,-0.656758,-0.899800,-0.173863,1.498910,-0.921271,0.159281,3.392077,4.484776,0.709460
992.000000,0.002000,-0.252740,0.437703,2.336053,0.481463,0.737099,0.820931,0.262633,-0.639924,-3.078165
993.000000,0.002000,0.339877,0.639424,-0.410602,-1.034715,-1.964469,0.688236,-2.074638,-3.981263,3.339730
994.000000,0.002000,-0.757449,-0.579972,1.257044,-0.201434,-0.450064,0.816439,2.198835,1.915992,-3.640016
995.000000,0.002000,-1.888598,-0.822082,-0.075217,1.338732,0.928824,-0.576174,3.483305,1.637328,0.138287
996.000000,0.002000,-0.232806,1.858809,0.141263,0.054088,-0.958322,-1.082434,0.525850,-4.243505,-0.211682
997.000000,0.002000,-0.246080,-1.643741,-1.025522,1.531640,0.318839,-2.006023,0.490662,3.108200,1.996152
998.000000,0.002000,-0.430865,0.442787,-0.136064,3.459769,-0.386908,-0.959318,4.863172,-2.709752,1.169558
999.000000,0.002000,0.280319,2.296197,-1.278605,-0.179285,0.354974,-1.033501,-0.258284,-2.251263,1.382471
1000.000000,0.002000,-0.155788,-0.948912,0.348641,0.264399,1.489185,1.291375,1.721668,5.053399,-1.345633
1001.000000,0.002000,1.019520,0.908188,-0.164065,-2.468866,0.734782,-0.065499,-3.760633,-3.279496,0.918831
1002.000000,0.002000,0.349314,-1.264901,-0.592462,0.185501,0.449461,-0.487225,-2.234994,4.060166,1.241697
1003.000000,0.002000,0.057925,0.387880,-1.008032,-0.099944,0.760482,2.439527,-0.209160,-2.076502,5.176503
1004.000000,0.002000,-0.121340,0.456526,-0.441714,-1.470278,0.242992,0.240027,0.955608,-3.229363,3.712271
1005.000000,0.002000,-0.216689,-1.823766,-1.707289,-0.696959,-0.809173,-0.425695,0.311976,2.054805,2.126616
1006.000000,0.002000,0.366452,-0.750699,0.001783,0.507031,0.440150,0.031319,-2.625611,5.458068,-0.335808
1007.000000,0.002000,1.331279,0.246197,-2.803479,1.517843,1.393409,0.313072,-0.888768,-0.165356,1.808457
1008.000000,0.002000,-0.112222,-0.911478,-0.714210,0.226680,-0.882401,-1.190598,0.324258,5.469159,3.189364
1009.000000,0.002000,0.725179,-1.564732,0.115409,-0.897616,0.578939,-0.498297,-2.178709,3.885722,-0.344687
1010.000000,0.002000,1.805374,-0.474122,0.648003,0.238550,0.667937,0.426096,-3.456811,0.656762,-1.429667
1011.000000,0.002000,0.728874,0.158572,-0.985002,-1.261463,-0.268246,-0.419267,-3.252417,-0.515480,4.788691
1012.000000,0.002000,-0.879841,1.372578,0.379677,-0.182661,1.560211,-0.918056,2.367995,-3.908014,-1.126609
1013.000000,0.002000,-0.820215,-1.144526,-0.664045,0.238072,0.570230,2.402900,2.823944,3.855841,2.048060
1014.000000,0.002000,1.515153,-0.190033,1.801067,-0.748445,-0.395564,-2.214393,-1.918344,0.023221,-2.243957
1015.000000,0.002000,0.576964,0.031744,0.147700,-0.513723,-1.445779,-0.742975,-5.006743,0.297784,-0.610837
1016.000000,0.002000,1.017802,-0.664505,2.320011,-0.099588,1.124866,0.192985,-1.080838,0.699308,-2.239330
1017.000000,0.002000,0.036669,-0.198754,0.725219,0.408436,1.989814,0.874493,-0.016933,0.914319,-5.300818
1018.000000,0.002000,1.110026,-0.651142,0.678497,-0.408004,1.545415,0.073405,-3.503131,2.074568,-2.209971
1019.000000,0.002000,-0.516977,-0.318669,-0.562299,1.127931,0.854175,0.216549,3.226320,1.544563,4.118540
1020.000000,0.002000,0.718549,-1.060655,-0.140273,-0.560556,0.794259,-1.105066,-3.077966,4.570043,0.622852
1021.000000,0.002000,-0.271401,-0.983710,-0.906002,0.386767,0.046371,1.482449,0.837344,4.360465,3.447978
1022.000000,0.002000,-1.639088,-1.632176,0.670548,-1.152540,0.329169,-0.911437,2.099989,2.050824,-0.957178
1023.000000,0.002000,-0.025463,0.044315,1.137686,0.747117,-0.403704,-0.823687,-0.062628,0.211735,-4.997262
1024.000000,0.002000,-1.288781,-1.083131,0.426528,0.244713,-0.115787,0.405563,3.890857,1.332805,-1.268876
1025.000000,0.002000,-1.742370,-0.699068,-1.171343,0.694239,-0.243929,-0.575258,2.754799,1.145607,1.949877
1026.000000,0.002000,0.069584,-0.458748,1.381513,-0.964262,0.099032,-2.693393,-0.190568,1.777672,-4.502742
1027.000000,0.002000,0.581031,-0.478800,-0.380737,-1.749157,1.698372,0.315642,-4.352510,4.207840,4.120914
1028.000000,0.002000,-0.191204,3.584650,-1.422681,0.535645,0.735376,0.372965,0.068836,-1.242395,0.502156
1029.000000,0.002000,0.223103,-2.367936,-0.147234,0.019056,-0.461067,-0.442813,-0.268047,3.071415,0.259995
1030.000000,0.002000,1.840281,-0.465737,1.307940,-0.619896,-0.075797,0.417387,-2.512257,0.780576,-1.833104
1031.000000,0.002000,-0.165027,-0.137159,-0.407538,-0.282212,1.115557,-0.149585,2.835188,1.156926,3.028725
1032.000000,0.002000,-1.043962,-0.678781,-1.470532,-1.177473,0.085589,-0.032117,2.178731,1.471612,2.816162
1033.000000,0.002000,1.150903,-0.823812,0.430949,-1.730067,-1.109305,0.247937,-3.527313,2.917463,-1.550744
1034.000000,0.002000,-0.229386,0.853471,-0.656852,2.441244,-1.415972,-0.888624,1.716730,-4.192725,3.535610
1035.000000,0.002000,0.061496,-1.861790,0.297119,0.508419,0.497137,-0.435011,-0.085117,4.238804,-0.501811
1036.000000,0.002000,1.892842,-0.607773,-0.335737,-0.289278,1.006333,0.483454,-3.573192,1.270738,0.539746
1037.000000,0.002000,-0.875932,-0.141587,0.000684,1.551525,-0.840294,-0.121898,5.363498,1.735788,0.908255
1038.000000,0.002000,0.288424,0.733320,-1.194284,-1.584764,0.318599,-0.720675,-0.719873,-2.319585,3.980083
1039.000000,0.002000,0.277059,-0.469294,-0.834955,0.048898,-0.190167,1.488370,-1.210535,2.650768,4.943100
1040.000000,0.002000,-0.222717,3.804491,2.798797,-0.313800,-0.104433,1.533054,0.042100,-0.716440,-0.528126
1041.000000,0.002000,0.082541,1.443706,-0.467132,-0.197372,-1.625443,-1.237556,-0.162615,-4.483028,1.884283
1042.000000,0.002000,0.633115,-1.837609,-1.228986,2.175122,0.794133,-0.659109,-1.002513,2.658974,1.755069
1043.000000,0.002000,-0.667762,0.025259,0.157252,0.953893,-0.277357,0.375790,4.455583,-0.163474,-0.849026
1044.000000,0.002000,-0.781071,-0.744706,-0.351457,-0.171309,-0.036012,-0.456504,4.132958,3.388333,1.533790
1045.000000,0.002000,-1.656176,-0.499756,-0.308959,-0.336379,0.581575,0.371175,3.915323,1.303442,0.708817
1046.000000,0.002000,-0.567395,-0.397655,-1.022096,2.699667,-0.043323,-0.090539,2.466118,1.599521,4.578505
1047.000000,0.002000,1.360594,-0.254125,-0.326838,-0.221922,0.142055,-0.301286,-4.969367,1.364629,1.190405
1048.000000,0.002000,0.564392,0.590031,-1.167426,0.256370,-0.147517,2.501135,-1.710622,-2.261306,4.317650
1049.000000,0.002000,-0.705448,-0.627662,-0.116150,-0.672022,1.372652,0.191892,3.308658,5.111423,1.902492
1050.000000,0.002000,-0.371642,0.180593,-1.172513,0.825638,-0.105812,-0.008293,1.389990,-1.648921,4.895141
1051.000000,0.002000,-0.906133,0.289513,0.785847,-0.676641,2.929452,-1.513551,4.153572,-1.059523,-3.403935
1052.000000,0.002000,0.410973,0.402219,0.071612,-0.313153,-0.261380,1.247099,-3.566105,-3.201335,-0.586474
1053.000000,0.002000,-0.366743,0.235549,0.798080,0.327583,-1.368802,-0.551216,1.788977,-1.664535,-4.867027
1054.000000,0.002000,0.046664,1.618409,0.750139,0.089265,1.040115,-2.088925,-0.128086,-4.049184,-1.828415
1055.000000,0.002000,-0.835568,0.396804,0.007592,3.430728,-0.326022,0.225407,4.708102,-1.665138,0.374046
1056.000000,0.002000,0.151400,0.978705,-0.377978,-0.917906,-1.039258,2.221007,0.091796,-4.784267,2.970571
1057.000000,0.002000,-1.452079,0.887795,-0.729135,1.006467,-0.995834,1.121962,3.295335,-1.911341,1.491736
1058.000000,0.002000,-0.918136,-0.097665,-0.116588,-0.044134,-0.941799,2.148612,5.724396,1.012741,0.402849
1059.000000,0.002000,-1.039281,-0.101303,-0.697676,2.425683,-0.427125,0.651573,4.562452,0.425945,2.570441
1060.000000,0.002000,0.097791,-0.669884,-0.606437,-1.838981,-0.049416,0.727208,0.281147,3.874289,2.470444
1061.000000,0.002000,0.078836,0.937714,0.591180,0.958555,-0.930764,-1.460245,-0.400250,-4.267319,-3.267036
1062.000000,0.002000,-0.789984,2.570610,-0.312311,1.124431,-1.108713,0.085177,0.708818,-2.469530,0.272185
1063.000000,0.002000,-0.986246,0.649355,-0.222012,1.138586,-1.166383,0.675661,4.240730,-2.122514,1.260779
1064.000000,0.002000,2.723777,0.955277,-0.060101,1.528932,0.220735,0.480783,-2.197224,-0.787357,0.035764
1065.000000,0.002000,0.798147,1.044978,-0.810254,-2.971104,0.312452,1.740581,-2.215459,-3.015243,2.498962
1066.000000,0.002000,0.723488,-0.112652,-0.086941,-1.162569,1.558467,0.039056,-5.210516,1.317789,0.748674
1067.000000,0.002000,-0.049636,-0.275124,-1.371401,-0.632986,2.187361,0.539432,0.139769,0.521616,4.952758
1068.000000,0.002000,0.400033,-1.495404,-2.462013,0.060878,-0.192998,0.664734,-0.336211,1.152960,1.930152
1069.000000,0.002000,-1.281503,0.477783,-0.392427,-0.846947,0.258024,-0.155467,4.374903,-1.679904,1.633816
1070.000000,0.002000,1.004719,0.264298,-0.725559,-1.419354,0.126437,0.607885,-4.024078,-1.382357,2.820489
1071.000000,0.002000,-0.407771,-1.022637,0.962882,0.285607,1.872658,-0.809352,1.616022,3.794861,-3.077967
1072.000000,0.002000,-1.460185,-0.931421,0.207285,0.239179,0.324268,1.173298,3.689056,2.412248,-0.479776
1073.000000,0.002000,0.294639,-1.499626,-0.266019,0.877281,0.654981,2.308706,-0.969332,4.733117,0.704782
1074.000000,0.002000,0.554648,0.944200,-0.057621,0.655682,-1.325531,-1.416208,-2.960056,-4.890178,0.722789
1075.000000,0.002000,0.410278,-0.562258,-0.756391,1.308842,3.876958,-0.020300,-3.814962,3.901516,3.760287
1076.000000,0.002000,0.446829,0.722751,0.694481,-0.550472,-1.704994,-1.097156,-2.326319,-3.920228,-3.411440
1077.000000,0.002000,0.623669,0.981638,3.059171,1.576399,-0.838714,0.329887,-0.364749,-0.562102,-1.706485
1078.000000,0.002000,-0.487358,-0.589077,1.426390,0.496845,0.891963,-0.815588,0.608581,1.716374,-4.010786
1079.000000,0.002000,0.432923,0.440746,0.273316,0.251782,0.811923,-0.676104,-3.345228,-3.404759,-2.083368
1080.000000,0.002000,-0.561237,-0.846839,-0.689117,0.626441,1.132433,0.663456,2.549052,3.503037,2.995469
1081.000000,0.002000,0.849820,-1.114773,0.879197,-1.693522,1.488084,0.995525,-2.715705,2.733642,-2.141071
1082.000000,0.002000,-0.706850,-0.352165,0.654500,0.007936,0.236689,-0.815486,4.036490,1.838823,-3.775830
1083.000000,0.002000,0.840162,0.315924,-1.433321,-0.280525,-0.197138,2.018457,-2.212587,-0.754364,3.984247
1084.000000,0.002000,1.402592,0.714209,0.202787,-1.103656,-2.347574,0.283352,-4.182447,-2.490093,-0.767633
1085.000000,0.002000,-0.127293,1.951735,0.573273,-0.430915,-0.074177,-1.453252,0.288217,-4.322841,-0.881494
1086.000000,0.002000,0.504994,-0.304876,-0.056416,1.497051,0.330048,0.512173,-3.647012,2.729087,0.231326
1087.000000,0.002000,1.132546,0.709658,-1.651044,-0.419667,-1.296614,0.256220,-2.007641,-1.097027,2.721090
1088.000000,0.002000,0.779038,1.370827,-1.105827,0.833656,1.320569,1.733908,-1.470246,-2.774416,2.269807
1089.000000,0.002000,0.050120,-1.697422,0.298287,0.171562,0.857292,0.473613,0.058272,4.007110,-0.920765
1090.000000,0.002000,-1.588451,-0.715871,-0.004321,2.178122,0.120071,2.063859,3.952611,1.788897,0.408594
1091.000000,0.002000,-0.452191,1.164266,0.525129,1.100200,-1.584974,-0.276997,1.862463,-4.932037,-2.008529
1092.000000,0.002000,-0.527689,-0.843478,-0.494281,-0.015066,0.811808,-0.581987,2.925311,4.281794,2.335880
1093.000000,0.002000,-0.816084,1.354081,2.053414,0.861310,1.058538,-0.156101,0.874155,-1.429100,-2.219613
1094.000000,0.002000,1.227994,1.056049,0.162227,0.033890,2.002111,1.092900,-3.529938,-3.067638,-0.328234
1095.000000,0.002000,-0.457470,1.604088,-0.581703,-0.026318,-1.030515,0.205377,0.916782,-3.818751,1.578528
1096.000000,0.002000,1.275541,-0.691316,-0.423515,-1.521105,1.813260,-0.281421,-4.278153,2.323509,1.180659
1097.000000,0.002000,-1.382398,0.327081,-1.122512,1.547471,0.465851,0.838778,3.162298,-0.880057,2.686088
1098.000000,0.002000,1.468907,0.482785,0.026576,-1.201894,0.074317,-1.778388,-4.455363,-1.426001,-0.104596
1099.000000,0.002000,0.355694,-1.637356,0.113046,0.083748,-1.160287,-0.116206,-1.169816,4.378275,-0.316308
1100.000000,0.002000,1.814687,0.705837,-0.711010,-0.546800,2.196474,1.258205,-3.048572,-1.233975,1.455121
1101.000000,0.002000,-2.141326,-0.847279,-1.607991,-0.684047,-0.335571,0.744640,1.864564,0.749657,1.437594
1102.000000,0.002000,0.844680,0.966919,-0.471639,-0.411343,0.154912,1.642179,-3.243356,-3.412391,1.896965
1103.000000,0.002000,0.156032,-0.470544,0.302174,-1.769970,0.770488,0.868565,-1.543208,3.137395,-2.311850
1104.000000,0.002000,0.240692,-0.168853,0.418519,-0.670781,1.171136,-0.390808,-2.031338,1.506909,-3.196358
1105.000000,0.002000,-1.338759,0.284115,-0.058279,1.834429,0.447584,-0.062767,4.661153,-0.905237,0.170787
1106.000000,0.002000,-2.242947,-1.753522,-2.076349,-0.502201,0.318787,-0.578056,0.966815,0.838154,0.964370
1107.000000,0.002000,0.321137,0.083226,0.204207,-0.685764,-0.079123,-0.456468,-2.060176,0.115958,-2.115844
1108.000000,0.002000,-1.360783,1.051252,0.886459,0.309516,-0.615470,-0.599085,3.095032,-2.095817,-2.056405
1109.000000,0.002000,-0.532405,0.717539,0.282044,1.203863,-2.128165,1.708844,3.104875,-4.118933,-1.589273
1110.000000,0.002000,-1.670526,-1.047182,1.001872,0.696061,2.216028,0.706122,2.590204,1.736309,-1.521509
1111.000000,0.002000,-0.127502,0.568368,0.124637,0.074834,-1.569197,0.580322,0.934048,-3.943709,-0.874000
1112.000000,0.002000,0.018696,1.908361,1.288507,-0.847884,-1.109565,-0.631088,0.061810,-2.832801,-1.922505
1113.000000,0.002000,0.008567,0.335588,0.784932,1.491857,-0.351645,0.401817,-0.370283,-1.539418,-5.438766
1114.000000,0.002000,1.094106,-0.103950,-1.091666,0.567219,-0.597274,-1.500417,-3.421663,0.179629,3.487584
1115.000000,0.002000,0.132905,-0.351554,1.385633,0.422288,0.602361,-1.621937,-0.355722,1.364489,-4.547972
1116.000000,0.002000,1.533899,-0.726089,0.509187,0.407350,-1.534484,0.044766,-3.710481,1.697459,-1.295364
1117.000000,0.002000,-0.452512,1.245654,0.755760,-0.789282,-0.373525,-1.387044,1.662882,-4.233168,-2.536388
1118.000000,0.002000,0.967849,0.426704,0.359190,0.813823,-1.871789,-1.241699,-4.889956,-1.146887,-0.977844
1119.000000,0.002000,0.486668,0.605432,0.417969,-2.793575,-0.156356,0.642015,-3.368029,-4.174000,-2.199874
1120.000000,0.002000,-0.812440,-1.183128,0.044743,-0.427645,1.902854,0.183920,2.814205,4.504268,-0.098580
1121.000000,0.002000,-0.579338,0.164093,0.959090,0.843523,0.292609,-1.146618,2.745892,-0.894901,-4.560752
1122.000000,0.002000,0.030117,-0.314022,-0.632487,-0.502058,0.546764,1.295722,0.148798,0.730051,4.267247
1123.000000,0.002000,-1.451000,1.367579,-1.764641,0.141185,-0.083530,0.303551,1.431180,-1.370148,1.774422
1124.000000,0.002000,-0.897981,-2.400633,-0.518078,0.267808,0.083012,-0.597376,0.917697,2.471644,0.539383
1125.000000,0.002000,-0.175598,-0.477801,0.082374,0.782053,0.218149,0.340191,1.127972,3.804486,-1.857603
1126.000000,0.002000,-0.459095,-0.973194,2.013937,1.320340,-0.010011,0.218076,0.682226,1.373339,-2.962518
1127.000000,0.002000,-0.062842,1.259969,-0.430330,1.010709,0.572759,1.698514,0.223572,-4.657700,1.962527
1128.000000,0.002000,1.800939,1.263464,0.446956,0.242244,-1.198798,0.616114,-2.543945,-2.443108,-1.013235
1129.000000,0.002000,-1.123429,0.099303,0.103736,0.571342,0.031488,0.247128,5.019550,0.000679,-0.586459
1130.000000,0.002000,-0.335502,-1.071301,-1.444808,-1.862906,0.068799,0.779485,0.502105,2.545226,3.475815
1131.000000,0.002000,-0.122226,-0.062216,0.321655,-0.974673,-0.100993,0.765059,1.103671,1.627387,-2.536884
1132.000000,0.002000,0.690647,-1.056117,0.554499,-1.479964,1.860008,-1.803427,-2.788756,4.066253,-2.104760
1133.000000,0.002000,-0.836339,-0.213058,-0.979856,0.138273,0.750212,0.006204,3.262668,0.797020,3.766584
1134.000000,0.002000,-0.255616,-1.771631,-0.544210,-1.110008,1.040963,0.205115,0.684594,4.058052,0.894845
1135.000000,0.002000,-0.057835,0.998629,0.025256,1.686013,-1.667582,-0.420784,0.712909,-5.463390,0.514587
1136.000000,0.002000,1.188879,0.324988,-0.550365,1.035945,0.940268,2.075468,-4.448097,-1.291393,2.249732
