# 
#                 columns are tag, mass, x, y, z, vx, vy, vz, ax, ay, az, EK, EU, E
#                 Time=8.000000
# 
1.000000,0.002000,-2.489772,-0.625479,-1.037236,0.789799,0.830933,1.198619,2.099309,0.570012,0.863344,84.266235,-166.731754,-82.465519
2.000000,0.002000,1.799969,-0.479797,2.367956,1.816407,1.680379,-1.082512,-1.162640,0.371414,-1.504097,0.000000,0.000000,0.000000
3.000000,0.002000,0.719144,0.527563,-1.273451,-0.573782,-0.869866,1.604316,-2.911388,-1.865270,4.888397,0.000000,0.000000,0.000000
4.000000,0.002000,-0.334182,-0.345444,-0.842994,-0.789048,-2.826811,-0.262703,4.387926,4.615226,9.650748,nan,0.000000,0.000000
5.000000,0.002000,-0.413884,-0.378807,0.132949,-0.195258,-0.382887,-1.311304,10.686538,11.790148,-4.524514,0.000000,0.000000,0.000000
6.000000,0.002000,0.335505,0.471033,0.312455,-1.875582,0.396895,-3.148680,-10.204501,-11.722300,-10.136901,0.000000,0.000000,0.000000
7.000000,0.002000,-0.181346,3.502801,1.991127,0.001735,-0.321744,0.443728,0.054403,-1.045309,-0.623887,0.000000,1577139022369446083322798405560457826463402338589605888.000000,0.000000
8.000000,0.002000,0.195409,0.177903,1.034193,-0.671223,-0.924371,-0.415593,-1.399083,-0.811709,-8.897154,4787142885798284855643719328774778173795084465174780641693637665648403877169013833835529490445327801418802613545316354916722037909682831782952926534213756634845881425509470953275392.000000,930382473798674171610975997523362011431124862008408021056652788629504.000000,0.000000
9.000000,0.002000,3.674335,-2.375341,-2.309001,0.357271,-0.180595,-0.347915,-0.594102,0.386482,0.367862,0.000000,0.002000,0.000000
10.000000,0.002000,-0.170586,-0.877191,-1.051365,1.982787,2.644518,1.755946,0.676591,4.609224,5.013347,110635040058481679411514612453443184812538708864458969506756681039152082237526959845920215643780174509973234098540444092991932712850278572228240991555595583386670857736495119495455878108896857050578944.000000,0.002000,0.000000
11.000000,0.002000,0.511436,0.127127,0.584291,1.014475,1.342422,0.170648,-9.246457,-1.119388,-10.120392,6290249991981503926886157919257818480068077002863106881581926316779113236916075250088185699340216948616574972492619074843610900712036786189768187795708741233328991815551598924398592.000000,0.002000,0.000000
12.000000,0.002000,-0.335555,1.935635,0.786057,-0.801890,1.143152,0.675640,0.484924,-3.288472,-1.428901,1109012494741397987484543737691401318909060178886875582239867855680697677722197282973016375103961476976053819161181920992190165124037563755145170653511545320734569147945263655744364463638667623220058524796865353799958528.000000,0.002000,0.000000
13.000000,0.002000,-0.830288,-0.113494,0.532513,-0.760870,-2.532669,-1.856017,9.228053,1.718129,-6.362438,0.000000,0.002000,0.000000
14.000000,0.002000,0.324976,-0.592908,-1.304612,0.620863,1.896877,2.550963,-1.460091,2.796500,5.351326,31091784414728264655539602971689349090085441500613317120753575695656055987010049539047424.000000,0.002000,0.000000
15.000000,0.002000,2.717453,0.533366,1.687363,-0.176735,-0.579535,-0.286321,-1.444245,-0.254651,-0.881777,2285262.556982,0.002000,0.000000
16.000000,0.002000,-0.575062,0.504534,1.506346,-0.514434,2.322214,1.618860,1.594162,-1.335022,-4.793306,5993431493856710198719123052054670718426509187359637773007849239998886030436812357414513822822744195072.000000,0.002000,0.000000
17.000000,0.002000,-0.534190,-0.047152,-0.055918,-3.991126,0.378935,0.403817,19.584003,3.583415,0.819322,2289350.509804,0.002000,0.000000
18.000000,0.002000,0.143282,-0.369828,-0.702901,-0.818451,-1.848555,-0.017717,-2.596970,6.771401,11.237166,2273922.526101,0.002000,0.000000
19.000000,0.002000,-0.222692,0.082614,-0.098498,0.646731,0.116537,-1.001854,11.516468,-3.928965,6.169318,1535090.422703,0.002000,0.000000
20.000000,0.002000,-0.043385,0.469836,-0.085026,-1.133948,0.147660,-1.802837,0.608693,-20.849315,7.264169,26840764939309020721218979383864957699904490538083716984671519952491802474628511243032042251456726053511434862592.000000,0.002000,0.000000
21.000000,0.002000,-0.124957,-0.355938,-0.479942,-1.749928,-0.101506,0.074644,2.571602,11.160395,14.043169,4044428665534533611213304356226034688368302655130664193683801731533799845287340412248928573518144816870169935151169192682206805035506263134387664693856188131845029367226826752.000000,0.002000,0.000000
22.000000,0.002000,0.516092,0.468976,0.565042,-0.905373,-1.958808,-1.953278,-6.463848,-5.757688,-7.322543,156272876253969123815436317796159332680600117272221668544831330872237022458226686107421595209353818992906750866241561296896.000000,0.002000,0.000000
23.000000,0.002000,1.288968,-0.598999,0.459224,-0.320526,-2.063227,-2.209167,-4.816513,2.536464,-1.810937,934262174692957178060646332511646691896184848498820356791054081674722700114857736510612291262391410025950791271607882163463982075179100531517979495176511759618932736.000000,0.002000,0.000000
24.000000,0.002000,-0.695175,0.244815,0.338152,-0.633482,-0.902504,-0.062663,13.779368,-3.676050,-5.827480,856015154180819309336236949353314342567447089315044053248852705301598769483239183563113567306933652006410620446301653238423509224860437578529986665689168211738172290236416.000000,0.002000,0.000000
25.000000,0.002000,0.203141,0.182602,0.339390,-2.474161,2.835066,-2.041911,-12.796103,-5.582424,-16.332709,2631752116622533446294666818379868278039058723156730174242816.000000,0.002000,0.000000
26.000000,0.002000,-0.366658,-0.928448,-1.120219,-1.214932,0.650081,1.651961,1.440901,4.062364,4.369411,164954577217361082818897578950164774995798469262047852491577782728319098036110500227034419040835097742588506791212401861529613712099141462735817291962056448147456.000000,0.002000,0.000000
27.000000,0.002000,-0.203189,0.447990,-0.066441,3.366367,1.407131,1.349751,7.018209,-18.038511,4.848791,139991206025706966380896211483458599161349890892989886103552.000000,0.002000,0.000000
28.000000,0.002000,-0.085991,-0.130170,0.118120,-0.221098,-4.236657,-2.608520,2.899567,9.769481,-16.324998,21488054396700792230289958030054126405604308178483686986239676532737185186174849763302190329953601704955545430927953848666659385094387312039901986006769378947818848256.000000,0.002000,0.000000
29.000000,0.002000,-3.357031,-2.872260,2.823912,0.898415,0.852707,-0.324679,0.449295,0.391462,-0.385468,1276660262919024153610949847223893340499009603726971265613824.000000,0.002000,0.000000
30.000000,0.002000,-0.069682,-0.006141,0.619154,0.778856,0.991560,4.096886,0.726467,2.194980,-15.910588,7525316737058676795382035762500765404229250976645820451343278800575148531805077908107370658697101652263748182506710006064657420809372538696252535919114767262788344882418115655057136270817868859767976234097881828869942782840247402090638287753445376.000000,0.002000,0.000000
31.000000,0.002000,0.390998,0.784377,-0.046657,1.837558,-0.292984,-0.232112,-6.885769,-12.533301,0.246197,9713646261546692.000000,0.002000,0.000000
32.000000,0.002000,-0.330444,0.191295,-0.254246,0.147669,-2.418394,-0.697186,12.162917,-8.204931,10.336725,2267824.681923,0.002000,0.000000
33.000000,0.002000,0.367450,-0.294673,1.027290,-0.181684,1.085630,0.610714,-3.319327,2.802867,-7.701089,167896874519916015894601469526233460405390688783293775311264040812592244363106892642329134643114601115420239175893938864128.000000,0.002000,0.000000
34.000000,0.002000,0.329435,0.077322,0.329919,-0.659211,-4.232505,3.109164,-14.805626,-0.945536,-13.307765,17187685.027168,0.002000,0.000000
35.000000,0.002000,-2.293498,0.588581,-1.309211,-0.761264,0.559913,-1.111546,2.076842,-0.520238,1.136844,325138031817047581357600229974148570825364938357654410365663712952347485587913048064.000000,0.002000,0.000000
36.000000,0.002000,1.749653,-0.004459,-0.872235,1.341446,0.769548,-1.631720,-3.635445,0.261573,1.886290,412970398446300573479526037427942038954303216195267062914369972626003632051683057472444621739207841271380999421344307622172766298995902842032917881269735239696599325391770726957056.000000,0.002000,0.000000
37.000000,0.002000,0.203355,-0.067922,0.919441,1.369333,2.565269,-4.095070,-2.397859,1.555920,-10.602271,4575679504644235888367983405783086495579195714010724966431059891401430383023837629861191760296407334879749953062377066114715760708265129280350820924964145482054271792526127789162357010466417635769469370368.000000,0.002000,0.000000
38.000000,0.002000,0.707464,0.541379,-0.105953,-3.370185,-1.316970,-1.090218,-10.585909,-7.249515,0.890439,2289282.917792,0.002000,0.000000
39.000000,0.002000,-0.276964,0.283232,0.573875,1.070702,-2.109546,-0.434375,6.239763,-6.973544,-16.363564,4455190696387184733199807053868013685460505768653954279036499468633774548769997528739110255666321611057450989340587274352177957507910908628384564287981746473129738240.000000,0.002000,0.000000
40.000000,0.002000,-0.359017,-0.090519,-0.498472,3.720180,-1.411428,2.349216,9.072798,3.205903,13.656266,15879279914781773375542516183317470852859077065315059186645415882518959284049086516850470580934368877755224617457409954672541696.000000,0.002000,0.000000
41.000000,0.002000,-0.455430,-0.059457,1.176750,-0.017014,0.619184,-1.008241,2.654116,0.941600,-7.557131,556410047883462678039641527400273742393576424788844530186318364250823013804020381366811103711096470478258176.000000,0.002000,0.000000
42.000000,0.002000,-0.018165,0.278632,-0.475150,4.206352,-3.533448,0.963962,-1.389535,-7.303891,15.014722,1422440950915999851492180273505049875896512658456894026075962228080640.000000,0.002000,0.000000
43.000000,0.002000,1.224306,-0.069183,-1.103190,0.705886,-2.515996,-1.229553,-3.773271,0.365361,3.462140,33289483419470682392939038643516004945364134342066751944544912570342269977100972474026695538026009846063013657803576395574504376207602474532792150639874748975995529114742701926625645951537004948462912833819501631148569056413113909248.000000,0.002000,0.000000
44.000000,0.002000,-0.592707,0.011664,0.496153,1.321497,-2.056011,-0.526947,10.873983,0.792285,-9.391631,2833290889380246228709387354128613797722084425365346720487743934877817685291899737313020899475466748879250000843927096369693896746249589582490233451699306865144345841577784153305039493600267593076171918633138589536012511939592109793502362025044531213843215893676248897928822784.000000,0.002000,0.000000
45.000000,0.002000,0.258774,0.075134,-0.536703,-2.217206,0.280812,-0.916696,-6.220491,-2.232548,15.983049,0.000000,0.002000,0.000000
46.000000,0.002000,-0.454331,-0.393652,0.368303,1.346898,-0.083408,1.295984,8.102766,10.352740,-8.529833,15035401507424295751462968538090416777926091235288919014716714256636285076273488554055036827874324989891314599053584140040203977454314753653545870727139532313581000055712645120.000000,0.002000,0.000000
47.000000,0.002000,0.858086,-0.537903,-1.406402,0.302837,0.726321,0.639715,-2.431505,1.597301,3.758163,1614820944853019672815075681121353090701959897258962687937541250376438406663301156329290909256913218866427160231332815217152750176971530877189529582482529817592665370948684952007830401112113997324364499321965979056804080602121614272091701113427735871488.000000,0.002000,0.000000
48.000000,0.002000,0.391310,-0.453957,0.250007,1.522215,-0.228831,1.458827,-8.902320,10.410961,-6.538562,21078943747164840459253439046256277866896878157991531905704613352414072363764204232163205011310522483941811457694428359749112976666525733629500979228293297762108041645344686080.000000,0.002000,0.000000
49.000000,0.002000,3.721412,0.099009,1.942169,0.006970,-0.108924,0.256411,-0.954757,-0.017811,-0.444150,2792886645483820442527332732989385107678417535112070958891518493023669528283406598072629723136.000000,0.002000,0.000000
50.000000,0.002000,-0.233656,-0.276663,-0.290260,2.986442,1.948172,2.398985,7.166880,14.076232,12.853472,23430240529449629480351529393352409686062950698171389735885340672.000000,0.002000,0.000000
51.000000,0.002000,-0.333762,-1.087191,0.072216,0.799746,0.279732,0.333563,2.296807,8.585722,-0.374160,1736150550967264009092398779861489697857521086600892365114297793142039127705598382585730766008282077364087022432816369711973062272583711053365782239519877800642961764523280439061425538615018067776377710684047963466571778898264064.000000,0.002000,0.000000
52.000000,0.002000,0.649901,-0.097127,-0.519176,0.853191,-0.420768,1.397129,-11.099396,1.293639,7.910774,299122362697.631653,0.002000,0.000000
53.000000,0.002000,0.388902,0.163191,-0.107660,-4.253240,-1.778436,-0.199705,-17.126049,-4.846034,4.368184,9879245889890064814192553940337850636639528195202392688059565649543237850098695391583086204006038979505283521169881366523805696.000000,0.002000,0.000000
54.000000,0.002000,-0.251903,0.027510,-0.646724,2.969073,2.063651,-3.030836,5.462905,-0.366636,14.834052,2989046885381963251712.000000,0.002000,0.000000
55.000000,0.002000,0.341270,0.515294,-0.102101,0.118106,0.718713,0.560249,-9.926663,-13.564034,2.202184,64907593906201646970050644986245760682579917099827794733665346438518556241326387362052381382399843297110309715740638223198329170971651095836838648692098723309250639349844867137390122100268751212990322716966912.000000,0.002000,0.000000
56.000000,0.002000,-0.085727,-0.536855,0.139502,0.682331,1.853910,-2.248721,1.692288,15.651704,-3.397468,1776282537425782719660106448896.000000,0.002000,0.000000
57.000000,0.002000,-1.000670,2.301139,1.647398,1.430080,-0.287760,0.383621,0.630754,-1.574346,-1.181175,1699473860885642502260113928697706120653526566619784650098615473569353361758245769084007475440259422877686508530126942136824791964803218178082633388869389331056160832767631827140608.000000,0.002000,0.000000
58.000000,0.002000,-0.518500,-0.363952,-2.105960,-0.574955,-0.194841,-2.581122,0.810843,0.665056,3.263909,626557849221212771784237625446021607724493565907380098482016563933980510447399444382151081984.000000,0.002000,0.000000
59.000000,0.002000,-0.057910,-0.124871,0.829174,1.919517,-1.238516,-0.342584,-0.173629,3.015716,-12.637469,0.000000,0.002000,0.000000
60.000000,0.002000,-0.065638,0.051020,0.184737,-0.063716,-0.584754,2.427857,4.929890,-2.619160,-11.359375,8496599575667929921772509703000293827697293086852526127337503486104795233144400643647178664753099702272.000000,0.002000,0.000000
61.000000,0.002000,-0.550706,0.029477,0.270782,-0.343289,2.758286,0.871065,14.627984,-0.950223,-6.408444,3940631938177450771660965013466435344160959289056292057529027592716288.000000,0.002000,0.000000
62.000000,0.002000,3.219452,-0.433405,0.459567,1.537887,-0.309098,1.210545,-1.678442,0.196660,-0.301455,16655936316192867006379557126144.000000,0.002000,0.000000
63.000000,0.002000,-0.089750,0.080321,0.064035,2.739867,-1.456514,-0.899849,5.949151,-0.248061,-3.261462,3923012658056743307259902839175528342657046259439834426163019284217856.000000,0.002000,0.000000
64.000000,0.002000,0.637021,0.664409,0.281600,-1.559123,1.383893,-0.479911,-7.302453,-6.717063,-3.800818,985149962398546858496699010811811884924474541688348580768468556578816.000000,0.002000,0.000000
65.000000,0.002000,-0.241050,-0.523817,0.088312,1.936957,-1.965434,2.815224,4.898771,17.249586,-5.701221,185073945965090148745498828162445627395582745681136830580183452389963089146548563222267804799371732306289303212499355151572371153871265987743221759135022375686207272804685299920814602640007626752.000000,0.002000,0.000000
66.000000,0.002000,-0.087949,0.433409,0.553618,-2.149705,-0.890855,-3.243672,-1.409899,-5.709780,-9.006282,125788578266055309511745654813045793687529149060925927875697337437524051804303215569105437138997963419556608723612018475296526311957674684947846946645668805577030806278641708930093889083574455826746169589225095887899734497539603300352.000000,0.002000,0.000000
67.000000,0.002000,-0.077107,-0.071478,0.028550,2.005841,-5.880007,2.426082,5.426248,7.472923,0.155669,44535436515288865774106202331421928567052637815106895402620127103447179699394017842814828732853013582769253831309286015207605001537118377776161182921453045256669905906808109603520484141157804167088009070363265352364360471973081695220358946511388672.000000,0.002000,0.000000
68.000000,0.002000,-0.119282,1.163607,1.228178,0.598746,-1.730727,0.414602,0.378808,-3.436283,-3.790975,60420388718784572044401518304515733985668039606831369143290268444028108218434483963499356347756239537365931090062894340665562957601732579062707039139125670321127819569592094361792649965090858754015273802651052247908305107571604815772430813632659456.000000,0.002000,0.000000
69.000000,0.002000,1.537170,-0.585674,0.939967,-1.427559,-1.559811,-1.626425,-3.322154,1.364296,-1.951196,11528697739786431149896034680832.000000,0.002000,0.000000
70.000000,0.002000,-0.424961,-0.547937,1.082723,1.709840,-0.479392,-0.785083,2.379425,3.536290,-6.290637,3923012658056760164710852363952970284474344912840854232293363303841792.000000,0.002000,0.000000
71.000000,0.002000,0.290199,0.333263,0.323459,-1.189678,-3.381876,2.127728,-11.707410,-10.162427,-14.118315,985149962398546858496699010811811884924474541688348580768468556578816.000000,0.002000,0.000000
72.000000,0.002000,-0.238081,-0.175783,-0.377654,0.687418,-0.411624,4.920016,7.523273,8.696715,13.464217,185073945965090148745498828162445627395582745681136830580183452389963089146548563222267804799371732306289303212499355151572371153871265987743221759135022375686207272804685299920814602640007626752.000000,0.002000,0.000000
73.000000,0.002000,0.123796,-0.542502,-1.328941,-1.323724,2.387809,2.026591,-0.607483,2.656176,5.715193,125788578266055309511745654813045793687529149060925927875697337437524051804303215569105437138997963419556608723612018475296526311957674684947846946645668805577030806278641708930093889083574455826746169589225095887899734497539603300352.000000,0.002000,0.000000
74.000000,0.002000,-0.275937,-0.024350,-0.056021,1.440292,1.490827,-0.837280,18.396047,3.348335,1.750536,44535436515288865774106202331421928567052637815106895402620127103447179699394017842814828732853013582769253831309286015207605001537118377776161182921453045256669905906808109603520484141157804167088009070363265352364360471973081695220358946511388672.000000,0.002000,0.000000
75.000000,0.002000,0.180258,0.253502,-0.839644,4.290116,-0.240023,-1.988444,-2.832697,-2.660362,11.235863,60420388718784572044401518304515733985668039606831369143290268444028108218434483963499356347756239537365931090062894340665562957601732579062707039139125670321127819569592094361792649965090858754015273802651052247908305107571604815772430813632659456.000000,0.002000,0.000000
76.000000,0.002000,0.174722,0.119501,0.282786,4.053718,0.024979,2.332725,-10.405197,-0.848175,-16.139556,11528697739786431149896034680832.000000,0.002000,0.000000
77.000000,0.002000,0.676759,0.221173,-0.412446,-0.667305,-0.313009,-1.171387,-11.776854,-2.749956,6.616115,2684234186162967150592.000000,0.002000,0.000000
78.000000,0.002000,0.039647,0.181964,0.674467,1.938135,1.471359,1.085277,-1.029906,-4.295076,-16.078877,266100858751510117968733740108074707442783023118842350010368.000000,0.002000,0.000000
79.000000,0.002000,-0.754429,-0.062335,0.117000,-0.619073,-2.723153,-2.433368,14.042653,1.732583,-3.074643,302078534483139893782022051184043485495893448652376181766345092798931650992368175788937649535589790179178774764407487716950479282011830059181059772055573125755734751828111383441778293244141385328557242112278528.000000,0.002000,0.000000
80.000000,0.002000,3.337660,0.870128,-1.711658,0.250333,1.121378,-0.534683,-1.123380,-0.277480,0.544671,517922989179436393226344174853099418604523119947365736465651017813472151032037144308612571653472256.000000,0.002000,0.000000
81.000000,0.002000,0.235384,-0.078241,0.097454,0.375877,-1.626321,0.313975,-16.211024,9.609219,-4.024415,0.000000,0.002000,0.000000
82.000000,0.002000,0.096038,0.022921,-0.778866,-3.134495,-2.184134,0.855081,-1.996091,0.531454,14.751700,28925750568874666873096351474372798790699741797628519415315519256296632934391233768160995079325342600869234795757191481642936368782459152145396304871686729973478530116887108515553185947900749463683072.000000,0.002000,0.000000
83.000000,0.002000,0.840061,0.635810,-0.468180,0.800610,-0.716741,2.645365,-7.118214,-4.450446,3.466803,2227585820605933676572227794442368881141187309683274635005215588398487903212038082473532426563155709817996284717432832.000000,0.002000,0.000000
84.000000,0.002000,0.704182,-0.767105,1.550022,1.242945,-0.470713,1.661601,-1.532137,1.858966,-3.459855,0.000000,0.002000,0.000000
85.000000,0.002000,0.368591,-0.657216,0.877312,-0.818109,-1.145135,3.083981,-2.774851,5.048892,-5.990146,104041376632.399094,0.002000,0.000000
86.000000,0.002000,-0.325253,0.557370,-0.186089,0.121172,-0.707173,4.011736,7.024594,-13.379670,3.834887,22591621159068687819642366662931441582029896611782171549715722375599211909687566224585059775749652694337696101656488645802482793349113589056797332614871452003958329073011222182388301824.000000,0.002000,0.000000
87.000000,0.002000,-0.467670,-0.873481,-0.862159,0.644539,-1.049990,0.240653,2.381641,5.191111,4.691027,171040672770527601087792364942574959806120852346881825047620048844669587215877510827035805306406721584536580821650874357041694149641170106789541321430199977988510991830467260595434325582850182335305809728581400817064941843308876625396586403600531456.000000,0.002000,0.000000
88.000000,0.002000,0.365891,-0.278868,0.020575,-3.026588,-1.013305,-0.969586,-12.151773,12.522442,0.242240,36725249786310502906439510960812011350927180991968580564224785353913450635794886649923885926797824861754610700197255996979026860040577362602432570065691301159611177728350160015563005240537692664960007318638909461484810534912.000000,0.002000,0.000000
89.000000,0.002000,-1.172584,2.246347,1.088821,1.070297,-0.122092,-0.303407,1.031021,-2.012294,-0.955369,0.000000,0.002000,0.000000
90.000000,0.002000,-0.094418,-0.114877,0.242388,2.586303,-1.073359,0.345549,1.816243,10.728562,-11.217519,0.000000,0.002000,0.000000
91.000000,0.002000,-1.119472,-3.586018,-0.291021,1.033057,0.934403,1.429823,0.319796,1.199955,0.106659,4902122519180520869755133942241204564645642240.000000,0.002000,0.000000
92.000000,0.002000,0.852929,0.157467,-0.205555,0.505170,0.197639,0.629785,-11.771955,-1.377727,2.423000,1610161415309393265243863169411717585052428242728955673711635493107539591384318639338586026015311652854510600313299392507476314439901654807123773242301520774105246027800324537331691972714070888933844096816171496397464717961533464878902534995968.000000,0.002000,0.000000
93.000000,0.002000,1.055936,-0.749187,-0.034436,-1.660979,1.612602,-2.890802,-5.771425,4.353657,0.190809,105295930260362816.000000,0.002000,0.000000
94.000000,0.002000,-2.108224,-0.463040,-0.949446,1.014572,0.875210,1.465413,2.739063,0.607718,1.166631,315273634621511843402791227168039028175883381647812252341674152498257253134167261598508306188810817943888581462052616142106453620074028427289359874898194825977348792577176105520659272265074892124796228851628408378631891645137263001600.000000,0.002000,0.000000
95.000000,0.002000,-0.472578,-0.145381,0.022722,-4.468750,-1.542751,0.704051,16.245941,7.538483,-2.255918,7554454751932217507615561537618698622051010911736667543632409949885227847385088.000000,0.002000,0.000000
96.000000,0.002000,0.200856,-0.070115,0.174485,-0.470117,3.057554,-3.207524,-14.397442,10.292739,-4.087650,0.000000,0.002000,0.000000
97.000000,0.002000,0.184770,0.848626,-0.437682,-1.157203,1.244042,-0.534762,-0.090685,-9.698656,6.691657,302997704586769205213265920.000000,0.002000,0.000000
98.000000,0.002000,1.036468,1.512459,-4.064388,0.223775,-0.058808,-0.164520,-0.230016,-0.326018,0.926654,0.000000,0.002000,0.000000
99.000000,0.002000,0.007342,0.087180,0.479070,-0.115069,-1.832981,-0.206951,-1.573003,-1.220403,-16.972203,26820575697604817083957248.000000,0.002000,0.000000
100.000000,0.002000,-0.375614,0.328932,0.040600,-2.437395,2.053180,-0.850598,15.192945,-10.812722,-0.512558,1250584125078051704468253607948295978445257605971795016702090521832084539112516920823091560448.000000,0.002000,0.000000
101.000000,0.002000,0.718966,-0.884985,0.026485,0.129078,-1.158316,1.279904,-5.078258,6.443838,-0.238596,0.000000,0.002000,0.000000
102.000000,0.002000,-0.441542,0.146982,0.448838,1.803397,-2.005059,2.034358,10.684306,-2.018145,-12.696536,0.000000,0.002000,0.000000
103.000000,0.002000,0.232663,0.114130,-0.071290,-5.249292,3.186713,-2.360822,-13.658590,-6.455395,1.499910,1782923351100046649415355467657141484612254869006474293222149371989666142302637081076732612290767631419983817283996505528531582362679160739430078780157753903745154118035372652246715079084939598493589255353303826432.000000,0.002000,0.000000
104.000000,0.002000,-0.179959,0.444777,0.449317,0.066579,1.964472,-0.597017,4.142704,-10.247106,-13.076647,7046087243422984924837125875958607621517973112938229545045197345020727993526870148363736732178866397495831103600066560.000000,0.002000,0.000000
105.000000,0.002000,0.599330,0.985159,-0.938730,-1.438664,0.001330,-2.742007,-2.654120,-4.208295,4.252450,0.000000,0.002000,0.000000
106.000000,0.002000,-0.085838,0.053563,-0.218561,2.652902,1.071595,0.479649,4.457460,-2.568821,15.227515,17599811179148019074177814911718849425702261694488997154880528213538473326089215937107987214306479158002549164397205673769743739921028210347564437025633686016977679788304444931081095449831934765494203577680472788818773147648.000000,0.002000,0.000000
107.000000,0.002000,-0.125503,0.098049,-0.130658,-2.915623,-2.710810,0.335359,5.011542,-6.228742,9.931829,0.000000,0.002000,0.000000
108.000000,0.002000,0.532334,0.459529,-0.522045,-0.144726,-0.345323,-0.324175,-8.518970,-5.954457,8.123068,43418137037484443892122190297427291708532528153854669019445853304413222510526464.000000,0.002000,0.000000
109.000000,0.002000,-0.271630,-0.347208,0.537747,-2.610543,0.297884,-1.347294,5.104141,10.011484,-11.028097,7005592264625261276254091261570377253550445429395598346243481624550534938120507215623430063217564261002108130441288487160483342255626328874017061261775048427188740445973811331315670509997660322747047555114165557901811021507863138779923728164982428566655370002432.000000,0.002000,0.000000
110.000000,0.002000,-1.218317,2.010996,3.464350,-0.358595,0.193688,0.025502,0.334429,-0.555894,-0.949356,10055863834134816084641246601070594396984460143646382870023012865298870466089818059250842089776281979014740244264666209691159986027086312223344205629593800539122187092934083375721745386964046113409253947285842234396653722004307928909111865932277153283682835890176.000000,0.002000,0.000000
111.000000,0.002000,0.074552,-0.323003,0.098602,3.432864,-0.461745,-1.960944,-4.992389,18.219075,-4.759342,183758545343294091464984574186495414867315526612674385916879986563325583679235823550549765952114614033620670813034639312387040120959922912193355092061808862717074718326784.000000,0.002000,0.000000
112.000000,0.002000,-0.119942,1.304629,-0.655147,1.683487,-2.636991,1.953605,0.261362,-5.761430,3.010954,169264553229473851137135140107714448915251537222020663721712080955677826004169707754222675929101281607548928.000000,0.002000,0.000000
113.000000,0.002000,1.954201,-3.404076,-1.386413,0.412818,1.497008,1.303129,-0.510747,0.872143,0.406515,95800338413173397443617933173456896.000000,0.002000,0.000000
114.000000,0.002000,-0.600817,-0.764885,-0.157465,0.957029,-1.600083,-2.018735,6.402129,8.591334,1.643883,354616489281357384515584000.000000,0.002000,0.000000
115.000000,0.002000,0.496534,-0.322943,-0.209766,-0.767064,0.631585,-0.003603,-13.201841,10.041607,4.556799,102892326043182117846101563210754546566351851452175969851885530087842953054534897028707438110579676177487206809600.000000,0.002000,0.000000
116.000000,0.002000,0.298855,0.092555,-0.179362,0.304075,-1.283080,0.391034,-15.374825,-0.739863,10.072522,19783904579422000811438880997936550634193056764158952207966205980337982847229634071779960366675647253522979462492188743602958330986316574950779901448998531732191577080607255136360924773919239546055322134458794099727135744546554416937828352.000000,0.002000,0.000000
117.000000,0.002000,-0.179803,0.388781,-0.653730,1.367092,0.953736,-1.914389,2.749886,-6.944128,12.298991,0.000000,0.002000,0.000000
118.000000,0.002000,0.666277,-0.103015,0.101939,1.461791,-2.053370,-1.881711,-16.454613,3.442865,-2.473269,0.000000,0.002000,0.000000
119.000000,0.002000,1.207967,0.838643,0.771456,-1.102701,-0.093354,-1.625254,-3.798136,-2.446314,-2.743794,0.000000,0.002000,0.000000
120.000000,0.002000,0.181418,0.328733,0.156465,2.601214,-0.917541,1.704426,-6.100141,-19.430070,-6.403483,0.000000,0.002000,0.000000
121.000000,0.002000,-0.365198,0.137346,-0.332326,-0.303424,-2.420434,2.394599,11.990246,-6.129174,8.289909,16525878375422662719314693039513038487552.000000,0.002000,0.000000
122.000000,0.002000,-0.288171,-0.287765,0.016136,1.477647,1.629436,2.309914,9.265440,12.719307,-2.360049,20464285667613315980964098781790051838020620244169385166440405096811169201154752595075632232710398604929364591487663577617022353869116725687726351478991847256930470657746374292504082745257227021956908486154557109458316459260631722816827960019910656.000000,0.002000,0.000000
123.000000,0.002000,0.059352,0.726797,0.040369,-1.863745,-4.162170,-1.450226,-4.639207,-16.485554,-4.429372,630626363586176408217677062654258633529220979588127534539854285896851206332393405098594664448.000000,0.002000,0.000000
124.000000,0.002000,-0.563285,0.250536,0.222375,0.986679,-0.880336,-2.728869,15.385544,-4.942840,-5.750724,0.000000,0.002000,0.000000
125.000000,0.002000,0.102552,0.188802,0.548123,-1.399912,1.115843,4.387418,-0.063888,-3.088887,-16.616918,0.000000,0.002000,0.000000
126.000000,0.002000,-0.682356,-2.453470,2.513722,-0.057069,-0.645146,-0.681709,0.253658,0.975177,-1.003729,11943075920477004034483231771915880215824896559673861276021770288711934991215515205719165119219317604352.000000,0.002000,0.000000
127.000000,0.002000,-0.816833,-0.545998,1.761810,1.397597,-1.134932,0.264854,1.439030,1.171902,-3.355405,1053961406259520813046361653575842401664871497992135093123348263614027983893769405805039639968019005539009295275278883790840907822923520902734008772956626102584868864.000000,0.002000,0.000000
128.000000,0.002000,-1.300450,-3.337519,0.116363,-0.510650,-0.916297,0.150247,0.487967,1.311779,-0.054226,372855151709540247169700161221918441655409965935906331737406569602663696665956815642883792449197551234365040825132827274011230778683103557142317508251912663503795073332279167079398109767991820288.000000,0.002000,0.000000
129.000000,0.002000,0.527617,-1.194091,-0.943853,1.349083,-0.662633,-0.581984,-1.845990,4.123362,2.993044,0.000000,0.002000,0.000000
130.000000,0.002000,0.095029,0.865962,0.356683,-1.763041,3.154650,-0.210832,-2.535614,-11.491478,-4.767419,80960136441007097318416638489395200.000000,0.002000,0.000000
131.000000,0.002000,-0.234082,-0.082296,0.268404,1.678055,-3.554043,-0.877889,10.854004,6.445290,-12.022608,1336383782421352162837533492620435969446337915231383780368608140981353150918486506439471845810734243324646302801346080758460286763740765602398233251534160104290312327580630009037323189092352.000000,0.002000,0.000000
132.000000,0.002000,0.630232,-0.059042,0.600016,0.093919,2.636222,-0.702301,-8.956531,2.321942,-8.511797,53979096181857705091137536.000000,0.002000,0.000000
133.000000,0.002000,1.851886,-1.291163,-0.107081,-0.390582,1.707392,1.306640,-2.271757,1.592286,0.234802,0.000000,0.002000,0.000000
134.000000,0.002000,0.282065,-0.204086,-0.473407,4.036544,-3.239385,1.203835,-8.207830,7.104204,13.942496,8524162734445755791131138298717417041985831304831225284959407776565603054605461078850619595685645948037208569508501465111461888.000000,0.002000,0.000000
135.000000,0.002000,0.692793,0.579795,-1.666915,1.097670,2.084780,-1.854637,-1.669883,-1.188009,3.645160,9435596492245468852918081445823081761762229245682081294285458710293752434756489605359804785524697024244456882176.000000,0.002000,0.000000
136.000000,0.002000,0.301994,0.334576,0.077152,2.108197,2.367482,-1.453879,-14.078406,-12.642416,-2.299265,679385631617214185472.000000,0.002000,0.000000
137.000000,0.002000,0.247457,0.346845,-0.693105,0.874397,1.191784,2.126672,-6.589927,-5.855565,9.953808,2491729553651359637813290599818435442531543161253319640526703502895786274597254684572214330525601026440533061853692071957063901475324767246930137416218187983613132528259616057851904.000000,0.002000,0.000000
138.000000,0.002000,0.020359,-1.769635,-0.317704,1.287119,-1.375044,-0.243222,-0.037123,4.390899,0.763380,97474260617746784925773368235072683598298370121086895611819932195788828712683766638510707953458748669854153486605542667959923971362838870086878764188316121436896605109598133041971827345339074680116155027777685232979445976134288670720.000000,0.002000,0.000000
139.000000,0.002000,-0.700155,0.270293,-0.273401,3.700195,0.583794,1.633799,13.683031,-3.919639,4.249476,0.000000,0.002000,0.000000
140.000000,0.002000,0.601264,0.652344,-1.274555,-0.588400,-1.830540,-2.515769,-2.455244,-2.470133,4.947379,23030204659534881900404951076657856358383655941303490838286776193234528995739164619087554461087955239448894974042375575276312654284241076256196595180451716523952374140214981252057692859423745936195584.000000,0.002000,0.000000
141.000000,0.002000,-1.100558,-0.402141,2.245572,-0.424092,-1.923796,1.792015,1.083528,0.481338,-2.377962,53690072532805304267741767756426188168991084389092283813935745149355884306566330901570437874743860059245743074482180788191463926584303638837039613577250524637265316807832025825909145600.000000,0.002000,0.000000
142.000000,0.002000,-0.048163,0.276094,-0.011486,0.864141,-4.710131,-0.438730,0.628581,-14.060424,2.603033,13811128995550252868162907875536682352640.000000,0.002000,0.000000
143.000000,0.002000,0.869470,3.732507,1.006836,-0.214969,-1.870192,-0.503455,-0.288643,-1.169835,-0.338423,912151529753886583710183449096588347524581991439436788760800517576867969501508786276618744206981553916152528914377377895652563200305417857709176886147562612457542061654016.000000,0.002000,0.000000
144.000000,0.002000,0.078803,-0.064836,-0.258753,1.062708,3.559985,0.760563,-5.645439,5.758941,14.897183,0.000000,0.002000,0.000000
145.000000,0.002000,0.352870,0.305119,-0.588713,2.102540,-0.362167,2.329630,-7.494506,-4.610661,11.785431,679416538905413943296.000000,0.002000,0.000000
146.000000,0.002000,-0.294475,0.639334,0.397690,0.525124,-1.338784,0.422448,4.656522,-10.362210,-8.335455,10289059337097254980029449341300504230335954532686618421356986292126147530314965571433216593628360015067614581984759913132326912.000000,0.002000,0.000000
147.000000,0.002000,-0.607061,-0.276944,-0.092779,1.128914,-1.643310,-0.861486,14.198630,8.556788,1.487829,0.000000,0.002000,0.000000
148.000000,0.002000,-1.167394,0.241149,0.155871,3.452881,-1.294664,0.529419,9.171034,-1.320310,-1.278260,1602699064540020992940212547078467026347135899923803813210775983270069795794016272384.000000,0.002000,0.000000
149.000000,0.002000,-0.416416,-0.370962,0.493902,1.400632,-0.492892,-0.014223,7.010231,8.517725,-9.982594,0.000000,0.002000,0.000000
150.000000,0.002000,-0.641574,-0.055020,-0.346384,-1.699501,-2.565638,1.455398,13.639656,2.218574,7.285306,1450275350251984330696034965457268867333407605569621638076431742407794422616454987572330442835557538574338587793190557153660242813549102386667993489127588157886300160.000000,0.002000,0.000000
151.000000,0.002000,-0.583902,1.478185,0.821371,0.591839,0.662916,0.523924,1.442028,-3.979521,-2.322187,0.000000,0.002000,0.000000
152.000000,0.002000,-0.533869,0.907826,-0.688674,0.640423,-1.530632,-1.810663,3.415566,-6.454065,4.597818,3937265131804762298416704051049249391679174415430899643557881581666304.000000,0.002000,0.000000
153.000000,0.002000,1.212535,-0.977246,0.776070,-0.995771,-0.966984,-0.320244,-3.146490,2.663749,-2.004647,0.000000,0.002000,0.000000
154.000000,0.002000,0.130943,-0.210217,-0.443988,-0.527217,1.790016,1.231974,-5.251774,7.772405,17.053056,0.000000,0.002000,0.000000
155.000000,0.002000,0.082090,-0.037361,0.047874,0.584013,-0.900915,2.502289,-6.341363,7.494021,-4.471322,0.000000,0.002000,0.000000
156.000000,0.002000,-2.196788,0.932327,1.079226,-2.632239,0.567504,-0.652628,2.171110,-0.854973,-1.076568,2395752.829571,0.002000,0.000000
157.000000,0.002000,-1.106670,-3.795482,-0.238161,0.266769,0.079681,0.256268,0.278675,1.203808,0.061507,400760730936409870890465919415265761411801622727038667032850778758260569631892540833596243927458282595821928549379012034560.000000,0.002000,0.000000
158.000000,0.002000,0.517643,0.455222,-0.178161,-1.983175,-1.091659,-0.988722,-12.209606,-9.585690,2.733811,299256588605.645996,0.002000,0.000000
159.000000,0.002000,-0.922360,-0.327411,0.919674,0.920226,0.508343,2.322131,4.788934,1.682175,-4.858966,0.000000,0.002000,0.000000
160.000000,0.002000,0.986680,-0.782252,0.053572,3.040708,-1.296102,1.161333,-5.465662,4.905825,-0.376013,336225042922220975335140655280374514082170490415016619718581759129484381768303437708035400242804968998103049889189450571055320514406104008527395299998556474532281670244404984987468277352729652660369396110900204402763566886884333425627915878400.000000,0.002000,0.000000
161.000000,0.002000,-0.148363,-0.590732,-0.085540,-1.774595,2.140399,1.948345,2.005185,15.829420,1.801803,125696141030553318419325437511467008.000000,0.002000,0.000000
162.000000,0.002000,-0.704730,0.048572,-2.116083,1.383818,2.127842,1.937053,1.122477,-0.040285,3.149103,0.000000,0.002000,0.000000
163.000000,0.002000,0.827690,0.349015,-0.056334,2.872352,3.137794,1.932396,-15.268607,-4.381676,-3.740066,225552041881540650796343252696022268254311723613500887242686058084050115339278946783469110411034362456728485756928.000000,0.002000,0.000000
164.000000,0.002000,0.099303,0.722760,-0.058303,1.856636,-0.131435,-1.688911,-2.838711,-15.598689,1.522376,6989255451828752406886782917928881647059406919884598751103689174359954062362520960321229542831922761453422425504427255422309088230313253962908405878714422848824131897682857121156769753014157365669610613070420246343568184654209990579445633388709858250802925142016.000000,0.002000,0.000000
165.000000,0.002000,0.179903,-3.381973,2.278755,0.185891,1.814211,-0.290725,-0.070206,0.923159,-0.637624,106979924740224077521555028394673037283282281490542063455798185695321811535708166188434449486428548772390487791076807363055092825176779614099761315019133055649843342968594779295857302433775115243246498907873359511420928.000000,0.002000,0.000000
166.000000,0.002000,-0.237367,-0.579537,-0.348326,-0.525556,4.538946,-0.961773,3.229869,13.381056,6.888508,1842479445196643702409986305857349551049615346968727534998690258028282415492933992153940107793774085233726419267223552.000000,0.002000,0.000000
167.000000,0.002000,0.349061,0.124521,0.863409,-1.692647,-0.501361,2.475099,-4.253969,-0.632353,-10.844506,0.000000,0.002000,0.000000
168.000000,0.002000,0.374713,0.408282,-0.262545,0.657220,0.879751,-0.472354,-12.306808,-11.412500,7.121644,2736755137214198258630754566144.000000,0.002000,0.000000
169.000000,0.002000,-0.458954,-0.870638,0.464877,0.890314,2.513574,-1.772949,4.528486,6.270709,-4.309266,83497229502900120970067968.000000,0.002000,0.000000
170.000000,0.002000,1.668944,-1.154145,0.762823,-1.316794,1.669527,-1.250941,-2.444709,1.826429,-1.193394,0.000000,0.002000,0.000000
171.000000,0.002000,2.224741,0.706555,-0.243374,0.937532,-0.449236,0.770071,-2.911184,-0.868003,0.274691,183524140466646638404067171245797310237246898414728093567114813620116578339420897280.000000,0.002000,0.000000
172.000000,0.002000,2.815689,2.805717,-1.384645,1.020038,0.266567,0.047329,-0.759757,-0.728607,0.364646,104042032440.431488,0.002000,0.000000
173.000000,0.002000,0.838919,0.329028,-0.134493,0.616056,1.377607,-0.180834,-12.229644,-3.276080,2.640103,5828670916452116261874551759695525130611918316253083377586841143665990016434176.000000,0.002000,0.000000
174.000000,0.002000,-2.174243,-0.520850,1.538933,1.201787,-0.734161,-1.052868,1.885012,0.520714,-1.374825,40239264898518041114880414687299413106165983206380488109813367426648935847000688105700613278021915767158081326454392066681944352610192649128186436315534344637253665840978460672.000000,0.002000,0.000000
175.000000,0.002000,-0.528517,-0.651895,-0.138237,-2.966094,1.887599,2.515100,7.892555,10.925171,2.212981,17811857927825924796596999440553122520744123542924165951905823996349209868299273584420807327747985605996870305150397039445310663693448579831582539454307103055762601823592964715635589157588852929252976697775903134963533755616338311362049245383229440.000000,0.002000,0.000000
176.000000,0.002000,0.915925,0.315159,-1.271586,-1.207435,-2.369470,1.262962,-2.422435,-1.654787,4.906829,116318399412326353722739501041053104901694262999759565506335913743944825655587416962179647496037713621228370687575827548381176660170696739263919424080474550797247353431902960091322475274936338517852160.000000,0.002000,0.000000
177.000000,0.002000,0.043079,-6.422668,-4.082867,-0.617134,0.294376,-0.514469,-0.002775,0.286985,0.180530,1119041840844361716812247258813709300548847466250505706322499412610100394780725627693826182035125689784653232024234532836037742490441294312118348943423137352951414767637057776250793029830409960682213345878544351286370358877316543299756758786470083682168841716306542592.000000,0.002000,0.000000
178.000000,0.002000,0.425451,-0.101811,-0.226013,0.493737,2.427133,1.353017,-14.501958,3.818884,7.347843,633249313588510759697609496289682834656179493519258957217002784659567667223601799259516408884222756436473714059712706555671468384054225987999991459218443922441775169960846250210915723014932791296.000000,0.002000,0.000000
179.000000,0.002000,0.454569,0.138743,0.395625,2.813758,1.838288,-0.487391,-14.974145,-1.214110,-10.267988,4168091141370803526876503292408064230362564215999535334063306511321629120911696683024110091940800071423851578524149295553359449508251872014877955352687665691928026350095393624644713230450564625162621691004620825268186704186757595175310546303855836004352.000000,0.002000,0.000000
180.000000,0.002000,-0.160808,0.415628,-0.176876,-1.190589,0.139810,-0.886378,6.288886,-16.150184,7.745251,1852704684920677534516582624515348747144936419605144324276224.000000,0.002000,0.000000
181.000000,0.002000,-0.487530,0.683029,-1.173250,-0.307951,1.900827,-0.725826,2.375887,-3.055709,5.535451,201391259294870472423511187585729682251677370893726322653273984615975324092712060474756274436899940969953790335636919463150030586667506075155579394682076825382685103854026641889791463201403822075317785878819609480947773917356050174367682466895786140979181343848268618169754473988096.000000,0.002000,0.000000
182.000000,0.002000,0.135099,2.599738,1.849490,1.184906,-0.042827,-0.314666,-0.107185,-1.433536,-1.084079,870503490484606568683049492309493075913203777656366409957735141344008609175831449093207605355944638769383311153835095302814260318546623160720175072028986551826802488568020796670153897815736379949556170752.000000,0.002000,0.000000
183.000000,0.002000,0.755977,-3.727232,-1.996016,0.068776,0.543842,1.655762,-0.177666,0.888659,0.468010,11704351349372432334018544348011116519630186971933323962727485047062036005910602752309591194220075411873179658144975486624599025073789703066883381214433652459405683734695356066816048727461317724168543387952112205824.000000,0.002000,0.000000
184.000000,0.002000,0.387816,-0.026850,0.223167,-0.788393,0.378302,2.983847,-13.466499,2.622995,-6.924333,20615074849081828.000000,0.002000,0.000000
185.000000,0.002000,-0.476525,1.452044,-0.877449,0.434881,0.604897,-0.967697,1.414818,-4.344442,2.478708,0.000000,0.002000,0.000000
186.000000,0.002000,-1.849278,2.276410,-1.102775,-0.907803,0.119109,-1.677553,1.123732,-1.402692,0.712488,94291686210049480508751184171226787226612756494994484099217631191730870625712371454605151664951805261732253106446750746291700359786659121153580838266373077324879415138646636598230821943490507934401432987540635903886090791298333467957864116466561626840164478522482810159104.000000,0.002000,0.000000
187.000000,0.002000,0.020433,1.580504,-0.775393,0.613919,-2.892599,0.633498,-0.005113,-4.495503,2.237551,0.000000,0.002000,0.000000
188.000000,0.002000,-0.251758,0.266048,-0.855638,0.071015,2.591695,1.675259,3.224882,-2.942687,11.830485,7554129673856392642223570460249229196788711182438840323727544274277918000021504.000000,0.002000,0.000000
189.000000,0.002000,0.933246,-0.170677,-0.450900,2.271095,-3.539008,-1.137899,-6.687228,4.299522,3.851259,0.000000,0.002000,0.000000
190.000000,0.002000,-0.490129,0.423553,0.081722,0.021749,2.364404,2.285399,13.847674,-10.481065,-1.680280,334639942568191249171704878231817263147664692814120156062940197378657726755251816930813811068007568132047479771649120442218587281287618426926875967468131147777735399831926440524335801904327032832.000000,0.002000,0.000000
191.000000,0.002000,0.195658,-0.515594,-0.055293,0.650095,-3.180162,1.352867,-5.213518,15.690390,0.942011,4025109073061504227097698691716687088061854475930486333246260804861255731543421816354120153074239068522641831108946812483864825319199464853872854783866048116287950587732951040.000000,0.002000,0.000000
192.000000,0.002000,-0.649528,-0.630119,0.781220,-1.313090,0.510285,-0.674938,4.160893,4.735629,-5.371395,12039122606401739411036255264069616841552154235906114415222313565363148969255968725532672.000000,0.002000,0.000000
193.000000,0.002000,-0.352987,-0.396276,-0.084761,2.344102,1.037788,1.729998,9.143223,14.455443,3.240855,204883475841459007330478997965253621603930637631698282832791006127374058331270733083475630215166389706031104.000000,0.002000,0.000000
194.000000,0.002000,-1.607551,3.426451,1.027536,-0.748954,-0.115863,0.536799,0.527697,-1.119472,-0.332313,281399793149125460634742893110537381789949411879085441810432.000000,0.002000,0.000000
195.000000,0.002000,-1.080932,0.260368,0.141526,1.969936,-1.013578,1.454260,9.914628,-1.884824,-1.290190,0.000000,0.002000,0.000000
196.000000,0.002000,-0.368661,-0.430563,0.301576,-1.830569,1.852793,-1.132916,7.255203,13.114585,-9.248089,304776694134796269935053361672003672686032435725678337968339845024489163430294402407241969416975242199352841913978542105152480209577468353893430536032671539728530589609414337467009971063368713097418719107778737471580895148607718367186781313871247804433694720.000000,0.002000,0.000000
197.000000,0.002000,-0.495881,0.853074,1.076257,-1.784315,-0.028279,4.030354,2.036835,-3.750668,-5.043488,10188221268917796630500719985080441059884460446444454014094737304685302282505085411202426702558154902586105683648859174978794719402065688283603575118751654824270168171592465882560837776861619864531210990263745668650020109844452547402809888814923776.000000,0.002000,0.000000
198.000000,0.002000,0.006214,0.194520,-0.384978,0.530277,1.426193,-0.746264,1.039607,-5.207871,16.535821,125786499890231768888664101593203526261148907879635867351130903224834524124896586367604018219885711095534297489683210400809846930918571242966145489121015666317256266638582183293276726342742057350172272111432217592496645005622030368768.000000,0.002000,0.000000
199.000000,0.002000,0.058522,0.360002,-0.180152,-0.124640,3.740054,0.300194,-3.696690,-13.917553,7.379263,2376627067969613186041301933961766070111855465179662796217863369776269227155449359898721177965589020679826628393893195964106285021583361763810664864652501258499199815894223069823931855941895208527016816385865182708016205492385737290418874689798580436032561348608.000000,0.002000,0.000000
200.000000,0.002000,-0.123666,0.694592,-0.273435,-0.039448,-1.143761,-0.665392,2.294596,-12.644258,6.167810,379585020309168030546309868364170015435014197477491361433153570548695928788078810679673331597154834633842236028580470299719942001506986518481543945000179317120267773489395373837704495104.000000,0.002000,0.000000
201.000000,0.002000,-0.515511,0.278535,-0.422027,3.892065,-1.473441,3.356494,14.310868,-3.567133,6.014624,36447730112912765342148807538596922914479252286816773469677787792338598020369082069549056.000000,0.002000,0.000000
202.000000,0.002000,-1.344895,1.091647,0.912611,0.176588,0.660697,0.158747,2.923857,-2.291524,-2.009652,7553981264614268411678815333920846702929137857293503026380596894770005872214016.000000,0.002000,0.000000
203.000000,0.002000,0.107303,-0.570408,-0.333741,1.318469,-0.529099,-2.882642,-1.777385,12.623960,7.698411,27481686.394625,0.002000,0.000000
204.000000,0.002000,0.878771,0.006439,0.474475,0.361429,2.206278,1.475874,-9.325506,0.193783,-5.155385,0.000000,0.002000,0.000000
205.000000,0.002000,-0.205554,-0.469415,-0.221163,-1.759606,1.507486,3.635135,4.765122,15.681164,5.735297,1757629847207450550381014155264.000000,0.002000,0.000000
206.000000,0.002000,-0.029319,-0.007666,0.049875,-2.247426,1.283661,1.400363,-2.577373,4.495507,-2.383066,11141485850298591474841449889529924127695576077088545080957136155329811075133740137341895394873031739816826629366578640664916073224436058673307149815429733343819726848.000000,0.002000,0.000000
207.000000,0.002000,3.965928,-1.353892,0.287548,0.478299,-0.027715,-0.088777,-0.995507,0.379962,-0.078977,24936072855915545153308618132148466582672737882529749359558822800502451058834007190108818979054738612001816049886384246294052864.000000,0.002000,0.000000
208.000000,0.002000,0.326577,0.394256,0.579855,0.323638,-1.937470,-1.534034,-6.536513,-6.724289,-10.755115,150069756273747231727292981650715046613479538265550366857866491250755412136632405493939407457011535396656759439360.000000,0.002000,0.000000
209.000000,0.002000,-0.242676,-0.277734,0.092960,0.344491,-0.943124,2.099977,9.152608,13.530012,-4.518122,1099825946571539783175303907516612608.000000,0.002000,0.000000
210.000000,0.002000,0.501683,0.204610,-0.393873,-2.547023,1.463345,-3.218898,-13.894746,-2.680813,10.251837,17687364406806473694822402831640399680460214752445278773682839789298926239135034278517416047567183147703397193123416010599810962284651768227978631935571892175738087520434471315178559725060223049702311747199442226296435769344.000000,0.002000,0.000000
211.000000,0.002000,0.108957,-0.101072,0.105002,-0.643092,-1.344962,3.503078,0.293061,10.740655,-2.604182,15466235493694534548938708457567403750115602565744777827174759169675953564736442189846402672688828534399585063620907750525179717508103737539284229164815595807791404741973508096.000000,0.002000,0.000000
212.000000,0.002000,-0.036706,-0.114195,-0.182723,0.074598,0.822182,-1.779832,0.500057,9.489994,12.501629,774540714830353601571058547835886614847474574127879387657307538037267744441717820441936005568708369701319731001450097704301509275861730142696580482459854423478139485065058275572961955169177698304.000000,0.002000,0.000000
213.000000,0.002000,-0.630921,0.184314,0.017452,-1.742764,0.714753,-3.182722,15.678132,-2.749406,-0.525706,1533419743140537242418358145258090068206536882122386383523741398204416.000000,0.002000,0.000000
214.000000,0.002000,-0.028100,1.596089,2.052890,-0.989608,1.024616,0.456529,-0.058300,-1.557747,-2.048617,1115651098920001992556798598970467661122379820557409476849628087990834587356614066830865890589026362633376503313576927912098438294870165039062789287977045055391595828261566451885753479647937989501485243193326391358027212094622233241686076069781297954816.000000,0.002000,0.000000
215.000000,0.002000,0.609104,-0.667784,-1.715692,-1.177153,0.878507,-0.848911,-1.247245,1.558087,3.453323,0.000000,0.002000,0.000000
216.000000,0.002000,-0.107663,0.187393,-0.532302,-0.366913,-1.517538,-3.934879,2.888375,-4.639833,15.873550,2796443365028949074771900738837400905530113328572994406327401091099351669547760845519315312970048228299205771142446813479559713252332512796492701675896050193004526251372941015004855041793018370169803616420714875648337291332029792635161544826613657501696.000000,0.002000,0.000000
217.000000,0.002000,0.059492,0.244832,-0.351815,-1.055721,4.991332,-0.498064,-8.046100,-10.012366,19.204303,0.000000,0.002000,0.000000
218.000000,0.002000,2.180773,-0.702755,-1.056170,0.386243,-1.762461,-1.685191,-2.283733,0.797202,1.098386,34023014598208743846752634760789393040325959115316658176.000000,0.002000,0.000000
219.000000,0.002000,-0.041196,-0.156216,-0.181278,0.596208,2.780382,-0.723113,7.712428,10.339667,15.360400,94619502321050125721624472298414546923586729500418075289319477216619309146328481047073532921783978186339085941804094485018396637275123130456291125532701401712334602584811946816577738879620115434849643352492387048998528858120687862752161560882450104437918339310830229651456.000000,0.002000,0.000000
220.000000,0.002000,-0.387060,-0.007550,-0.098233,-1.211503,-0.692000,-5.830680,17.517253,0.758817,4.053172,274597026230497631727923192305482470539519620638449258929938567076889231360.000000,0.002000,0.000000
221.000000,0.002000,-0.274810,1.272786,0.373774,-1.278910,-3.358733,0.333575,1.368564,-7.088798,-2.277199,43661395804304548046752182374532752935983182035611011201324303079094321188960773360136169533318487233635292115840985597472812326605326938934172822566208667583069312147701375278215359750174482112727310392355828620889528136848324313073948984820543969726300160.000000,0.002000,0.000000
222.000000,0.002000,0.183053,-0.040271,-0.066371,-0.625460,0.159554,-1.605431,-10.108475,2.586860,-0.227340,16948347606350014949296716984936495465234250515672005257785286554804362762342929898812184824157687809788788233501671264513221334440535753807973427538229579808957272382208358725169458389196403634077696.000000,0.002000,0.000000
223.000000,0.002000,-1.111908,2.525902,2.639882,0.203566,-0.488322,-0.014911,0.415620,-0.860386,-0.973275,25609093.518421,0.002000,0.000000
224.000000,0.002000,-0.505712,2.581502,0.651115,0.368070,-0.691504,-1.760733,0.463033,-2.350589,-0.631710,0.000000,0.002000,0.000000
225.000000,0.002000,-0.295785,-0.306443,0.240321,-4.392871,-0.020332,-2.331546,9.372228,11.505183,-9.891434,321280015661451290979362672024812297397994746123464906813994156197081531252989755392.000000,0.002000,0.000000
226.000000,0.002000,-0.153468,0.264328,-0.045143,0.515964,-4.190428,1.744961,6.824780,-12.820364,5.858003,1448535559339832545579596216826544183495686004791155651934600494587963636936570076185600465834514487308049212203943071086188904491214911786569101119170544151195960542461097401550854882025266830317131689016665710844636013104927473109965276790173952697498011631150432256.000000,0.002000,0.000000
227.000000,0.002000,-0.275888,0.685630,0.225850,0.703384,-2.034335,-0.671676,3.838217,-14.098396,-4.723541,0.000000,0.002000,0.000000
228.000000,0.002000,1.865977,1.666792,-0.400995,-0.043275,-0.334735,2.043554,-2.151293,-1.577592,0.513122,86862284903.281967,0.002000,0.000000
229.000000,0.002000,0.586393,2.350777,-1.779989,-2.765011,0.128974,0.638774,-0.399338,-1.577990,1.207825,98153501128772350604543149407926224527336360702615902028586105912476960320167986319918586987039526313651060331566910313986310166586894855949530319469572272376641411614338470708128291454730225066390261096221724226260523090813224002754184881862226073855719832760611187458048.000000,0.002000,0.000000
230.000000,0.002000,1.481293,1.457395,-0.063887,2.389785,1.278871,-1.240470,-2.780853,-2.488990,0.158125,4009510146703217393664.000000,0.002000,0.000000
231.000000,0.002000,1.182989,0.692640,0.284735,0.558127,0.997087,-0.700844,-5.363562,-2.894694,-1.403653,139149666415364757125805955096493430366542545865393034752120657768842256765769890298866757919538425145343803762000311309225192286498448889665991886638776391594830915163240580970991673732807321136681956516841589891586372339125208419435341937390927334599510946318051235069952.000000,0.002000,0.000000
232.000000,0.002000,-1.089309,-1.764377,0.145883,1.030583,1.347091,-0.248100,1.765106,3.130079,-0.332157,2373312425406783179682827824561154456233293174685987656471607864133803509653341272218778946130724681206529746234378235999516434023597639644096803445820916867562180552635499318593078474190158125889441442038676703139725766093889649482776010663829844623294652743680.000000,0.002000,0.000000
233.000000,0.002000,0.053431,0.768710,-0.346254,0.516672,1.914162,-0.127774,-1.422359,-11.716815,5.870849,11194073342783828509539023670901876008576957826594486467014558549485800631038869184950636118016.000000,0.002000,0.000000
234.000000,0.002000,-0.728883,0.661919,1.294791,0.699207,1.352600,-2.452094,2.473564,-2.023032,-4.563171,65683839141921144.000000,0.002000,0.000000
235.000000,0.002000,0.868385,1.379766,-0.756509,0.969940,-0.741345,0.185180,-2.548445,-3.756783,2.248863,0.000000,0.002000,0.000000
236.000000,0.002000,-0.559548,1.299487,-1.359795,2.545574,-0.214495,1.279624,0.948110,-2.586676,2.505292,87570959348388759395496914093910578083087686736436156599807614055628289828612067489594759789339622764956612463397581009829550326296530762954788628087600138565340610166784.000000,0.002000,0.000000
237.000000,0.002000,0.317543,0.716232,0.102309,1.669987,-0.808926,-0.992913,-6.975632,-12.850055,-2.386153,229566752240338866012852189497436852815358639536769793619556662498548901906520369889475771174162472887026702261130335408121209018001299124752609158722510489795909032970360943209942092109385583239816850071093248.000000,0.002000,0.000000
238.000000,0.002000,0.424758,-0.401434,-0.159870,-2.386106,-0.480530,0.377716,-13.134020,11.950820,1.342520,0.000000,0.002000,0.000000
239.000000,0.002000,-0.480602,0.051401,0.271522,-2.212214,-3.819131,0.101370,13.952741,-0.941128,-10.319645,1526096.341544,0.002000,0.000000
240.000000,0.002000,-0.352295,0.519637,0.007234,1.428401,0.577740,0.396259,9.406927,-14.171659,2.239122,205255510680366750988874672920575113176825689909893101464498133859352953995752909514101988010247251380126459284782424201998718250946304112246006070463291053652008059786408733800996066412557755803141979941984940150706862621028627405381417884161477668537499049897805140197376.000000,0.002000,0.000000
241.000000,0.002000,0.807133,-0.411174,0.371937,-0.827076,-1.326153,0.253982,-8.102477,5.083543,-3.551290,118274266465124082817957888.000000,0.002000,0.000000
242.000000,0.002000,-0.798512,0.783663,-2.074040,-0.670525,0.133347,-1.768389,1.028933,-0.931322,2.723088,379722745411134103602866941522364124549551897460865230494199078238567862016977852368125257439679292655250771082040019304220157701308573601744553752453356763678401140255768588220725460992.000000,0.002000,0.000000
243.000000,0.002000,-0.061564,0.616434,-0.609800,0.542280,0.986823,-1.562567,2.336094,-9.702583,10.274625,0.000000,0.002000,0.000000
244.000000,0.002000,0.246204,-0.301405,-0.388589,2.525624,0.705709,0.209523,-7.442148,10.573148,10.720369,8301285293749449600921646103688233615360.000000,0.002000,0.000000
245.000000,0.002000,1.747740,4.018328,-9.159072,-0.769793,0.463593,-0.590758,-0.033812,-0.075986,0.175614,84145074501030139335247909443072425802260958538828359739578722597312805630805882040724602512917620341177305260384285002584529268315804818621494541216406593736661802781068917853000685544437448704.000000,0.002000,0.000000
246.000000,0.002000,-1.374732,2.747477,-1.796186,0.465514,-0.260759,0.379691,0.587283,-1.166079,0.790110,15067948220306813114618183819328086766743645003115577626469597184.000000,0.002000,0.000000
247.000000,0.002000,2.323025,0.235738,-1.409988,-1.240375,-1.145644,-0.636172,-1.937920,-0.141123,1.148244,34149172155084264109832475484062240386351119792516221680408156880935614046748080273180051329150734070900978614272.000000,0.002000,0.000000
248.000000,0.002000,-0.132869,-0.017463,-0.671028,1.613952,-0.882242,2.917421,4.168616,0.724846,14.978430,0.000000,0.002000,0.000000
249.000000,0.002000,0.118056,-0.026397,-0.250142,0.545083,0.593966,1.120010,-6.513117,2.955624,17.305527,6344349450240652880774419419090569252226461631817146822900293193170944.000000,0.002000,0.000000
250.000000,0.002000,0.076041,0.410791,-0.720296,-0.674571,3.198035,-1.575588,-1.500676,-6.403230,11.128650,10663263346442390353761778952128832690303848573662614170771667431244351342566188608644482904545973804963940733328406578169401201639475835754573726720330113521363893200185879617313042281831265039754365643592629937566571537772204292169185148202811597717865499010040644763648.000000,0.002000,0.000000
251.000000,0.002000,-0.800348,-0.019586,-0.617725,2.891270,-2.722619,1.750783,8.506585,0.968659,6.832957,0.000000,0.002000,0.000000
252.000000,0.002000,0.666271,0.153562,0.407025,-0.186819,1.451577,-0.660258,-10.792802,-3.747181,-6.806382,2388208.868658,0.002000,0.000000
253.000000,0.002000,-0.391034,0.199126,0.004560,1.307625,2.819476,1.808746,17.847977,-6.313759,0.712270,0.000000,0.002000,0.000000
254.000000,0.002000,0.516373,-0.802172,0.776815,-1.453313,-1.715204,1.443517,-3.432664,4.810445,-4.768817,260954531375809177962952321897960138474326620155636617969782216876341264705382653937009355665702648844117805611223373660021372768650766721751930140268890014682951122708689892265290146753778553251838652076523520.000000,0.002000,0.000000
255.000000,0.002000,0.192505,-0.051811,0.212433,-1.985397,3.756131,-0.102840,-17.825763,1.364844,-13.619389,126879452626163549208009361465713385887272765383956130618144851968690216451790928772202035073761938892550052413997917276749550218318383233474014135031592158132608363796680495844770099574711708770111851896670187583448531649001768878080.000000,0.002000,0.000000
256.000000,0.002000,1.278848,0.691382,0.015084,-0.211994,-0.749556,-0.173601,-5.771124,-2.692878,-0.128207,262117441947662753883841154871503855964352671413117996964079826207795127613451665408.000000,0.002000,0.000000
257.000000,0.002000,-0.356852,0.210285,0.264992,3.696952,1.804637,-0.024747,15.720323,-7.129495,-11.985462,7552369898696026449181648326874488370242897763422870099911240432656221961453568.000000,0.002000,0.000000
258.000000,0.002000,-0.411847,-0.432058,0.148308,0.244012,-0.980727,1.146962,8.884303,14.083758,-4.841795,761569796748168730346557661328304512751641631528711810489998473732969391561631385606737722416978093309503162298337448706195974755847539587388301517527059683961761658044416.000000,0.002000,0.000000
259.000000,0.002000,0.371705,-0.942017,-0.616280,1.343831,0.852475,-1.002680,-2.794758,7.054916,4.089692,438232524171359723345877020678646382762755840061175782683106766487552.000000,0.002000,0.000000
260.000000,0.002000,-0.703627,-1.166232,-0.999786,-0.615534,0.733085,-1.814286,1.922681,3.528594,2.995882,981592264580635316860647438208448433498249014463405924297169231544212311353169475458857647199216170909439751491310498310810364090940533209538608195906257936312001217109046155280384.000000,0.002000,0.000000
261.000000,0.002000,0.741422,-0.587955,-0.090848,-2.305049,-0.846891,-0.809687,-8.209015,6.585427,-0.033103,5928446092318174608993424428822261500452463816653187454954686883024337401667063265695215482001843988422361566459566869526088727144607482841102654540518570087286161760407554740467377338514319487761273042853545044864700613943885824.000000,0.002000,0.000000
262.000000,0.002000,-0.835904,0.825844,-0.687415,0.831833,1.444340,-2.541202,4.841334,-4.474359,4.006321,2261680.408300,0.002000,0.000000
263.000000,0.002000,0.761851,0.797187,-0.611019,-1.296574,-0.025146,-0.548554,-5.126651,-5.075481,3.029971,1149911894629161576745343104121575961395388692474115640187295905437934617309117025385602549671765758639094372710745105039597720605868130662917803394013420959499586776965637289310099201429405933414786269184.000000,0.002000,0.000000
264.000000,0.002000,-0.678781,-0.882377,-0.346175,-0.494036,-1.604618,-0.105933,4.664920,6.828325,2.525880,1867087978317298085498961131636019021851933551269006319697156601673887710968976569862018617246954631885401700808830363970072416219802542300463962211164975852624039651250794743635801818452688740859254284127119081472.000000,0.002000,0.000000
265.000000,0.002000,-0.541639,0.532449,0.093382,-0.807410,0.679097,2.965810,11.069154,-11.495114,-1.679636,0.000000,0.002000,0.000000
266.000000,0.002000,1.524395,-0.754527,1.383402,0.188050,-0.564132,-0.471302,-2.205660,1.203436,-2.069157,0.000000,0.002000,0.000000
267.000000,0.002000,-0.602500,0.140851,-0.361572,2.033014,-2.405953,3.609496,12.584144,-2.394894,7.022829,89337588624422180810055002163927874291201005686662261001968131965277821217866818888138752.000000,0.002000,0.000000
268.000000,0.002000,0.072133,0.418040,-0.261322,4.058758,0.489683,-2.194822,-0.156359,-14.924955,8.644751,145184804026017993623303016074615920257315000428407402681426642059760592754983262112654777856388279613604665229312.000000,0.002000,0.000000
269.000000,0.002000,0.453952,-0.038970,0.093159,1.227335,-0.691974,-1.177418,-17.739755,3.970340,-3.310500,129096216112669617478250111173056097671805038707177470875473825205617426432.000000,0.002000,0.000000
270.000000,0.002000,-0.209446,2.070246,0.015570,-1.499783,-0.288105,-1.249500,0.199076,-3.647937,-0.044327,316214387174326665091679036291153920.000000,0.002000,0.000000
271.000000,0.002000,-0.014792,0.352151,0.095538,-2.306969,-2.029380,2.878027,-2.089062,-17.821584,-4.536989,26150945321252686076863546287303976200554281513418937251254268326072812146577757120279844153758618754981869648447079862380501690952328496593556631957438037129403508604365205905185469791993856.000000,0.002000,0.000000
272.000000,0.002000,1.054774,-3.198969,-0.656288,-0.236562,-0.633348,1.119920,-0.430533,1.459224,0.176466,5654328180270452403404747974012860234007448309021149100189544893329110374285312.000000,0.002000,0.000000
273.000000,0.002000,0.237091,0.979281,-0.567351,2.763209,0.662943,-1.014479,-2.004613,-8.286824,4.465606,0.000000,0.002000,0.000000
274.000000,0.002000,-0.019186,0.069564,-0.172652,-1.017445,-1.072047,1.695139,-1.239033,-5.571480,10.062158,231334492762613002595037829200850129580733214209252038086474745798132431486977263025014369960427280556794678519028941266131669630002957774383577810473278488182784.000000,0.002000,0.000000
275.000000,0.002000,-0.280841,0.040441,-0.009419,1.963822,-2.889434,-4.052945,16.893160,2.639022,5.618272,0.000000,0.002000,0.000000
276.000000,0.002000,-0.194004,2.728414,0.598474,0.123543,-1.513820,-0.771219,0.157557,-2.290236,-0.528924,50301111005218699009260168265820354652169836254340062765444989365486430668449693399252992.000000,0.002000,0.000000
277.000000,0.002000,-0.145962,-0.367760,0.301193,-1.539979,2.938771,-1.607771,3.552208,16.736113,-11.155364,104641432251380389010864614609225594699776.000000,0.002000,0.000000
278.000000,0.002000,-0.328577,-0.298627,0.068951,1.953461,1.141007,0.286140,10.617035,12.289675,-1.858240,60868664335755652610365084871321556918540440730388739967382620555629648400012742168482414108799311436393671354854350278403101298355724580948533655914025468987983203377468690421026552615280575286083584.000000,0.002000,0.000000
279.000000,0.002000,-0.386365,-0.299350,-0.652933,1.301017,1.462974,2.493779,5.767517,5.439767,11.890749,0.000000,0.002000,0.000000
280.000000,0.002000,-0.114093,0.144473,0.069318,2.641875,0.296200,-1.348979,8.836343,-5.838336,0.458311,398296122388327236972838867445555406297599174478397413442714134881189547673520366632039234315045511725518183582728954573535713682057643098138606128629064954317964685869056.000000,0.002000,0.000000
281.000000,0.002000,-0.955517,0.159160,-0.651520,-1.491891,-1.268006,0.684724,8.089605,-1.812400,5.102550,999645217581696646471415776948289474600411185772273838560448561985041906982466589365888370060298340542214042550333977842007570231755866508153742460873186669362045966192154039949910226780653879296.000000,0.002000,0.000000
282.000000,0.002000,1.490456,0.349607,-0.065179,-0.467475,1.286787,3.094705,-5.744921,-1.012000,-0.011520,536343199054871719949909429610962577490375968230174138255583783925314381466113289500104153846918034486772097347485696.000000,0.002000,0.000000
283.000000,0.002000,-0.645164,-0.313514,0.025288,0.071599,2.620664,1.153824,13.446164,8.149438,-0.562498,105944265646642989966427949256692817086741081000745816255018246412562075712607672065023272610458211989286324534275261938701843703653065204061588317886021761982744368171634019853739649322481519626642590786470010981004694447530104198594365244470447340240502784.000000,0.002000,0.000000
284.000000,0.002000,-2.396025,-1.713744,0.759480,2.114893,0.454527,-1.217937,1.486055,1.116180,-0.504116,0.000000,0.002000,0.000000
285.000000,0.002000,0.249066,-0.706998,-0.487849,-0.040923,-0.529364,-0.097567,-2.778764,9.605461,6.476703,230776157298221168768383280583099453128394809756304356316075929767159322506710655880292843372961253852343425236056098882244765556642388341923940344827751884796397240417362041116628631014243308976120226587344896.000000,0.002000,0.000000
286.000000,0.002000,-0.089179,1.247649,0.280009,-3.005223,-0.011515,-0.171454,0.330912,-7.949796,-1.861825,0.000000,0.002000,0.000000
287.000000,0.002000,0.073988,-0.060141,-0.129834,1.692912,1.261567,-1.679379,-8.198908,7.437201,7.248697,97715891625978327533760830568633570048089689873498306420907826640295586233463036612461971744210863110866750057320404913524203989964597796072992307915465039494886710619340828222487682822500390987500689606970409105294727999751261782016.000000,0.002000,0.000000
288.000000,0.002000,-0.080523,0.173234,0.192835,0.628257,-1.215621,-0.045261,5.848517,-6.294273,-14.386670,0.000000,0.002000,0.000000
289.000000,0.002000,-0.400816,0.416590,-0.615773,-0.046722,0.888097,-1.755624,6.580306,-6.963985,10.875446,0.000000,0.002000,0.000000
290.000000,0.002000,-0.326631,-0.051880,0.377392,-0.861730,-0.098008,1.629881,8.267746,2.654853,-13.752496,5757452915111525628235323547663427868258665247585784589265494180244960610539240674215364262557539274178685013698622782862975445364899328198338725461407650091818840576345743172829184.000000,0.002000,0.000000
291.000000,0.002000,0.446938,-1.588306,1.530665,-0.907157,-0.171523,1.128497,-0.686518,2.166333,-2.052687,0.000000,0.002000,0.000000
292.000000,0.002000,-0.220585,-0.099042,0.159698,-2.087817,0.883793,-2.388263,12.230734,9.398066,-10.135095,334567938054327657366008889914843074617730652699053125315599749383067145317050341702445797660377306844547460277342258049354846420263760315255944695607121240419443019181961071905912345904696420145924144877451508457668608.000000,0.002000,0.000000
293.000000,0.002000,-0.245624,0.167057,0.025654,-0.642492,-3.301873,-0.358657,10.843114,-9.141870,0.419088,398281375154169444950123824551788401756830045055408632641713852156560843469328681827419086552838668430921621834770503318224173977641768653527119219273707333786211123854913882094557892836726561704730832947642368.000000,0.002000,0.000000
294.000000,0.002000,-0.105220,-0.570430,-0.655958,-3.309920,-0.457011,-2.644332,0.804855,8.331829,9.038646,801606755627242301643945789691527168.000000,0.002000,0.000000
295.000000,0.002000,-0.121275,0.000340,-0.466648,-1.290055,-0.066358,-0.867605,3.484336,1.868829,16.760771,2239898862939640694862712734230806596540953989386015666035193106004933446895418976436708475763265796339387825003692032.000000,0.002000,0.000000
296.000000,0.002000,0.462571,-0.493197,-0.371493,-0.082876,0.985300,-2.936964,-8.632601,10.870245,2.253966,0.000000,0.002000,0.000000
297.000000,0.002000,-0.224426,-0.035992,0.134857,-0.739910,0.628423,1.182692,12.259443,5.569947,-8.606307,376357235101601373272343855693665583727045907982139266313892443045834420977586055813724627539096682192009505888584192891078867084070099316051484704379389447501239719612424762711105828267710095487538582532690744101776482400751822307328.000000,0.002000,0.000000
298.000000,0.002000,0.444660,-0.221951,0.040425,-3.955609,-0.196922,0.945305,-15.764929,9.727819,-2.800422,19246924327827044893366121498243866513505007821913011940434655480981225293737999492424984637571809200402294099222328354327551964051434157038228965266090015014435598975700566016.000000,0.002000,0.000000
299.000000,0.002000,0.582947,-2.670351,0.607788,1.061726,-1.143634,0.862077,-0.444527,2.048182,-0.466495,0.000000,0.002000,0.000000
300.000000,0.002000,-1.552440,2.354733,-0.731427,0.032252,-1.925369,-1.093971,1.185597,-1.784764,0.559536,52436202793464865454516420992206777932239664216321219032894738283779431749811755872572564411683809787904.000000,0.002000,0.000000
301.000000,0.002000,0.565432,0.662965,-0.001061,3.212264,1.725926,-0.739477,-8.999287,-8.654040,-0.591425,20321400373233000184102134325593444631157187244701255443869152717366007540944959977816064.000000,0.002000,0.000000
302.000000,0.002000,-0.332843,0.205608,0.869124,0.814914,-0.389010,1.609533,3.383343,-1.599851,-11.173335,615147459292352720160643225925039309243911986687381962142743729955331873612231804871141900399486803504037624312496128.000000,0.002000,0.000000
303.000000,0.002000,-1.798277,-0.136103,-0.727985,1.275246,-1.089003,2.053231,3.809001,0.375938,1.637892,1382065634567211121676117159434546626500769964585052611585482325484033184595473243091846276983014743806337661240837683664901967571155931663938139422166164184991928662278390367695162525311473887805707761109428294379372544.000000,0.002000,0.000000
304.000000,0.002000,-0.234104,-0.639420,-0.355548,0.597593,-0.796519,-1.105678,3.176488,12.580028,6.968444,0.000000,0.002000,0.000000
305.000000,0.002000,-0.477181,1.546211,0.296092,0.308128,2.376678,0.014141,1.431878,-5.177588,-1.124407,335056535088970083340680689875781850175254617507114591200319691885435017581594082811586903099667345574842990477748132936240457749332600764471391546826096205034398783969767139371249277231447350440877345493000877946434250586677368764521230670971406587653868802731251505926600011022336.000000,0.002000,0.000000
306.000000,0.002000,0.497128,-0.269252,-0.200489,-1.477608,1.225501,0.179592,-13.791892,8.974997,5.308396,378445461241799026049874351538918985969117591162849389516958943064394189113497384997809428465043145413276291628726139735992382248994256238540652260691076290203956410707968795901397514091701145448581061069628641499879149123690314072064.000000,0.002000,0.000000
307.000000,0.002000,0.180335,0.388133,-0.248420,0.048799,-2.929829,-1.773160,-7.572646,-12.636102,9.252317,97665379947024041297810845360238872676485268545589434457226823452383783762234692096660805445258025526630190987694462618828154060569011827227182629868678008790005669317597225155073856813402026042236312763513036450121861342773033041920.000000,0.002000,0.000000
308.000000,0.002000,-3.144109,-2.435016,-0.091066,0.087983,-0.818613,-0.306450,0.948875,0.728568,0.003075,0.000000,0.002000,0.000000
309.000000,0.002000,0.704008,1.691660,-0.077197,0.062154,2.663128,-0.495040,-1.975573,-4.342856,0.073794,30864850229524240462632590126823961258185137520762143266290182364500740534240478111130767683550590331640331820059701700196338461082438251036669522276956207445530749399915918780118563283139551837161897548384133380296233707167835004723701537851540043851654049126072786616320.000000,0.002000,0.000000
310.000000,0.002000,0.672736,-0.322079,0.442201,-0.124350,0.917794,1.693907,-8.871352,5.769554,-6.033044,0.000000,0.002000,0.000000
311.000000,0.002000,0.293790,-0.152149,0.276150,5.461399,1.694327,-0.798508,-12.490445,9.355429,-11.836879,25275765828308627678101213607358012875896486186041957554648583340268588028459768818434048.000000,0.002000,0.000000
312.000000,0.002000,-2.439086,-1.041439,-2.165435,0.394537,-0.128016,-0.472390,1.068112,0.531925,0.955052,361644752023804884762976059205149071285157888.000000,0.002000,0.000000
313.000000,0.002000,-0.374474,-1.274474,-0.669840,-0.904368,3.415150,-0.460722,1.371624,5.253039,2.583465,6603351488088542869512427172004824633161837132061512324115619920245905572442838008930754250596944181685574969014087005155951759195249607822648447986759277556179652471233222734249984.000000,0.002000,0.000000
314.000000,0.002000,-0.621628,0.906591,0.383758,0.548640,0.700380,-1.780496,5.545743,-7.776546,-3.289622,3461075420081819712870116387030473471256690688.000000,0.002000,0.000000
315.000000,0.002000,2.494266,-1.340080,0.395440,0.920316,-1.232622,0.135433,-1.855213,1.027634,-0.316665,11710827770981612926615444280779050936254596069077979065580232735558642999163238414518961280554481896936687271936.000000,0.002000,0.000000
316.000000,0.002000,-0.994104,-0.385583,0.530525,-1.124795,-0.502941,-1.746398,6.775043,2.940625,-3.886754,640057179107443403987624799549697205058015857138333827407468895950405396498349098094095729247751889769475082074699981097212493149738828070220274000941262650887589238058574318463412725818780847845268250648614603282628253095489827655850790050586868932891639808.000000,0.002000,0.000000
317.000000,0.002000,0.267419,0.459967,-1.086340,2.187154,-0.445332,-2.466203,-2.165047,-2.761233,7.700415,12679319364373093622705221292111174053434744998241532590486541404410963618071010964200868544512.000000,0.002000,0.000000
318.000000,0.002000,-0.411329,0.057648,-0.576805,1.194285,2.461808,0.964473,8.368492,-0.286279,12.780374,5626221800201347581265701957904002400462695118127680067278157224772850461704192.000000,0.002000,0.000000
319.000000,0.002000,-0.293622,0.010747,-0.078369,-2.719946,-0.689364,-2.602304,17.042229,1.189641,4.108349,2262682896871278546657648077388588768781158063518951592525530593230309359139258140388514721679483258137029122470572349405027933035912759858597128758398024174718927640055201069788633988936978678080263175463220287560307659728990107270467148578816.000000,0.002000,0.000000
320.000000,0.002000,1.124606,-1.996744,2.272680,0.309206,-1.776200,0.432552,-0.506282,1.088701,-1.161110,1280128310575874772265756212975175788131503298821303339696842708047955931386079039928737952721604716537935322879211886311639159613596110352498674659723275010063618111700992.000000,0.002000,0.000000
321.000000,0.002000,-0.227984,0.176947,0.072976,1.625277,3.192693,1.512285,11.675208,-7.258508,-4.849485,2261136014073369735315805021682718900058937906192202004819207572494517982034561202029657079930655465210465013567290708459884520793002944440161252400361262014809621482925454763336063991225138655188029933715985810280138194343673820071591936.000000,0.002000,0.000000
322.000000,0.002000,-0.821890,0.408613,0.281032,1.247371,2.006525,-0.270239,11.066665,-6.260715,-4.006041,50301110802774238683097021860793600332606601198410808293449419450916020441017160604581888.000000,0.002000,0.000000
323.000000,0.002000,-0.016066,-0.723469,-0.474096,-0.696584,2.416046,-1.011265,0.023570,10.843795,6.428620,0.000000,0.002000,0.000000
324.000000,0.002000,-0.456234,0.100053,-0.279897,-0.172604,1.088974,-3.014589,15.694287,-1.514662,9.781100,115927585016706439239145075156049762097090581015486684811005376584573948075713583614714237965568668903228752098880909213696.000000,0.002000,0.000000
325.000000,0.002000,-0.557342,-1.328361,1.953744,-0.695105,-2.264031,-1.557561,0.634165,1.532674,-2.242249,95803358336401160368522458268958720.000000,0.002000,0.000000
326.000000,0.002000,0.336413,-0.412333,0.759147,-0.971079,3.841876,-1.152316,-4.724647,5.122970,-8.355192,7610862141898344032916410146439591359168600085729762281417543745189936682221115305329899566121337557976705372735856041491101191370951153943639257098103890876386747771373721605895088173923494426743059938085071133138060616968441998141977439993272381826437191358307613843465961472.000000,0.002000,0.000000
327.000000,0.002000,-0.065902,0.253915,0.228204,0.316797,0.229610,2.169764,1.866355,-13.354098,-11.831662,315156394060031760642935255233200128.000000,0.002000,0.000000
328.000000,0.002000,-0.246356,0.132734,0.054072,-3.400603,1.987950,-1.213145,12.253043,-5.639475,-5.364340,82957422835956345330427980878977691549696.000000,0.002000,0.000000
329.000000,0.002000,-0.008529,-0.105546,0.085811,2.915344,-0.768438,-0.486715,-1.213989,9.890597,-6.611779,967263385487269205212993026274835169413308245019224964028468316369706835627201923420095625875323272800754999024162359476224.000000,0.002000,0.000000
330.000000,0.002000,0.275868,-0.782034,0.016822,-1.445615,1.357872,0.500804,-4.247215,12.069006,-0.575373,42075565646882879251593688010255155855981001847356218170639545222300991777382803009465015557521488290432260459929465257984.000000,0.002000,0.000000
331.000000,0.002000,-0.046476,0.071915,-0.235627,0.742410,-0.265265,-3.388821,7.510520,-7.061210,17.655811,115815502617840763880344499812521331172632857240102598868992.000000,0.002000,0.000000
332.000000,0.002000,0.329430,0.710240,-0.022964,0.430560,-0.254111,-1.096189,-5.726736,-13.167869,-2.395959,1062476776178381478465444436508960697565047505827172054331971435269284138665400127745896658059561316798656312647196356391817373094433587497222353619852298565120425984.000000,0.002000,0.000000
333.000000,0.002000,1.305646,0.295572,-0.446212,-1.059329,0.139899,-1.654960,-6.094921,-1.290921,1.880547,23210120666099276733950984115261286730078356127100210553654118068592846146143418721914720479907039116736826703872.000000,0.002000,0.000000
334.000000,0.002000,-0.675996,0.825509,-1.318689,0.629875,-1.102418,-0.301129,2.175971,-2.468135,4.223765,57229148375665536.000000,0.002000,0.000000
335.000000,0.002000,0.028092,0.065544,-0.090810,2.209183,1.718295,-1.217589,-4.089166,2.154266,5.642262,23413772317412881482572964681521427928614315142581467375141320485236240089526289376590403180999667458478487680968554702932255464798402909223157015578486378473038282752.000000,0.002000,0.000000
336.000000,0.002000,0.146250,0.409465,-0.195537,-2.204533,-2.452949,-2.301520,-5.851605,-14.630996,6.024850,1062490779856852457370306798918602109493007930389051487835668650412964822395519988109609311165118743102756412633025416374800675301921170928772336418757981023038865408.000000,0.002000,0.000000
337.000000,0.002000,-0.024529,-0.366724,0.154391,-1.154110,-0.596582,-3.154142,2.771133,19.790290,-2.022578,12510445699288148334734283554016938113621965902616827074790128595276280229909157956938199093452826460969912693594357590974632285439450433018247836740337991952690339429800504151527765764336469424159165450499862498333120038864778160236749679127547854069485705101312.000000,0.002000,0.000000
338.000000,0.002000,-0.929990,0.914624,-2.978856,1.070273,1.132370,-0.927243,0.524944,-0.453534,1.634790,3487641095408839758347807353215055634183210477201075969689332265584330566775137877513903313734344395410654239924330930392124392236297883696360486374135274903735107584.000000,0.002000,0.000000
339.000000,0.002000,0.295980,-0.337933,0.028545,2.732194,1.631142,-0.276429,-12.635918,15.498166,-4.937234,666724675303931966013885248700380978434132241551676393008798294859870316748019557309099541975977726931277687032164865997488201109822890256717704368834341062916653566351836318445005130029741375488.000000,0.002000,0.000000
340.000000,0.002000,-0.837121,1.235483,0.562481,-1.202284,-2.606054,-1.444283,3.072649,-4.554787,-2.109539,10369214349260755296355626157350355891290269283369857678799919575324091059014670979886974378687565583449148999366277366692108335331342736672647572802718040825955082175044368394538872908139090092640372242397457676093177979805758617636831232.000000,0.002000,0.000000
341.000000,0.002000,0.125640,-0.286363,0.064771,-1.243723,2.263816,-0.209353,-4.687009,19.753174,-5.317913,0.000000,0.002000,0.000000
342.000000,0.002000,2.479582,-3.152704,0.017729,0.071287,-0.140510,-0.952997,-0.812195,0.970721,-0.004214,0.000000,0.002000,0.000000
343.000000,0.002000,-0.078302,0.740961,-0.314619,2.803640,-0.839257,-1.454362,-0.425456,-11.491672,7.568289,0.000000,0.002000,0.000000
344.000000,0.002000,-0.564650,-0.014480,0.008836,-1.535110,1.175023,-0.697373,18.177308,1.489088,-1.261993,999726735360489921246764096347837272297260994832897113632651266970814859686308913194390700925752657316383112148076447399936.000000,0.002000,0.000000
345.000000,0.002000,-0.645956,0.181324,0.112400,3.505597,-1.817943,0.877132,14.432964,-2.429889,-2.750275,633953460794.480835,0.002000,0.000000
346.000000,0.002000,0.043343,0.920636,-0.162873,-2.789115,1.886679,-3.259191,-1.279298,-12.621384,2.750046,0.000000,0.002000,0.000000
347.000000,0.002000,-0.035500,-0.599961,-1.029751,-0.463814,2.959811,-0.850637,-0.056345,4.074105,6.681954,2362666634629195207945849804163882079821789842549478205169343454822422570434874374917150992566643832244766681542445632614707689671206563823429856723754099841382240876287465804893730307616122080524316053577939310733725683938236251149382861074772112164526646886400.000000,0.002000,0.000000
348.000000,0.002000,-0.349595,-0.261022,0.567331,1.413830,0.857463,-1.425472,7.814688,7.462948,-11.749609,0.000000,0.002000,0.000000
349.000000,0.002000,-0.731745,0.360083,-0.831410,0.952557,2.068010,-1.500670,6.312719,-2.583375,7.095688,124239058982027261925794300659111456746111291841352450003148297006981085695204396144728989015392513023138500357334614337914441599710489015773774531907835298027443582669368713768527268570269437050627947839172152255828673014266578653714928933115716938086945967797439503007744.000000,0.002000,0.000000
350.000000,0.002000,-0.738463,-0.461326,-0.265332,-0.430507,0.764705,-3.041917,9.875997,6.868340,3.540260,12850453878857854276959956829566132344937716981724784474207019013455017023647826809492417506555066523269743242511384576.000000,0.002000,0.000000
351.000000,0.002000,-0.198870,-0.834851,1.255023,-0.675352,0.564536,-2.590625,0.588060,3.448480,-4.746529,8037067732825838914063354633436033815398223025437639380187145515641662081722076242196641541216339142524454020928015349625852060479350905919698503373518774364803663759272943380625127916806878502082879789752030462786643335388856320.000000,0.002000,0.000000
352.000000,0.002000,0.737121,2.896703,0.638035,-1.282819,-0.996624,1.583730,-0.533817,-1.856355,-0.445194,7480978102960873438215249820601373241264511548090399374313068418080477518461118512139908817438419511864935358081094715248614223862272426323193643191921708675855965323842983386023965386695008823263905719806997165980285094101110078972527074019565761462272.000000,0.002000,0.000000
353.000000,0.002000,0.355751,2.313992,0.531201,0.845277,-0.888322,0.208614,-0.525298,-2.813479,-0.718061,61272789996775090460270765351082134493947526651582743982769683972732108045473436686953909096248149583551277301760.000000,0.002000,0.000000
354.000000,0.002000,-0.216523,0.183951,-0.654218,-0.263572,0.044134,0.505591,2.887689,-3.089208,15.109198,2411186653668037022948163907330018093672582435451610116335095050392095466409025677484418376112490194835341312.000000,0.002000,0.000000
355.000000,0.002000,-0.038809,-0.096409,-0.059099,0.527293,-1.006817,-1.570269,2.695857,10.129151,3.502922,0.000000,0.002000,0.000000
356.000000,0.002000,0.271122,0.201582,-0.047976,0.618663,-0.084009,-2.587620,-15.381051,-7.098741,2.043256,0.000000,0.002000,0.000000
357.000000,0.002000,-0.256218,-0.881457,-2.554408,-0.227561,-0.377592,1.139424,0.205128,0.828936,2.213232,523797406290110140753848516132995072.000000,0.002000,0.000000
358.000000,0.002000,0.697011,0.091378,0.745971,2.425026,-2.246426,-0.892025,-7.438072,-0.354787,-6.865489,11936531908306765970223523738202753230711138727696038072472784754643811058791584225630787020050781484380216550942122530457181129700160366957352818657988622417920.000000,0.002000,0.000000
359.000000,0.002000,-0.038444,-0.510539,-0.458579,-2.763774,2.730949,-0.368714,-1.899906,11.163830,10.898312,1324341.289863,0.002000,0.000000
360.000000,0.002000,2.064233,-0.343075,0.099693,1.425505,1.174488,-0.511663,-3.471573,0.562903,-0.156667,661712793882221484029243640526307127233796788909173340728514009658170104691698597503055675646640273296228766880444173133816009523861983551278928141080577579500258863792872312799232.000000,0.002000,0.000000
361.000000,0.002000,0.186302,0.332574,-0.127539,-1.102285,-0.155231,-0.539447,-9.102241,-12.934630,3.853031,3923012554413722768259833224574100730879986626274417948474829535444992.000000,0.002000,0.000000
362.000000,0.002000,0.049051,-0.246970,0.153490,-2.080890,-2.630794,-2.178758,-3.306558,18.888829,-9.388529,22870824352071088.000000,0.002000,0.000000
363.000000,0.002000,0.762392,-0.288605,-0.257863,1.188010,0.398711,-0.954071,-11.614071,4.806201,2.833019,33240174724731583738408848842262116947627948937002022428687204352.000000,0.002000,0.000000
364.000000,0.002000,-0.740218,0.229536,-0.010593,1.945804,0.763684,0.910083,15.194296,-2.904329,1.478130,128999088067258020966255539168001095776548212290997120235713321082694156965094936832255335562477568.000000,0.002000,0.000000
365.000000,0.002000,1.171690,-0.156265,3.723713,0.648555,0.035729,1.067223,-0.309328,0.060772,-1.147974,0.000000,0.002000,0.000000
366.000000,0.002000,-0.112413,-0.119217,0.246009,2.222095,-1.236604,0.673073,9.051561,12.405945,-13.085556,850490111587341120706694722147741238824982157579188536082548268209565965844817577817585880538373639950940560316878087368984276564459838879399341077256432888749596912648192.000000,0.002000,0.000000
367.000000,0.002000,0.006492,0.006241,0.776788,-1.381749,-0.199047,1.656253,-0.592685,2.034972,-14.963855,86175425620953672893054785626643506298740072068262224817198989312.000000,0.002000,0.000000
368.000000,0.002000,0.841890,-0.022239,-0.772411,0.668643,-3.705147,1.260962,-6.802076,0.383014,5.939619,17799101508903290292411568355377115009323108092523392164854150209079589556697558993104467327434085803259462161233162208595148800.000000,0.002000,0.000000
369.000000,0.002000,-0.162866,-0.066990,0.192545,-1.347290,-1.384411,-1.095953,8.873840,3.950024,-2.438024,0.000000,0.002000,0.000000
370.000000,0.002000,-0.158350,0.200199,-0.871162,0.016434,2.555842,-0.718913,4.360286,-2.379458,10.660493,0.000000,0.002000,0.000000
371.000000,0.002000,0.140947,0.361946,0.327852,-3.449479,-2.003001,-3.268290,-6.872179,-13.677238,-13.723879,2231439834987981555474041136672554063780406989503508937407113244936254389223424.000000,0.002000,0.000000
372.000000,0.002000,-1.388131,-0.314477,2.946333,-0.713250,-0.528546,1.770403,0.712973,0.183763,-1.514966,0.000000,0.002000,0.000000
373.000000,0.002000,-1.316394,0.412900,0.177181,0.893959,-1.102328,-2.305505,6.798052,-1.883616,-0.929016,189299662902255165821994516893743112111735710328459363261138645473076053488751429155857340585429261469617024706838842899705630532118400943680858308375203878685342706240521061514250027008.000000,0.002000,0.000000
374.000000,0.002000,0.404010,0.217716,1.169235,1.037909,-1.707194,-2.028047,-3.409030,-1.241186,-6.991563,1151537466189271400448.000000,0.002000,0.000000
375.000000,0.002000,-1.061490,0.525155,0.020746,-1.590971,3.206930,-1.878983,8.621196,-3.799912,-0.191522,93321374754229112876826624.000000,0.002000,0.000000
376.000000,0.002000,-0.128109,0.134268,-0.011251,-0.227337,-1.630152,-1.788327,10.865526,-1.055568,7.779760,779207964869425353121041707550899601498177536.000000,0.002000,0.000000
377.000000,0.002000,-0.280532,0.545860,1.900636,-0.412963,-2.036269,-1.544371,0.549245,-0.963601,-3.748515,0.000000,0.002000,0.000000
378.000000,0.002000,-0.072818,-0.045899,-0.340426,0.761937,-0.316638,5.602219,7.211781,4.294480,14.731694,0.000000,0.002000,0.000000
379.000000,0.002000,0.176146,0.301898,0.125006,0.117474,-1.380884,-0.791207,-10.330174,-14.399813,-7.353349,0.000000,0.002000,0.000000
380.000000,0.002000,-0.161287,0.120277,-0.294819,1.007174,3.488616,-1.881566,3.252905,-5.605396,16.886055,817920764798749189449977362380856490816772265473273884862467240193513771309094722058468905558473328592737139632230041635420309747211744315969988639960277597855895878728452317555113350952013873945544984105926346558011083338022912.000000,0.002000,0.000000
381.000000,0.002000,-3.739083,2.045065,0.798618,-0.750699,0.640510,0.032884,0.912209,-0.491243,-0.194259,0.000000,0.002000,0.000000
382.000000,0.002000,-0.602878,-0.493054,0.155199,1.619369,-1.301867,0.942722,10.249558,9.251343,-2.742478,0.000000,0.002000,0.000000
383.000000,0.002000,-0.106384,-0.069656,0.433600,-1.336777,-1.451318,-0.356576,3.319298,3.898831,-19.918310,8503438436632642932732739874133511359157078790915815605277341110563257372752281434010879239315907483435934356309273460850046938013697210370508336796957304483643048813307729904181360930529344554552475481480024293376.000000,0.002000,0.000000
384.000000,0.002000,-0.067796,0.448910,0.441711,0.511345,2.611204,1.277051,0.687032,-11.982882,-12.639805,775036864362026679415075750162017176504360668037527437767837497928624128624234632043507284248553927209123536904349345450447410725203955867253778381373466532380105921826723904773106335294119166563406704448557885707261051790954567570850614375339940133586999879229087229165368778948608.000000,0.002000,0.000000
385.000000,0.002000,-0.376679,0.126758,-0.243272,0.647628,-0.714082,2.069548,15.533520,-5.022822,11.655315,591141510568069622339108747735246392361834730666643369692659092433494815867979795740472263390988566647567287488313849307579561188954598094592489311190452173459178376751850646844241755915583400662157864884449061577287070262079354053006651473803614097919986891944361984.000000,0.002000,0.000000
386.000000,0.002000,-0.310994,0.037021,-0.137585,1.904896,2.253850,3.253118,20.349550,-2.126302,6.410252,0.000000,0.002000,0.000000
387.000000,0.002000,-0.228989,3.521546,-0.599267,-0.511225,-0.487746,0.433755,0.100306,-1.485062,0.218752,2339591140676702991374278936847079924696106007762426277851887733406366632317311905860678620537780283773835734910289604329649565151559073680433566674683133365388013252132076512130271328768487029762035262125092678270427127761977590183206483227545499074560.000000,0.002000,0.000000
388.000000,0.002000,0.056642,0.123263,0.058901,-2.710766,-4.283688,1.505909,-4.053767,-3.856437,-2.792559,0.000000,0.002000,0.000000
389.000000,0.002000,-0.053472,-0.293779,-0.758251,-3.226474,2.618628,0.304544,-0.300601,5.484613,11.939208,29240702756865852856183151378953377300747490856870306914191271548835759760876314438854201917448659058564460969984.000000,0.002000,0.000000
390.000000,0.002000,-0.633800,-0.554755,-0.168311,-1.452335,-0.619508,-1.176653,9.255037,9.100801,2.557191,0.000000,0.002000,0.000000
391.000000,0.002000,-0.210725,0.318411,0.305235,2.176619,-3.395133,-3.160905,6.803595,-14.954315,-13.245733,5618002621727162279564181110795738285169007887087611443024294266099800458919936.000000,0.002000,0.000000
392.000000,0.002000,-0.036082,0.683367,-0.078500,3.048060,-1.871299,-0.921048,0.699701,-16.592463,1.832731,4909655353618479.000000,0.002000,0.000000
393.000000,0.002000,0.083714,0.323823,0.689706,1.070478,0.845576,-0.245811,-2.390705,-5.518956,-13.256529,377821700848622280983043157883499827910133673774214992596045209635390745591694154361938450717642237673482824570477144884548595963800637710544917626619276966418318179140838318502138914293225562219751150337392640.000000,0.002000,0.000000
394.000000,0.002000,0.350961,0.755422,-0.417229,1.062255,-1.726002,0.137355,-5.399919,-9.959570,5.340348,328312654773068022638251172240864023316368597005130916200185797595985805735481572365159705498197694092852936571411393135743423932395848465547872291066121639952384.000000,0.002000,0.000000
395.000000,0.002000,0.467684,0.410688,0.976484,-0.170895,-0.341093,0.361519,-3.866063,-2.935167,-7.831752,3709526.838113,0.002000,0.000000
396.000000,0.002000,-0.262774,-0.113685,-0.088944,0.633040,0.751327,1.649187,12.408869,11.949227,3.171805,597256369202259537809662845369065039736399585036035047007727265861686140458264827925578714887626951238739653121070345552131081559395448839867551387934470894916212413897496202393378331590515490474829470685278305236165437511696384.000000,0.002000,0.000000
397.000000,0.002000,-0.558795,-0.469874,-0.129168,-0.191182,1.702936,1.420603,10.738225,10.425250,3.187655,297987970220329767920000304558286513820111852527473379022344504862885237730610430300183259905258077826475275971535284048785167256823903843230429502544823051846121507712513278476288.000000,0.002000,0.000000
398.000000,0.002000,1.996169,-0.228456,0.247121,1.702188,-0.237127,0.351440,-3.632731,0.446568,-0.558332,851385176177208157447104844456839274365406826537401705804267996270127075425600167855437859267986007090218716304026518180248422795251603507055204283662405162435908025096974737881546505043956704165183752696477810095756667959236429293450665578612221353439098730469916672.000000,0.002000,0.000000
399.000000,0.002000,2.118465,1.925423,-0.081327,0.688310,-0.334420,-0.300766,-1.618421,-1.389110,0.140402,0.000000,0.002000,0.000000
400.000000,0.002000,-0.859712,1.854747,-1.322584,1.194774,0.775638,0.110026,1.018357,-2.252204,1.649184,4750892051254774947595693002419921246291419652432660858772763721502610945292694194214102413271274256683563890641869395037951795499556649152202768626303062914029020319099912192.000000,0.002000,0.000000
401.000000,0.002000,-2.099527,1.827626,0.230934,-1.528788,1.990815,-0.254837,1.821532,-1.510670,-0.250016,10255973123871127341207030439304159626786161176563981245320373310845071293090673802034167447205762775083881832192429205530348786293220417577591480513045441509273414731142557101953635631302115339917585705506318022626604740270773669472501760.000000,0.002000,0.000000
402.000000,0.002000,-0.209600,0.754907,-0.552505,0.536479,-0.170209,-2.686970,3.324815,-9.405474,6.915206,0.000000,0.002000,0.000000
403.000000,0.002000,-1.463520,0.593212,-0.695678,1.152604,-1.584181,2.373861,4.422411,-1.592434,2.177372,421425092978499379114075324608650584580790841671144174048895962185728.000000,0.002000,0.000000
404.000000,0.002000,1.051825,0.951784,-0.358398,1.017416,0.896977,-1.315909,-5.085972,-3.797312,1.307162,416073796857654336189447123564226676578686655375932289081751800693630977824034200162307718351159296.000000,0.002000,0.000000
405.000000,0.002000,0.037992,0.017652,-0.107718,-1.223724,-0.899838,1.673452,0.751112,5.159182,4.221521,474933560049480043667324105703764672824608590659584.000000,0.002000,0.000000
406.000000,0.002000,0.113594,-0.045442,-0.167239,-0.530666,-2.008718,1.080892,-9.387833,7.256680,10.117537,2882048357635212694754556674255286794527849728366673566776965352757964232173453177528338442164441499584547930380895094104625526765843377245510890258573350358941666671213081379646404920730796677157057454214310667247301314581000515095187773813090270754612841545728.000000,0.002000,0.000000
407.000000,0.002000,-0.358451,0.118211,-0.347226,1.720607,0.157224,2.413293,13.836626,-1.228757,10.005115,42136909966407870135991855316565242789997365012994640574159781415880652778277761325973151014245177067686102328456249344000.000000,0.002000,0.000000
408.000000,0.002000,0.354931,0.225438,0.168849,4.261292,-1.303658,1.805911,-16.915915,-8.824543,-7.142602,609439260510613709762894518180799057964702020538038070896278455035340878701750048945664483363330921883076907965722938454682784950061786406641508164346290511571581596401116534272475557813706114598173058686086552661523867015226592692451706411881870604820807680.000000,0.002000,0.000000
409.000000,0.002000,-0.751729,0.250479,0.219578,1.702978,0.977334,-0.270823,12.710652,-3.263009,-4.968407,3923012554409799579675216549096703362490481834764353976322039513874432.000000,0.002000,0.000000
410.000000,0.002000,-0.542887,-1.617392,0.321368,0.150787,-0.335320,1.652398,1.379667,4.178803,-0.925212,26965448281853546070115100969731210974609022186715253204159559124453033154596401526999754520777174630226717807732225351182139853574260639620635929137579115944036056519195402426526490911834112.000000,0.002000,0.000000
411.000000,0.002000,1.069188,0.584715,-1.048151,-0.602311,0.361818,2.310867,-3.756113,-1.970589,3.690869,44535436515288729152514079869035635456857653114882032796650620834145399462814671550330992331687016465469276910419226372287303654002676234677117300817786598159389702282867859611482594306366115743742873489700120729220431424923831616649835810698297344.000000,0.002000,0.000000
412.000000,0.002000,-1.780821,3.786991,1.711125,-0.676744,0.117435,0.567082,0.388091,-0.821052,-0.374314,372855170188694635192800881292182542502424233647005362832932634891136860839738530318308628852630444071254005222978831285677978079339184704897572443045066680618219016150538687905561139051430412288.000000,0.002000,0.000000
413.000000,0.002000,-0.316759,0.278497,0.022579,2.094400,-0.321664,-1.409352,15.146481,-11.107116,0.843989,44535436515288865774106202331421928567052637815106895402620127103447179699394017842814828732853013582769253831309286015207605001537118377776161182921453045256669905906808109603520484141157804167088009070363265352364360471973081695220358946511388672.000000,0.002000,0.000000
414.000000,0.002000,1.923068,-2.230098,0.724271,1.523874,-0.104957,0.952163,-1.194753,1.384783,-0.438753,44049631551609215406619890502143572279009486371716077739174653049503198954124549487302219970317668761548879328495167205172662363273965267649422743249239432506719772596669402177799727120150557148204093835136497697903589757582912607586626268567699456.000000,0.002000,0.000000
415.000000,0.002000,-0.224540,0.065721,-0.254251,2.451942,4.448670,0.975256,12.579881,-9.142477,10.765597,0.000000,0.002000,0.000000
416.000000,0.002000,0.133564,0.320604,-0.155261,1.514399,-1.682461,4.683290,-6.471505,-14.131879,6.345586,96261636111620996336589651119471532028896189874176.000000,0.002000,0.000000
417.000000,0.002000,0.113052,-1.090017,1.565740,-0.035336,-1.987283,1.435209,-0.368831,2.209145,-3.649490,2064783054916940923058280984158718097448201261707740358621886378834510008741152540359135216715346364598746458476911074498598272983597104528521553825754998785249988690099598433805572045435369702655383802952712250648025382684498066463376149577728.000000,0.002000,0.000000
418.000000,0.002000,-0.447253,-1.088930,0.712393,0.165466,0.952798,0.473743,1.933209,5.336007,-3.556786,42116780174885185400499504871331144549304901813269269521053229698884146952788857463635539334368129079440076253328123625472.000000,0.002000,0.000000
419.000000,0.002000,1.719990,1.591219,-4.059899,-0.892900,-1.306685,0.243045,-0.340097,-0.296526,0.797536,0.000000,0.002000,0.000000
420.000000,0.002000,0.069366,0.133152,0.230983,-2.719725,3.457903,4.627853,-5.734680,-2.841181,-13.302705,125788593103937560099970763786547032524109358644620570398125694892038419432589537053781708322004948679395771456909243128101770164295978062066178148231441405192142091052624866920399934887582369003576991528069090020111700360688507551744.000000,0.002000,0.000000
421.000000,0.002000,-0.167002,-0.087986,0.553504,0.948005,0.322083,0.702960,3.723331,2.378330,-13.225762,89655327870048281720929443152658432.000000,0.002000,0.000000
422.000000,0.002000,-1.471413,-2.607892,0.862210,-0.306667,-0.798071,0.166673,0.828695,1.535154,-0.498081,61233088686991915555271300671693522262187654019357003559529656676764884766659591205151024342740764229066859479040.000000,0.002000,0.000000
423.000000,0.002000,-1.897440,-6.275013,4.992456,-0.167578,0.204821,-0.117514,0.065842,0.221106,-0.175235,913548605753165736167660189753452095505307910152489838646095965733201286910112823716536147285273534633107813266607043716411906958525644447608210430695719690821930591968472952616405587983969981903038054400.000000,0.002000,0.000000
424.000000,0.002000,-0.834584,-0.068935,-1.026699,-2.783436,2.076670,-2.374774,4.664882,0.953757,6.136093,0.000000,0.002000,0.000000
425.000000,0.002000,0.738280,-0.310338,-0.478101,-1.999385,1.128187,-0.843532,-7.836745,3.663403,7.422549,1426174661316323773816469153727143984596367691349128720870010932690944.000000,0.002000,0.000000
426.000000,0.002000,-0.237748,0.264504,0.203620,2.749942,-4.152638,2.303588,8.391949,-11.380858,-10.614676,18590403577401779898332036320614904369570058353076468451982991240790154233943498213719150126317361275860237639380154835727197483662423833956250689492482790478183487913624085270829557799746090327181031847020580957441190325020345913255078822330499072.000000,0.002000,0.000000
427.000000,0.002000,0.519273,0.232776,0.133615,0.352426,-4.974451,-0.936768,-15.990866,-6.460712,-4.509766,47314962104389444418918139633726759370752.000000,0.002000,0.000000
428.000000,0.002000,-0.485893,0.711201,0.280835,-0.536159,1.641857,-3.031130,7.936456,-10.558743,-3.385777,313830984097.413696,0.002000,0.000000
429.000000,0.002000,0.234006,0.366997,-0.161979,4.008626,-2.138212,-0.594339,-11.607926,-14.773766,4.825353,2591872017139434917812508767846351079497714756432471063091946888965095133802245811824861039788244449966811609892531663275512221890669149662606491526083618618247963695175785276245810472156942400725666348719275622644056679735795349708603392.000000,0.002000,0.000000
430.000000,0.002000,0.213406,-0.234488,0.670351,-1.225379,-0.025410,4.639535,-4.850949,6.727180,-12.198428,0.000000,0.002000,0.000000
431.000000,0.002000,0.211758,-0.115916,-0.297723,0.332333,3.056038,0.691844,-9.888681,6.279275,11.371955,5978851723488426862154813398578763624930052835705048786572037853512159215049944712384467512044364110620654709903447895336940585113745236021287271112005995834798412363426256987105959820132352.000000,0.002000,0.000000
432.000000,0.002000,-1.586969,0.702082,0.233004,-1.537968,1.420325,0.006098,4.580457,-1.894028,-0.632000,21115659012440410936049664.000000,0.002000,0.000000
433.000000,0.002000,0.039244,-0.349433,0.100357,-0.242743,0.937062,-0.387799,-3.097515,18.290401,-4.344598,6975552292141855648462375746546832499463972874404618554028984439512685289302265417473502219792823887405675687918312098302406547063875750172345574625569139538826790437386443384334994484426436440453829269763906766997141590422757587912420000568647163661814997061704651504665755648.000000,0.002000,0.000000
434.000000,0.002000,-2.874744,-0.066939,0.960766,0.314054,1.783281,1.378363,1.876675,0.091429,-0.693654,81579824658705870405365471845023744.000000,0.002000,0.000000
435.000000,0.002000,-0.153023,-0.492352,-0.116499,-1.486355,-0.271603,3.640087,1.501902,16.556715,3.632322,0.000000,0.002000,0.000000
436.000000,0.002000,-0.522700,0.344554,-0.533598,-1.784290,-2.461342,2.814963,9.024392,-6.085618,9.535600,0.000000,0.002000,0.000000
437.000000,0.002000,-0.109316,-0.030531,-0.670801,0.349608,-0.278848,-1.564576,-0.600213,3.753784,15.248688,3247134719909989718036177958725023888688910329308195503227752267446580710522263356517729666695631470592.000000,0.002000,0.000000
438.000000,0.002000,-0.105601,0.031828,0.392439,1.181065,0.107816,-1.609297,3.292771,0.927053,-19.149631,2327838514810677736837577269554283830068586026812656900771522678446293138896797902163674747564453772186731523150461706166176971627942279011269653079263477889419444224.000000,0.002000,0.000000
439.000000,0.002000,0.230240,-0.269440,0.068725,-0.758455,-3.202031,-2.596240,-11.722669,14.758606,-4.970389,284414823257665857909342815678698938039468589842432.000000,0.002000,0.000000
440.000000,0.002000,0.091682,0.178988,0.605130,-2.256445,-0.580486,1.758416,-2.695707,-3.021905,-17.611188,485565089328902187354498820858245840137271568569546875815054367685777408478617307694213182368251904.000000,0.002000,0.000000
441.000000,0.002000,0.022857,-0.360391,0.656519,1.154183,1.420937,0.470518,-0.958848,7.203821,-11.644647,167421199173486507521550551201943502311156085437938514036037564543204315262320645663453611875874992854099537428480.000000,0.002000,0.000000
442.000000,0.002000,-0.018279,0.643067,-0.117465,-1.485808,1.393728,1.637026,-1.204365,-17.159920,3.928374,0.000000,0.002000,0.000000
443.000000,0.002000,-1.193592,-0.579342,-1.019145,0.196711,-0.411394,0.594516,3.630474,1.892379,3.121998,0.000000,0.002000,0.000000
444.000000,0.002000,0.133927,0.207507,-0.270943,0.855836,1.348801,-1.369730,-7.143577,-7.083643,12.891048,6064062968387916630435018813240036318917512236921991371865742779969015724211061547491985157021584827679564618974047060493005256918664388928989935253777293921839032157241745844952560299746432201645271023616.000000,0.002000,0.000000
445.000000,0.002000,0.183645,0.126297,0.157533,-1.773700,-1.439021,3.111441,-10.216605,-3.468439,-8.070283,0.000000,0.002000,0.000000
446.000000,0.002000,0.380572,0.775413,-1.102166,-0.159458,0.479147,-2.016776,-2.165279,-3.845230,5.601747,913548605755381516196616476823442806105073365357090389136341131221947541479505190202466289250875801981719405321541043768735948138882770303532770022990159169955294218573448607012394639998606787930119733248.000000,0.002000,0.000000
447.000000,0.002000,0.368679,0.297003,0.064661,-2.439647,-1.713338,-1.710990,-15.734088,-10.061408,-1.266672,5089153545462474000218615488450375017389657306362650469805882137794341614360170441803357850695059073952729175488822629193655184092376803790113384741174604024596359747799620836452440624014830943319488458751056155913532992431415116046022347314518166601728.000000,0.002000,0.000000
448.000000,0.002000,0.420614,-0.412146,0.573736,0.967039,-0.617933,-3.759906,-5.849558,5.658183,-7.823461,1817311633668053951693692994372066580357222500814063763958571977249851598305991493381310539954838233560991915106300384473730991629396481855678697507230359061603293615754407512736453567728229842172701048832.000000,0.002000,0.000000
449.000000,0.002000,-0.221234,0.458645,-0.364640,0.664063,1.687632,-0.588876,5.445702,-12.130875,10.109536,1146784571852827077752736031637287679108413230099638128781177825174528151883020047395789781237351546490461312688412686275212763132631268933353500468965264860594273194582883160475040453871800418304.000000,0.002000,0.000000
450.000000,0.002000,0.159760,0.441119,-1.471874,-0.633867,0.833067,-0.085190,-0.746560,-2.078180,5.348577,5981027262631211725350786003246089462034068069765928603643604856366198963359115675474427319121548361479162342552688141042202598584518839861130465404833082146422046131766444773295688859516928.000000,0.002000,0.000000
451.000000,0.002000,-1.519767,-4.959880,3.538527,-0.686916,0.908960,0.718176,0.116999,0.391358,-0.280118,784562585759773324188244337996278393438064106152870287893713847443075378674817372041540566748790302745559040.000000,0.002000,0.000000
452.000000,0.002000,0.689804,1.090200,0.015772,0.598582,-4.274132,-1.187019,-4.537513,-6.863994,-0.085797,0.000000,0.002000,0.000000
453.000000,0.002000,0.042850,-0.106425,-2.456579,-0.750702,0.299265,-0.081806,-0.064614,0.167898,2.897111,4609428323797067410398832708810718068328474516837882407159445745728967493528230738899695904237375508710786208262020138609992544433093845437432893660949262710266836628277882263455273822471553867193037392816735176783089331339264000.000000,0.002000,0.000000
454.000000,0.002000,-0.173305,0.192434,0.231712,2.740494,0.793979,-2.830143,8.444987,-7.299305,-13.467045,603469129282754110208423218901112245964262703252103820514354714448089755665122686197414476460783636673701325419374859487277474860232949211049743061782783729687381705077148866189135005988569318230134416204095927564089545116137864298496.000000,0.002000,0.000000
455.000000,0.002000,0.264668,-0.741945,1.136294,-1.249824,0.534198,-1.941567,-1.022267,3.863986,-5.492685,1115670336713001046870835587451540948245525054992502848593450288177462272186029179600578344820846224596421753257273690596448149181305324602813571133942141301544212243225910941947973725981288538315355674574705769652350124190806652291030371946617414615040.000000,0.002000,0.000000
456.000000,0.002000,-0.332064,0.189821,0.061823,-0.750530,-2.321797,1.167120,17.359799,-5.141897,-0.713809,15059683436904460207474995081140856642980014822350905792178417727399713692015742727607414778486697920612886950793858670847315528305402268404166835611142151042932670464.000000,0.002000,0.000000
457.000000,0.002000,-0.086980,0.057922,-1.739799,-0.332771,-0.566201,1.950780,-0.017512,-0.079559,4.680185,6079689825014064833357060900515435078204069278811705744940608606175232.000000,0.002000,0.000000
458.000000,0.002000,-0.227094,0.594521,-0.441638,-0.761430,-2.134568,-2.011468,3.544319,-10.901099,9.068997,63668885536235908627344877409930400209319363151264003778315148756939889444511675941121096928526546622779192493385623870082575146034701453037733379167489206195516224873225657987081257666953585745902675498684351621544149489712438102867832133474320384.000000,0.002000,0.000000
459.000000,0.002000,-0.896731,0.714893,0.003703,0.756750,0.483646,-3.197076,7.700597,-6.396617,0.009955,10115523738598505988531244726043583985014965619612929968132774451740672.000000,0.002000,0.000000
460.000000,0.002000,-0.259256,-0.028344,-0.047041,1.509608,-2.320264,0.382617,10.913695,4.631977,-1.267440,3297623845904689519021138500342102647288177818686271622486716435035568416155725259568702291968.000000,0.002000,0.000000
461.000000,0.002000,-1.140749,0.262574,-0.091149,-0.253612,0.682082,2.240019,9.641171,-2.090136,1.521859,1116803759446608167650860033440061747147794749195972757203707052465703614413908475904.000000,0.002000,0.000000
462.000000,0.002000,0.084915,0.496652,1.268378,1.412165,-0.231154,0.808832,-0.617565,-2.346607,-6.657451,1297730201521399599720082440192.000000,0.002000,0.000000
463.000000,0.002000,-0.018270,-0.310168,-0.373042,-2.431867,3.076185,0.107286,-1.798352,13.752405,13.605506,597727230411.605591,0.002000,0.000000
464.000000,0.002000,0.249687,0.531370,-0.309062,3.387648,-1.066713,1.389493,-8.069543,-14.433129,8.226021,1244513835172456263930652673149732121756926719728194666890606517335885767578928094735344217897158390053752968470490692079937079337933580624398282463935219847281027749295490118197170735516671719071127583993396569364680377381641745610617188314498102442184500531611828224.000000,0.002000,0.000000
465.000000,0.002000,-0.045685,0.534454,0.850158,0.025164,-1.085554,3.826778,0.188297,-5.221169,-9.639935,28803268878407060242997890567827211866132646648246411850482492650939304065578936615737797111930792799361715932967914854779114807959031606578694100172374089662530423687335214408017408141187797237681031677949635530571325700271286828894594916853392784267621020205056.000000,0.002000,0.000000
466.000000,0.002000,0.750743,-0.850923,-0.966131,-2.450206,2.124774,-0.891884,-3.174446,3.698830,3.801975,10255974457397556882473588456276144463510242240088169624528912210199791809901552274401509361676927068300663131933399458343478740779878781338880352048592765562699775604565882514190479882923790579487065637320381510994864132298332808213954560.000000,0.002000,0.000000
467.000000,0.002000,-0.191666,0.094764,0.287263,-0.474061,-0.609566,0.738976,10.802886,-2.789664,-15.984044,33979619823390186598955298436022471987894116250684276141901717340981614761476096.000000,0.002000,0.000000
468.000000,0.002000,-0.564535,1.329830,-1.989852,-0.623476,-0.898382,1.657220,0.667131,-1.478910,2.342375,4287997359716992375932553312388139137036694192790700032.000000,0.002000,0.000000
469.000000,0.002000,-0.215873,-0.034471,0.282307,3.082726,-1.272302,-0.226326,13.516225,3.649407,-14.979898,0.000000,0.002000,0.000000
470.000000,0.002000,-0.691253,-3.288802,0.260686,-1.299215,-0.987340,0.133792,0.277953,1.517402,-0.113433,15104087239449517660400449811913190848820990352747227589231178250363248904435958511400986806444675057820234856483229597425004878833624254738175832022727998308352.000000,0.002000,0.000000
471.000000,0.002000,-0.944936,-0.517531,1.276447,-0.031474,0.837929,0.301661,2.773677,1.862398,-4.024721,4773730573468376644424379379025356767700432179871227081133262769680496622218170776621805035793469585800737565870787222997152976836650566974524225829255758363205173890538186711053410614907005044594773909838188936100208306204704768.000000,0.002000,0.000000
472.000000,0.002000,-1.496200,2.597546,-0.005349,-0.262748,-0.862897,-1.367052,1.070692,-1.798806,-0.003617,41770175422855780589925600078503754906418271012538802328246727851212620575096024890461456481103899054916367073818827820744675244855475208117063565953137879853509393228695438606450245384197519108472832.000000,0.002000,0.000000
473.000000,0.002000,-11.481739,1.424461,9.171849,-1.497327,-0.293015,0.641669,0.071288,-0.008755,-0.057223,23223502080949630977283310928701327138338893610314184513214420378319971681832293799821312.000000,0.002000,0.000000
474.000000,0.002000,-0.400670,0.014200,-0.729479,2.587253,2.173128,-0.436063,6.350481,0.904955,12.441831,5317296872201371026690087242643914851651675866197320174218357123418241940411734978972134587040936136014063394707528445146397211344390455113858828620475027801205149731463783805282346139997124417368509960524957241947764575735033488507911317363821620756480.000000,0.002000,0.000000
475.000000,0.002000,-0.392037,-0.070907,-0.171942,-3.392012,2.751263,1.267423,17.004365,3.671838,8.111124,368450968657054904347923792058213415039774788515817305909188095901696.000000,0.002000,0.000000
476.000000,0.002000,-0.312733,0.542897,-0.494369,0.022508,-4.761528,0.268941,5.026379,-9.274456,9.324074,8380128844669230023777428945300314723518260168841202622654039451500544.000000,0.002000,0.000000
477.000000,0.002000,-0.438280,-0.109127,0.243248,-1.010795,-1.552703,-2.892560,10.844474,8.337582,-5.755897,27401585967045956.000000,0.002000,0.000000
478.000000,0.002000,0.303480,5.817109,-2.570697,-0.349548,-0.707147,0.331429,-0.023913,-0.455262,0.202748,460198153835916142675005422367539444679710926172367982955674104219030159306232606711785755743117088498593729927908490413533338413740483077870028406249332344648018804017021988059318104668065759232.000000,0.002000,0.000000
479.000000,0.002000,-0.574974,0.267616,-0.397430,1.124466,-1.932907,-1.614070,11.567919,-4.737721,7.665225,4760994911957510809647594802718589771771044626599546948664379761638816077844659062511041436844191656180473589375459442410018035914059707795621156873445610725985996506152064412788293563470915763803855576365861268714325424982650590932542604315278731656093763633152.000000,0.002000,0.000000
480.000000,0.002000,-0.506172,1.949559,1.866726,0.605818,0.390759,-0.243940,0.378360,-1.631131,-1.665118,490238434056716430303483732261808070417208760424394590391342341481693138342831617386352532193594723450985693077357207800982152442089476313014635253555906287442387126471297860195168294130908363772571062051938938002134885673467374006713620365312.000000,0.002000,0.000000
481.000000,0.002000,0.685301,-0.952020,1.135092,1.239263,1.034343,-0.391398,-2.237372,3.190860,-3.467456,0.000000,0.002000,0.000000
482.000000,0.002000,0.269486,1.647507,-0.409791,1.134028,1.643223,1.074227,-0.677944,-5.237200,1.134361,52277015988926296758944355416300097635889321747843445926324928887010841665955947784363293373400044535808.000000,0.002000,0.000000
483.000000,0.002000,11.896668,-4.266620,-2.126384,0.864350,-0.321177,-0.071655,-0.112135,0.040796,0.020141,218815531898488568946673615962697726893522322817591806427876740263683181566685558098951360586836335478798759489477237375526346168566219982617164713806716222058488896883880941681741652978380233591096768167149568.000000,0.002000,0.000000
484.000000,0.002000,0.056770,0.394049,0.067305,-2.811276,-0.325345,-2.663753,-3.711435,-17.908852,-1.270682,0.000000,0.002000,0.000000
485.000000,0.002000,0.029404,0.081889,-0.092940,0.622868,0.759684,0.819345,-5.331106,-7.166375,7.795251,2496134145027184854047566128941332425566652967206929890941299778600906473994298048223461713510999802775382469232482620355481692932590404879566193281107968165956179620242192363720076140696464113541462086974859787973077051786485068814955747009637599516165202456053022720.000000,0.002000,0.000000
486.000000,0.002000,-0.160517,-0.177977,-0.919234,2.327764,2.423955,-2.273788,1.253770,3.071433,11.323335,67607132084749683883151929688359690558581090469585372153107545033092489223660379642837483018911572927208860789966844661055244005871320169381592364837936636477558263445451311420287143282447452563570688.000000,0.002000,0.000000
487.000000,0.002000,1.905006,3.140307,-1.030044,-0.146334,0.625455,0.837337,-0.677710,-1.089813,0.378425,0.000000,0.002000,0.000000
488.000000,0.002000,-0.412267,0.194697,-2.122388,-1.441781,0.937663,-1.519580,0.715596,-0.387765,3.406553,9626835703347327230442340425834102231152232327395226851444686123501528815367323235739910033267868498567077826895434882488467456.000000,0.002000,0.000000
489.000000,0.002000,0.165119,-0.249830,0.198713,-0.416230,3.041279,3.563348,-10.793464,15.776724,-8.457434,6186234607019794524283952427264579320444589810436153432044466148024876505388441743956242131920934430994535629205763136686068434023974746433591217990845215480757504305520467120217060141398384690789381135480663098465675639540154368.000000,0.002000,0.000000
490.000000,0.002000,1.393201,0.413976,-0.170072,-2.027269,0.417143,-1.127293,-5.822684,-1.563133,0.523694,0.000000,0.002000,0.000000
491.000000,0.002000,0.217181,0.204284,0.099936,1.693203,0.058637,-0.598369,-14.160164,-6.973542,-0.471458,0.000000,0.002000,0.000000
492.000000,0.002000,-0.077371,0.062591,-0.065618,-1.922531,2.152224,-1.570628,2.423249,-0.189110,0.245869,60307703235340538948138857096393428695610950369200745204173242368.000000,0.002000,0.000000
493.000000,0.002000,-0.334630,-0.089925,-0.771425,-2.890359,0.202211,-1.326615,4.748834,2.504277,11.809236,65363358986331360955074484362855669664124147945390354765591361058589733179068629768844604154140728719082181017241541436398825584302973650250260728356840360082873151230442518928100742733755761794482176.000000,0.002000,0.000000
494.000000,0.002000,0.465195,-0.020274,-0.405422,-0.614402,1.455384,-1.924604,-11.269264,-1.406184,11.090879,0.000000,0.002000,0.000000
