# 
#                 columns are tag, mass, x, y, z, vx, vy, vz, ax, ay, az, EK, EU, E
#                 Time=4.000000
# 
1.000000,0.002000,-1.053845,1.884627,2.502758,1.004349,-0.271501,-0.208811,0.444470,-0.849920,-1.218317,78.947821,-161.942481,-82.994661
2.000000,0.002000,-3.670541,-0.830645,-1.820572,-0.368266,-1.164843,1.526157,0.971523,0.222002,0.469004,0.000000,0.000000,0.000000
3.000000,0.002000,-0.356371,0.714518,-0.524294,-0.428311,2.521193,-2.463874,3.951988,-8.484560,6.619911,0.000000,0.000000,0.000000
4.000000,0.002000,0.033510,0.611820,-0.179566,-0.935594,-0.465323,-4.391207,-0.400205,-15.643111,4.027094,0.000000,0.000000,0.000000
5.000000,0.002000,0.066128,0.084495,-0.225165,3.327713,1.064172,2.316069,-6.792676,-0.404660,18.399977,0.000000,0.000000,0.000000
6.000000,0.002000,-0.007711,0.529398,-0.228166,-2.287743,0.742302,-2.843379,0.886015,-13.859171,7.593794,0.000000,0.000000,0.000000
7.000000,0.002000,0.082365,-2.953003,1.949940,0.045182,-0.109496,-0.667587,-0.042071,1.188514,-0.758924,0.002000,9.508030,0.000000
8.000000,0.002000,0.177871,0.279695,-0.141652,-0.656079,-2.350782,4.511896,-10.580406,-13.642204,6.953019,0.002000,3.939454,0.000000
9.000000,0.002000,-2.899627,2.011632,0.848710,0.267910,-0.175178,0.065287,1.118810,-0.768796,-0.317184,0.002000,-1.053845,0.000000
10.000000,0.002000,1.960394,0.721314,-0.560901,-1.995898,0.104598,1.423736,-3.214370,-1.189603,0.972898,0.002000,-3.670541,0.000000
11.000000,0.002000,-0.393452,-0.283210,-0.212131,1.399350,-0.147758,3.119399,12.570328,11.182257,8.430107,0.002000,-0.356371,0.000000
12.000000,0.002000,1.414734,1.826778,0.222243,-1.631477,-1.361401,-0.070249,-1.752187,-2.415853,-0.354587,0.002000,0.033510,0.000000
13.000000,0.002000,-0.129905,0.571071,0.671804,-2.780840,-1.633104,1.322679,1.844439,-7.928605,-9.809525,0.002000,0.066128,0.000000
14.000000,0.002000,2.094625,1.108962,-0.046332,0.650765,0.765988,0.784958,-2.531822,-1.337813,0.007308,0.002000,-0.007711,0.000000
15.000000,0.002000,-0.621170,-2.883440,-1.189621,-0.645463,-0.277377,-0.474435,0.308414,1.567951,0.619934,0.002000,0.082365,0.000000
16.000000,0.002000,-0.128717,-1.448273,0.141338,-0.470771,2.714192,1.716046,0.387165,6.041559,-0.590083,0.002000,0.177871,0.000000
17.000000,0.002000,0.053768,0.484651,0.210415,1.182646,-3.745908,-1.204824,-3.649947,-15.628025,-7.489230,0.002000,-2.899627,0.000000
18.000000,0.002000,-0.356902,-0.081966,0.353328,-0.590333,2.321516,3.918356,13.683106,6.029977,-13.348251,0.002000,1.960394,0.000000
19.000000,0.002000,-0.118939,-0.142295,-0.046276,-1.305488,0.080805,0.618711,1.645246,8.114450,8.580909,0.002000,-0.393452,0.000000
20.000000,0.002000,0.300801,-0.196451,0.146443,0.403975,2.065928,0.902720,-13.214845,11.335884,-6.377169,0.002000,1.414734,0.000000
21.000000,0.002000,-0.179118,0.423126,0.524308,2.238042,-0.217857,0.218057,3.881224,-10.185731,-12.172356,0.002000,-0.129905,0.000000
22.000000,0.002000,0.743915,-1.062959,-0.045052,0.505025,-1.556910,-0.558911,-4.170699,5.865150,0.213817,0.002000,2.094625,0.000000
23.000000,0.002000,0.025779,1.121880,1.129741,2.476270,-1.194019,0.947925,-0.199328,-3.853098,-4.099532,0.002000,-0.621170,0.000000
24.000000,0.002000,-0.090850,-0.216693,-0.070495,4.137982,1.142222,0.548244,4.199408,14.447993,6.297989,0.002000,-0.128717,0.000000
25.000000,0.002000,0.386603,-0.541660,0.266468,1.332755,0.682099,1.449737,-6.604760,10.820247,-5.625821,0.002000,0.053768,0.000000
26.000000,0.002000,0.960038,1.399120,0.978800,0.968107,-0.119907,-0.797916,-2.164452,-2.706223,-1.886657,0.002000,-0.356902,0.000000
27.000000,0.002000,0.396952,0.100431,0.186813,-1.764624,-2.164652,-0.377884,-16.488664,-3.502134,-9.322891,0.002000,-0.118939,0.000000
28.000000,0.002000,-0.054147,-0.370580,-0.397619,0.219080,-0.841618,-3.474308,2.287498,11.580250,12.740458,0.002000,0.300801,0.000000
29.000000,0.002000,-4.160727,-3.817076,2.100998,-0.457175,-0.357610,0.577303,0.376614,0.345407,-0.188606,0.002000,-0.179118,0.000000
30.000000,0.002000,-0.754672,-0.961489,-0.156120,0.531582,0.585004,1.027053,4.717676,6.601297,0.828747,0.002000,0.743915,0.000000
31.000000,0.002000,-0.228803,-0.558165,-0.069498,-1.988263,0.758947,0.316770,5.803586,15.810804,1.598667,0.002000,0.025779,0.000000
32.000000,0.002000,0.187670,0.109443,0.200574,-2.040925,1.935691,0.690913,-12.428347,-4.621799,-10.559650,0.002000,-0.090850,0.000000
33.000000,0.002000,-0.352745,-0.362884,-0.989995,-0.154027,-1.318941,-0.702005,2.768060,3.216715,8.352860,0.002000,0.386603,0.000000
34.000000,0.002000,-0.388571,-1.208634,0.750333,-1.046073,0.944988,-1.931977,1.344225,4.938306,-2.870612,0.002000,0.960038,0.000000
35.000000,0.002000,-0.907594,-0.264682,0.506021,2.154834,1.782622,-3.137100,8.820218,2.319413,-5.336344,0.002000,0.396952,0.000000
36.000000,0.002000,0.398841,-1.386463,1.338186,0.653296,1.502044,-1.975467,-0.789205,2.576699,-2.565846,0.002000,-0.054147,0.000000
37.000000,0.002000,-2.966884,-3.470878,2.833687,0.085027,-0.105533,0.653845,0.383013,0.426378,-0.355277,0.002000,-4.160727,0.000000
38.000000,0.002000,-0.418811,-0.620436,0.946504,0.558492,-0.763863,2.349424,2.486859,4.325577,-6.531473,0.002000,-0.754672,0.000000
39.000000,0.002000,0.066915,-0.146003,-0.501360,-1.248867,2.554313,0.160831,-5.367531,3.710140,18.043067,0.002000,-0.228803,0.000000
40.000000,0.002000,0.307265,-0.047654,0.331437,0.987093,1.943466,4.701376,-13.660087,1.272717,-11.177990,0.002000,0.187670,0.000000
41.000000,0.002000,-0.130960,0.029679,0.229573,-2.570012,4.883527,1.311985,6.513472,-2.627019,-13.777211,0.002000,-0.352745,0.000000
42.000000,0.002000,0.743499,0.944812,-2.930797,0.654015,-0.521466,0.314208,-0.438756,-0.527781,1.633033,0.002000,-0.388571,0.000000
43.000000,0.002000,-0.208359,1.631465,0.475813,2.197978,-0.814715,-1.937648,0.637628,-4.878049,-1.523627,0.002000,-0.907594,0.000000
44.000000,0.002000,-0.225649,0.553187,-0.067181,-2.475162,0.321277,1.943013,5.035815,-17.781789,1.679291,0.002000,0.398841,0.000000
45.000000,0.002000,-0.676874,0.179390,0.275450,0.623146,0.251008,2.169506,13.067077,-3.256425,-6.827977,0.002000,-2.966884,0.000000
46.000000,0.002000,-0.072644,-0.149723,0.368978,2.630344,0.441350,-1.686428,-0.383148,9.232178,-18.369722,0.002000,-0.418811,0.000000
47.000000,0.002000,-0.085678,0.177152,0.184732,-5.283505,-2.585279,-0.350228,1.847188,-10.864272,-13.577266,0.002000,0.066915,0.000000
48.000000,0.002000,-0.595916,-0.049007,-0.495201,0.144952,-1.489977,-0.696096,11.141055,1.865674,10.052000,0.002000,0.307265,0.000000
49.000000,0.002000,-3.850737,-0.989168,-0.268229,0.397562,0.231021,-0.195749,1.125466,0.298419,0.067094,0.002000,-0.130960,0.000000
50.000000,0.002000,-0.206764,0.830464,0.337641,-1.457723,1.551057,-0.318223,2.705644,-10.787581,-4.864327,0.002000,0.743499,0.000000
51.000000,0.002000,-1.122520,0.398905,-0.345415,0.721811,-1.150881,0.487969,7.777370,-2.486958,2.395104,0.002000,-0.208359,0.000000
52.000000,0.002000,-0.381374,0.041823,-0.119791,3.307725,0.001814,-2.851087,17.341590,-0.431576,5.970265,0.002000,-0.225649,0.000000
53.000000,0.002000,-0.173097,-0.486204,-0.434769,-1.729321,-2.452732,-2.387569,3.616332,10.608849,8.898599,0.002000,-0.676874,0.000000
54.000000,0.002000,0.814817,0.616142,-0.713772,0.029327,-0.256486,2.948388,-5.400649,-3.860619,4.851089,0.002000,-0.072644,0.000000
55.000000,0.002000,-0.094074,0.024541,0.584261,-0.935258,-0.001200,-0.583865,2.381619,0.875740,-18.537353,0.002000,-0.085678,0.000000
56.000000,0.002000,0.280513,-0.598396,-0.011310,1.121019,-1.382572,-1.322451,-6.660504,14.804527,-0.156457,0.002000,-0.595916,0.000000
57.000000,0.002000,1.642142,1.293683,1.961183,1.098771,-1.023012,-0.398583,-1.118396,-0.813866,-1.415075,0.002000,-3.850737,0.000000
58.000000,0.002000,-0.549024,-1.378175,-1.248527,0.630945,2.163523,1.033162,1.077464,2.638234,2.260858,0.002000,-0.206764,0.000000
59.000000,0.002000,-0.374466,0.164575,0.450836,2.633503,-1.841818,1.194687,10.973389,-4.951992,-13.585709,0.002000,-1.122520,0.000000
60.000000,0.002000,0.101193,-0.026032,0.249250,0.098228,-0.221171,1.041431,-13.122670,1.065386,-14.426845,0.002000,-0.381374,0.000000
61.000000,0.002000,0.101725,-0.298703,-0.225502,-3.585369,-2.374026,0.783638,0.141245,17.861411,11.369064,0.002000,-0.173097,0.000000
62.000000,0.002000,-2.442054,-0.165305,4.026223,-0.628558,0.129230,-0.318795,0.442136,0.048760,-0.745090,0.002000,0.814817,0.000000
63.000000,0.002000,-0.492658,0.081941,0.021253,-0.951422,-0.243228,0.439340,19.075928,-0.686022,-1.205206,0.002000,-0.094074,0.000000
64.000000,0.002000,-0.718588,0.414509,-0.270526,-2.198179,-1.467000,-1.336017,11.486259,-6.934470,4.535933,0.002000,0.280513,0.000000
65.000000,0.002000,0.641215,0.801050,0.114253,-1.010349,1.924780,-1.579921,-6.914599,-8.133412,-1.766424,0.002000,1.642142,0.000000
66.000000,0.002000,-0.126810,0.897074,0.956782,-1.218522,-0.458710,-1.157645,0.573479,-5.356438,-5.067370,0.002000,-0.549024,0.000000
67.000000,0.002000,-0.790952,-2.738916,0.989780,0.510852,0.602587,-0.199148,0.441724,1.648369,-0.614504,0.002000,-0.374466,0.000000
68.000000,0.002000,-0.009633,-0.935461,-1.641667,-0.549928,1.263313,-0.576648,0.002107,1.985405,3.481032,0.002000,0.101193,0.000000
69.000000,0.002000,1.548217,-1.875740,0.595862,-1.069313,-0.783326,-1.100421,-1.561142,1.931792,-0.626970,0.002000,0.101725,0.000000
70.000000,0.002000,-0.712356,-0.277086,1.005669,0.823292,-1.234955,1.015801,4.032394,1.917287,-6.654279,0.002000,-2.442054,0.000000
71.000000,0.002000,-0.286323,-0.459765,0.063469,-0.607801,2.256128,-3.824040,8.153643,18.114522,-2.264483,0.002000,-0.492658,0.000000
72.000000,0.002000,-0.604550,-0.539244,-0.354956,1.733281,0.942293,2.592642,8.313231,7.861559,4.297471,0.002000,-0.718588,0.000000
73.000000,0.002000,-2.003857,2.079123,-1.172848,0.369722,-0.181728,0.971195,1.102200,-1.176249,0.702829,0.002000,0.641215,0.000000
74.000000,0.002000,-0.045332,0.153319,0.015821,0.379015,-3.158397,-0.933368,2.390574,-9.174158,2.742355,0.002000,-0.126810,0.000000
75.000000,0.002000,-2.152832,0.677615,-0.755295,2.035223,-0.222181,-0.749489,2.600570,-0.802832,0.886704,0.002000,-0.790952,0.000000
76.000000,0.002000,0.381326,-0.491098,-0.842629,-0.678489,0.545448,0.218760,-3.893522,5.021676,8.229861,0.002000,-0.009633,0.000000
77.000000,0.002000,0.336723,-0.034597,-0.772106,-0.305713,-0.608418,-2.049229,-5.985952,1.193699,11.894644,0.002000,1.548217,0.000000
78.000000,0.002000,-0.295648,-0.195528,0.070623,-0.054668,0.377422,4.613399,15.889620,12.874966,-6.100948,0.002000,-0.712356,0.000000
79.000000,0.002000,0.745476,-0.107398,-0.467854,2.074482,1.923042,0.882437,-9.743901,1.732001,5.949525,0.002000,-0.286323,0.000000
80.000000,0.002000,-1.132522,3.478710,-0.850090,-0.927481,-0.247974,0.484556,0.386915,-1.183128,0.294447,0.002000,-0.604550,0.000000
81.000000,0.002000,0.158787,0.120072,0.083252,1.390630,-0.408455,-0.139418,-12.271681,-4.087084,-2.733304,0.002000,-2.003857,0.000000
82.000000,0.002000,0.323618,0.225258,-0.509723,-3.208780,-2.375917,-2.130040,-7.964914,-6.765260,13.155497,0.002000,-0.045332,0.000000
83.000000,0.002000,0.607201,0.461958,-0.109740,1.483827,-0.613824,3.834274,-10.189740,-7.236028,7.546932,0.002000,-2.152832,0.000000
84.000000,0.002000,-1.443882,-1.268823,0.825003,-0.182583,-0.737752,0.781186,2.377904,2.172342,-1.436461,0.002000,0.381326,0.000000
85.000000,0.002000,0.155673,0.252674,-0.921725,2.723584,-0.573164,-2.622604,-0.993787,-5.939361,11.451268,0.002000,0.336723,0.000000
86.000000,0.002000,-0.219163,0.067773,0.814057,1.505414,-2.108984,-0.467426,2.686935,-0.771813,-13.492654,0.002000,-0.295648,0.000000
87.000000,0.002000,-0.362332,0.524483,-0.065665,0.811094,-4.144190,-1.266101,10.436775,-15.973413,1.082246,0.002000,0.745476,0.000000
88.000000,0.002000,-0.271107,0.331956,-0.066429,3.597295,1.064221,0.484280,10.806806,-13.691921,3.323481,0.002000,-1.132522,0.000000
89.000000,0.002000,1.016442,1.182623,0.016426,2.820401,0.701585,-0.623675,-3.757795,-4.237947,-0.129517,0.002000,0.158787,0.000000
90.000000,0.002000,0.052591,-0.185489,0.144230,1.586603,-0.440695,-0.934536,-4.833735,12.802489,-10.224588,0.002000,0.323618,0.000000
91.000000,0.002000,-2.379600,-1.479569,-3.493158,-0.475437,-1.479800,-0.157388,0.506759,0.331668,0.745331,0.002000,0.607201,0.000000
92.000000,0.002000,-0.107430,0.177541,0.142615,-2.237316,2.239246,3.864160,1.791381,-17.641579,-15.824876,0.002000,-1.443882,0.000000
93.000000,0.002000,1.774822,-1.046085,-1.519495,-1.472013,1.230258,-0.522862,-1.702817,1.052484,1.430118,0.002000,0.155673,0.000000
94.000000,0.002000,-1.300475,1.852556,2.596032,0.858633,-0.166920,-0.030403,0.621544,-0.742102,-1.182842,0.002000,-0.219163,0.000000
95.000000,0.002000,-0.603923,-1.071648,-0.340840,-1.005771,-0.846685,-0.313694,3.582559,6.829750,2.016567,0.002000,-0.362332,0.000000
96.000000,0.002000,0.780214,0.053497,0.344263,-1.394198,0.389530,-1.328306,-11.404902,-0.416871,-5.332139,0.002000,-0.271107,0.000000
97.000000,0.002000,0.230416,0.609159,-0.300214,-1.357722,2.097509,-1.232000,-4.675085,-12.763679,7.460139,0.002000,1.016442,0.000000
98.000000,0.002000,0.336616,-2.303627,3.106810,-0.190180,0.423844,-0.277766,-0.272481,0.829980,-0.893278,0.002000,0.052591,0.000000
99.000000,0.002000,-0.015347,-0.206876,0.002790,-0.113799,0.196932,-2.539121,-8.820908,13.074565,-0.325036,0.002000,-2.379600,0.000000
100.000000,0.002000,0.063923,-0.225924,0.160281,-0.757905,-2.079207,3.653623,-5.372210,15.012822,-10.464081,0.002000,-0.107430,0.000000
101.000000,0.002000,0.219891,0.156384,-0.354070,2.899639,-3.939723,0.331777,-12.006054,-6.385690,14.249279,0.002000,1.774822,0.000000
102.000000,0.002000,-0.439190,0.391793,-0.196450,-1.272102,-0.456403,3.465618,9.310202,-11.964232,6.523298,0.002000,-1.300475,0.000000
103.000000,0.002000,-0.246082,1.954478,-1.415341,-0.345293,-1.678302,1.190007,0.224248,-2.264361,1.638947,0.002000,-0.603923,0.000000
104.000000,0.002000,-0.222131,0.395078,-0.105152,1.078967,-1.597219,-2.903854,10.303388,-15.846782,3.860540,0.002000,0.780214,0.000000
105.000000,0.002000,0.115580,-0.732009,1.667779,1.821860,1.503287,-0.062984,-0.380128,1.722426,-3.831537,0.002000,0.230416,0.000000
106.000000,0.002000,0.020900,0.149180,0.415071,-1.130988,-1.184118,-0.081237,-3.115943,-6.359228,-19.338880,0.002000,0.336616,0.000000
107.000000,0.002000,-0.109906,0.373225,-0.408200,-0.991030,-0.779359,0.538909,0.696115,-12.423297,15.068705,0.002000,-0.015347,0.000000
108.000000,0.002000,-0.897249,-0.588581,-0.493911,-0.208328,-0.521183,0.278219,6.711737,4.912655,3.717106,0.002000,0.063923,0.000000
109.000000,0.002000,0.492179,-0.036035,0.187241,-0.982084,-2.364561,2.232367,-16.358869,2.595146,-6.032104,0.002000,0.219891,0.000000
110.000000,0.002000,-1.146334,-0.478294,-3.277621,0.330469,-0.212720,-0.212628,0.498111,0.236292,1.360384,0.002000,-0.439190,0.000000
111.000000,0.002000,0.374812,0.027651,-0.104679,-1.761704,3.064070,-1.275350,-18.996715,-0.876942,4.565885,0.002000,-0.246082,0.000000
112.000000,0.002000,2.375472,0.087418,0.908233,-1.828722,-0.797802,-0.283576,-2.307798,-0.024457,-0.952558,0.002000,-0.222131,0.000000
113.000000,0.002000,-1.083797,-4.789690,-4.054799,0.792278,-0.507399,0.074944,0.082019,0.370200,0.310998,0.002000,0.115580,0.000000
114.000000,0.002000,-0.232048,0.286932,0.355280,-3.874595,-2.878141,0.977206,8.041648,-12.139603,-15.671152,0.002000,0.020900,0.000000
115.000000,0.002000,-0.621873,0.206118,-0.188991,1.328550,-0.014380,0.854502,16.526497,-3.506374,4.930482,0.002000,-0.109906,0.000000
116.000000,0.002000,-0.022796,-0.106808,0.036650,-0.435148,-2.041195,1.720908,-5.004282,7.886478,5.263165,0.002000,-0.897249,0.000000
117.000000,0.002000,0.181557,-0.405939,0.607783,-1.842423,0.054474,0.427582,-3.634888,8.090738,-11.234456,0.002000,0.492179,0.000000
118.000000,0.002000,0.206245,-0.280493,-0.115422,-3.565852,0.728899,-2.567273,-8.034281,17.717320,2.830014,0.002000,-1.146334,0.000000
119.000000,0.002000,-0.538589,-1.357771,1.262790,0.689535,0.713309,0.239871,1.175798,2.781224,-2.530947,0.002000,0.374812,0.000000
120.000000,0.002000,-0.102865,-0.189238,0.001835,-2.128567,0.372659,-2.530180,3.495722,17.289805,1.157556,0.002000,2.375472,0.000000
121.000000,0.002000,0.138003,0.357389,-0.156408,-1.023299,2.012167,-3.425165,-9.416855,-14.855003,6.726426,0.002000,-1.083797,0.000000
122.000000,0.002000,-0.161538,-0.002535,-0.065092,-1.685849,-2.103983,1.569414,7.264120,-1.425489,8.056130,0.002000,-0.232048,0.000000
123.000000,0.002000,1.452407,-0.234251,1.303373,-0.533630,0.767186,-0.545143,-2.769128,0.264453,-2.465659,0.002000,-0.621873,0.000000
124.000000,0.002000,-0.849677,0.317353,0.032925,-1.049880,0.035180,-1.143762,12.529010,-4.128989,-0.437236,0.002000,-0.022796,0.000000
125.000000,0.002000,0.461235,-0.102081,0.049815,-3.786377,1.338276,2.291973,-15.792641,4.842285,-3.623293,0.002000,0.181557,0.000000
126.000000,0.002000,-0.140454,-2.508054,-2.472450,0.157779,0.817018,-0.595028,0.123217,1.083624,0.990853,0.002000,0.206245,0.000000
127.000000,0.002000,-0.452224,0.776059,-0.961539,-1.826056,-0.472124,3.101679,2.277368,-4.406769,5.797388,0.002000,-0.538589,0.000000
128.000000,0.002000,0.505212,4.044827,0.743500,0.181291,0.431374,-0.050717,-0.169569,-1.071170,-0.193787,0.002000,-0.102865,0.000000
129.000000,0.002000,1.046647,0.311416,0.075853,-3.105797,0.496233,0.451782,-8.794082,-2.404874,-0.571241,0.002000,0.138003,0.000000
130.000000,0.002000,-0.091583,0.934052,0.275793,-2.018103,2.463928,-0.060397,0.567118,-10.406171,-3.072554,0.002000,-0.161538,0.000000
131.000000,0.002000,0.016908,0.572038,-0.277233,-1.151400,2.019795,1.289369,-1.361866,-15.679731,9.603308,0.002000,1.452407,0.000000
132.000000,0.002000,0.428471,0.560887,0.075446,-1.107921,2.353213,-1.647924,-8.641665,-10.549836,-1.049189,0.002000,-0.849677,0.000000
133.000000,0.002000,2.360838,0.373773,1.689292,-1.298811,1.003235,0.247515,-1.597677,-0.202738,-1.157730,0.002000,0.461235,0.000000
134.000000,0.002000,-1.062192,0.476234,-2.578782,1.170122,-0.781078,0.588152,0.631429,-0.398234,1.900068,0.002000,-0.140454,0.000000
135.000000,0.002000,-0.216924,-2.000992,-0.670439,0.681543,2.238769,-0.389598,0.318385,3.116223,0.980821,0.002000,-0.452224,0.000000
136.000000,0.002000,-0.102042,-0.052788,-0.258662,-1.077972,-0.901796,3.760811,1.374675,1.214643,15.290010,0.002000,0.505212,0.000000
137.000000,0.002000,-0.123747,-0.194081,-0.693176,0.522121,1.402013,-1.996674,2.003365,4.627905,14.051364,0.002000,1.046647,0.000000
138.000000,0.002000,-1.689983,1.109847,0.368446,-1.492630,-0.370902,0.130859,3.066803,-1.996523,-0.676636,0.002000,-0.091583,0.000000
139.000000,0.002000,-0.327245,1.077410,0.182901,1.902637,-2.100430,-0.299064,2.081201,-9.087549,-1.839792,0.002000,0.016908,0.000000
140.000000,0.002000,0.571586,1.308505,0.631108,0.786175,-0.174283,-3.133180,-2.081588,-4.664336,-2.232142,0.002000,0.428471,0.000000
141.000000,0.002000,1.609928,-3.850723,-1.230840,0.438503,0.100608,-0.866815,-0.356545,0.876038,0.271622,0.002000,2.360838,0.000000
142.000000,0.002000,0.324204,-0.705042,-0.193628,-0.672972,1.259894,0.065355,-4.770616,14.910611,1.178985,0.002000,-1.062192,0.000000
143.000000,0.002000,0.639124,5.730939,1.481418,0.220160,0.560535,0.167380,-0.064622,-0.544848,-0.143407,0.002000,-0.216924,0.000000
144.000000,0.002000,-0.172089,0.509005,0.293446,-0.677460,0.127304,1.881113,4.872803,-13.835893,-9.110259,0.002000,-0.102042,0.000000
145.000000,0.002000,0.541840,0.221215,-0.157130,1.788225,-0.828068,2.937670,-14.142689,-6.843784,6.269395,0.002000,-0.123747,0.000000
146.000000,0.002000,-0.049925,0.010157,-0.582037,-0.375137,1.163722,-1.914813,0.389514,0.758701,17.279926,0.002000,-1.689983,0.000000
147.000000,0.002000,0.538222,0.129786,-0.117183,0.785207,2.414948,1.214441,-16.058403,-4.098459,3.315377,0.002000,-0.327245,0.000000
148.000000,0.002000,0.473974,-1.146881,1.241593,1.488693,-1.194763,1.151851,-1.171843,3.054089,-3.131523,0.002000,0.571586,0.000000
149.000000,0.002000,0.138328,0.007335,-0.118409,-0.309262,1.771981,-3.317382,-12.526662,0.734738,11.394686,0.002000,1.609928,0.000000
150.000000,0.002000,-0.499212,-0.208333,-0.193225,1.052523,-2.187621,3.033611,12.649750,8.315242,6.276293,0.002000,0.324204,0.000000
151.000000,0.002000,0.327221,-0.030758,-0.037358,-4.010079,-3.294554,-1.850549,-19.118730,2.922448,2.534781,0.002000,0.639124,0.000000
152.000000,0.002000,-0.414262,0.852997,0.576051,-1.044047,1.697836,-1.906666,3.711631,-7.133405,-5.074159,0.002000,-0.172089,0.000000
153.000000,0.002000,-0.884294,1.931350,-0.711929,0.862112,0.758011,0.314541,1.293198,-2.726456,1.043787,0.002000,0.541840,0.000000
154.000000,0.002000,0.450850,-0.281271,0.462628,0.954449,-0.954386,0.548100,-10.171048,7.037291,-9.756931,0.002000,-0.049925,0.000000
155.000000,0.002000,0.060754,0.038191,0.281737,-1.864343,-0.315904,-1.354133,-7.761434,-3.905200,-17.245498,0.002000,0.538222,0.000000
156.000000,0.002000,-0.997623,-0.695466,-4.404146,0.897774,-0.355186,-0.308950,0.207803,0.149990,0.906288,0.002000,0.473974,0.000000
157.000000,0.002000,2.727682,2.268699,1.919979,-0.640605,-0.091654,-0.505956,-0.821152,-0.599150,-0.559115,0.002000,0.138328,0.000000
158.000000,0.002000,0.209229,0.107966,-0.122461,1.536957,1.479308,-3.587505,-13.119495,-5.259073,8.532921,0.002000,-0.499212,0.000000
159.000000,0.002000,-0.280575,-0.064586,0.745676,3.780717,1.632553,0.484050,4.479112,2.072434,-13.784854,0.002000,0.327221,0.000000
160.000000,0.002000,-0.587812,-1.419483,-1.656554,0.583490,-0.538556,0.063147,0.775900,1.975026,2.236737,0.002000,-0.414262,0.000000
161.000000,0.002000,-0.590630,0.374339,0.630829,0.824970,2.191438,-0.282410,8.766397,-5.335855,-8.068013,0.002000,-0.884294,0.000000
162.000000,0.002000,-1.871368,-4.092452,-1.193640,-0.446210,-0.224889,-1.135943,0.349010,0.784423,0.220463,0.002000,0.450850,0.000000
163.000000,0.002000,1.092319,-1.726434,-1.670062,0.285562,1.292147,0.899388,-0.998504,1.559668,1.436155,0.002000,0.060754,0.000000
164.000000,0.002000,0.249773,0.134744,-0.351878,0.092321,-2.808793,-0.136717,-13.374497,-5.112997,14.931157,0.002000,-0.997623,0.000000
165.000000,0.002000,-0.619162,-5.621154,0.976348,0.138066,-0.520954,0.661144,0.060486,0.586806,-0.102090,0.002000,2.727682,0.000000
166.000000,0.002000,0.472221,0.928257,0.963239,-0.167556,-2.371576,-0.313831,-2.310209,-4.081506,-4.453975,0.002000,0.209229,0.000000
167.000000,0.002000,-0.613804,-0.088490,-0.828104,2.460030,0.504769,-0.160150,7.611658,1.489134,8.221626,0.002000,-0.280575,0.000000
168.000000,0.002000,0.106550,0.026327,-0.112012,-1.357933,-1.321070,2.380000,-10.534362,-0.585029,9.636619,0.002000,-0.587812,0.000000
169.000000,0.002000,0.059579,-0.545352,1.201976,-0.043445,-1.228406,1.699603,-0.538782,2.915847,-6.264700,0.002000,-0.590630,0.000000
170.000000,0.002000,-0.181048,2.299963,-1.863517,-0.415210,-1.078607,0.982394,0.212946,-1.603854,1.188464,0.002000,-1.871368,0.000000
171.000000,0.002000,-1.362151,1.010279,-1.321652,2.080916,-0.162744,0.731478,2.204021,-1.577578,2.129842,0.002000,1.092319,0.000000
172.000000,0.002000,1.466979,-2.807221,2.675164,-0.713151,-0.107412,-0.050110,-0.400955,0.710744,-0.692004,0.002000,0.249773,0.000000
173.000000,0.002000,0.380378,0.823431,-0.032500,-0.855809,1.481083,-0.048822,-5.930460,-11.142257,0.857722,0.002000,-0.619162,0.000000
174.000000,0.002000,0.428109,-3.058620,-0.587236,0.684545,0.942458,-0.427191,-0.248336,1.676550,0.323586,0.002000,0.472221,0.000000
175.000000,0.002000,1.339383,-0.212018,-0.777175,0.078425,-2.417756,-1.124884,-4.609752,0.928038,2.828993,0.002000,-0.613804,0.000000
176.000000,0.002000,0.893845,-0.316213,-1.359010,0.439927,-2.185565,-1.072413,-3.118824,0.879942,3.854000,0.002000,0.106550,0.000000
177.000000,0.002000,2.110853,-4.906309,-0.759315,-0.266797,-1.240058,-1.098114,-0.263006,0.601170,0.089944,0.002000,0.059579,0.000000
178.000000,0.002000,0.223235,0.381329,-0.114280,-1.291179,2.250434,1.055333,-9.565433,-14.319659,4.139646,0.002000,-0.181048,0.000000
179.000000,0.002000,0.496138,0.260744,0.031691,-2.619791,0.100342,-2.589192,-15.133034,-7.197730,-1.858307,0.002000,-1.362151,0.000000
180.000000,0.002000,0.482469,0.103062,0.207910,-0.278618,1.014121,-0.865189,-15.843582,-3.089295,-6.774120,0.002000,1.466979,0.000000
181.000000,0.002000,-0.034819,0.775298,0.164065,1.078380,-3.742024,1.796958,0.341054,-15.084088,-3.489539,0.002000,0.380378,0.000000
182.000000,0.002000,2.774934,1.200693,0.334222,0.686154,-0.839473,-0.760706,-1.717244,-0.691228,-0.187559,0.002000,0.428109,0.000000
183.000000,0.002000,-0.168035,-1.738509,-4.729090,0.295700,-1.215572,-0.415645,0.019748,0.275299,0.725836,0.002000,1.339383,0.000000
184.000000,0.002000,-0.401221,0.128687,0.095423,-2.629244,0.090768,-3.133115,15.513843,-5.299917,-4.862623,0.002000,0.893845,0.000000
185.000000,0.002000,0.874794,0.541912,-1.010151,0.818743,-0.699094,-0.136112,-3.880863,-2.237245,4.475601,0.002000,2.110853,0.000000
186.000000,0.002000,-0.583195,-1.691039,-2.954465,0.676037,-1.214247,-0.039979,0.263047,0.760449,1.281704,0.002000,0.223235,0.000000
187.000000,0.002000,2.020016,-2.190579,-1.200680,-0.603490,0.104788,0.665368,-1.062265,1.155084,0.570161,0.002000,0.496138,0.000000
188.000000,0.002000,0.053149,-0.074159,0.626822,0.385633,-3.907763,-0.014909,-3.113066,2.491822,-16.655755,0.002000,0.482469,0.000000
189.000000,0.002000,-0.058556,-0.749970,0.020765,-3.585213,-3.225253,1.702747,0.946312,14.962652,-0.542296,0.002000,-0.034819,0.000000
190.000000,0.002000,-0.185528,0.439229,0.043166,2.478536,-0.542108,1.183463,7.495010,-18.164348,-0.981830,0.002000,2.774934,0.000000
191.000000,0.002000,0.269375,0.053579,-0.454823,-1.866687,-1.120444,2.519280,-10.843530,-0.281142,15.081727,0.002000,-0.168035,0.000000
192.000000,0.002000,0.703352,0.611816,-0.662357,0.393508,-1.281999,1.418669,-4.322630,-6.364924,6.292710,0.002000,-0.401221,0.000000
193.000000,0.002000,-0.100681,0.262664,0.052203,-2.231886,2.979846,-1.111832,4.163668,-14.795253,-6.430320,0.002000,0.874794,0.000000
194.000000,0.002000,-2.653941,-2.546429,1.583516,0.693703,-0.386483,-0.395659,0.759769,0.736068,-0.471169,0.002000,-0.583195,0.000000
195.000000,0.002000,-1.211256,0.411796,-0.253900,-1.183632,-0.395413,1.403189,7.328594,-2.600924,1.457931,0.002000,2.020016,0.000000
196.000000,0.002000,0.087736,0.416313,-0.341659,2.007809,-2.256014,0.760776,-3.677857,-12.022052,12.173547,0.002000,0.053149,0.000000
197.000000,0.002000,0.495243,-5.868490,-1.880425,0.190363,0.435044,-0.411230,-0.042250,0.486204,0.154115,0.002000,-0.058556,0.000000
198.000000,0.002000,-0.537680,-0.348378,-0.128202,-0.214877,-0.750655,-1.318879,12.051632,10.745531,3.077214,0.002000,-0.185528,0.000000
199.000000,0.002000,-0.090138,0.513834,0.231112,-1.059930,-2.539331,1.259533,0.026424,-16.033693,-11.178354,0.002000,0.269375,0.000000
200.000000,0.002000,0.102305,-0.313843,0.497818,0.453015,2.870429,-0.600945,-3.968261,9.515479,-15.525604,0.002000,0.703352,0.000000
201.000000,0.002000,2.105440,-0.849799,1.974010,-0.969405,0.402138,-0.855151,-1.274806,0.531893,-1.228571,0.002000,-0.100681,0.000000
202.000000,0.002000,-1.521746,-0.893488,0.089111,-1.856021,-0.426571,0.496567,4.044366,2.394744,-0.257468,0.002000,-2.653941,0.000000
203.000000,0.002000,0.113287,-0.312582,-0.587756,-0.067241,3.789849,0.915792,-3.728027,7.872819,13.065451,0.002000,-1.211256,0.000000
204.000000,0.002000,0.282492,-0.691733,-0.317567,3.339291,-0.840208,1.278174,-4.620877,12.131758,4.296463,0.002000,0.087736,0.000000
205.000000,0.002000,0.694656,-0.102111,-1.058749,-0.617288,-1.675321,-0.542933,-4.213292,0.750841,6.060192,0.002000,0.495243,0.000000
206.000000,0.002000,0.258262,0.163238,0.109368,1.604789,1.055432,-0.324612,-14.799588,-8.341443,-5.991687,0.002000,-0.537680,0.000000
207.000000,0.002000,-3.473547,2.349217,-1.279636,0.220006,-0.261672,0.202358,0.789824,-0.542802,0.307051,0.002000,-0.090138,0.000000
208.000000,0.002000,0.426862,-0.032720,0.424828,-1.200685,-1.203298,-2.904194,-11.057510,-1.081714,-11.035032,0.002000,0.102305,0.000000
209.000000,0.002000,-0.337514,-0.194161,-0.085834,-0.012881,-2.567727,1.802483,17.457966,11.086199,7.400853,0.002000,2.105440,0.000000
210.000000,0.002000,0.678248,0.025373,-0.172550,0.653196,1.568010,-3.875523,-14.786387,0.773739,3.564107,0.002000,-1.521746,0.000000
211.000000,0.002000,-0.078845,-0.264052,0.221138,-2.630362,-0.757157,2.166124,3.988541,18.846095,-8.275652,0.002000,0.113287,0.000000
212.000000,0.002000,0.027003,0.106514,-0.187998,0.708326,2.180831,-0.488116,-3.798294,-8.102194,12.185004,0.002000,0.282492,0.000000
213.000000,0.002000,-0.782613,0.287661,0.272843,-1.186020,1.233542,-1.526783,11.612150,-4.149946,-4.511155,0.002000,0.694656,0.000000
214.000000,0.002000,0.355912,0.000128,0.399752,-4.085337,3.632410,0.610316,-12.866358,-0.305138,-12.588212,0.002000,0.258262,0.000000
215.000000,0.002000,-0.362952,0.498340,1.657495,1.300705,-1.240688,0.167071,1.068608,-1.372265,-4.312718,0.002000,-3.473547,0.000000
216.000000,0.002000,-0.051026,-0.011756,0.397935,-0.481055,3.692178,3.276493,-0.269937,1.432058,-20.547043,0.002000,0.426862,0.000000
217.000000,0.002000,0.332511,-0.524142,-0.301386,-1.067103,3.915676,-1.164105,-6.917204,11.126546,6.512601,0.002000,-0.337514,0.000000
218.000000,0.002000,-2.400526,-2.627174,-1.980044,-1.135227,0.369260,0.475277,0.662908,0.736829,0.559693,0.002000,0.678248,0.000000
219.000000,0.002000,-0.027267,-0.050161,0.250918,-2.499077,-2.198186,-1.362523,0.902392,1.414282,-15.856665,0.002000,-0.078845,0.000000
220.000000,0.002000,0.917236,0.185133,-0.408106,-2.098954,-0.112452,2.404921,-9.219068,-1.480856,4.234537,0.002000,0.027003,0.000000
221.000000,0.002000,-2.062076,0.650701,1.930689,-0.058211,-1.008848,-0.147009,1.432652,-0.395662,-1.380986,0.002000,-0.782613,0.000000
222.000000,0.002000,-0.265024,-0.053271,-0.249788,-0.656666,1.598715,2.090398,13.231810,6.958267,13.483671,0.002000,0.355912,0.000000
223.000000,0.002000,1.072091,-3.302585,0.161060,-0.027201,0.279519,-0.513334,-0.449403,1.377159,-0.061292,0.002000,-0.362952,0.000000
224.000000,0.002000,0.142596,1.981436,-2.396271,0.237168,-1.438739,-0.119663,-0.067960,-1.130735,1.396975,0.002000,-0.051026,0.000000
225.000000,0.002000,-1.117237,-0.500024,-0.036245,-2.173766,0.689135,-1.605644,7.630039,4.013044,0.479040,0.002000,0.332511,0.000000
226.000000,0.002000,0.645947,0.318158,-0.026881,-1.150718,0.040752,-0.654003,-13.908286,-4.569412,-0.008847,0.002000,-2.400526,0.000000
227.000000,0.002000,-0.040233,-0.413109,-0.417244,0.299888,-2.390826,-2.243356,0.388091,12.125529,11.363087,0.002000,-0.027267,0.000000
228.000000,0.002000,1.758715,1.298896,1.374007,-0.829639,-0.915047,1.460801,-1.639349,-1.163886,-1.356809,0.002000,0.917236,0.000000
229.000000,0.002000,4.911790,-2.252419,0.241916,0.430831,1.105132,-0.870534,-0.602144,0.278023,-0.033185,0.002000,-2.062076,0.000000
230.000000,0.002000,-1.155973,-3.476168,-3.416712,-0.482205,-0.345170,0.132979,0.181389,0.537494,0.532469,0.002000,-0.265024,0.000000
231.000000,0.002000,0.879149,0.836319,-0.863581,-0.821326,0.245559,-0.871481,-3.717480,-3.369052,3.530417,0.002000,1.072091,0.000000
232.000000,0.002000,-0.844334,-0.662965,0.266687,2.467630,1.943366,-1.018876,6.954974,6.350183,-2.249150,0.002000,0.142596,0.000000
233.000000,0.002000,-0.160908,-0.368029,-0.779660,0.169554,0.675174,-0.151939,2.349511,5.824422,10.976787,0.002000,-1.117237,0.000000
234.000000,0.002000,-0.670876,0.474732,1.119581,-1.063461,2.897727,0.548832,3.293606,-2.110571,-5.853976,0.002000,0.645947,0.000000
235.000000,0.002000,-0.019999,-0.239654,0.068304,-5.645073,-0.481458,1.568907,-1.100306,20.131280,-8.361274,0.002000,-0.040233,0.000000
236.000000,0.002000,1.216736,1.865473,-1.167851,0.682687,-1.273962,1.454777,-1.266620,-1.913871,1.225804,0.002000,1.758715,0.000000
237.000000,0.002000,-0.335787,0.281694,0.355767,1.297412,3.803785,1.083884,9.267765,-9.829751,-11.392246,0.002000,4.911790,0.000000
238.000000,0.002000,0.508599,-0.265192,-0.212025,-2.695128,-1.453923,0.598981,-17.185377,5.053365,6.147505,0.002000,-1.155973,0.000000
239.000000,0.002000,0.945320,0.524413,-0.536833,-0.253062,1.794475,0.508987,-6.733032,-2.971198,3.967587,0.002000,0.879149,0.000000
240.000000,0.002000,-0.340241,0.146115,-0.095328,-0.170168,3.339171,-0.828784,9.115327,-11.918747,9.079751,0.002000,-0.844334,0.000000
241.000000,0.002000,0.689603,-0.280236,0.076686,-2.049942,-1.262859,0.274716,-13.486106,5.551822,-1.448822,0.002000,-0.160908,0.000000
242.000000,0.002000,-0.197444,1.002528,-0.600813,0.272464,-3.731186,1.152070,0.813288,-7.597154,4.548572,0.002000,-0.670876,0.000000
243.000000,0.002000,0.245564,-0.820336,0.016848,0.183229,-1.115560,0.511381,-3.500157,11.687572,0.305454,0.002000,-0.019999,0.000000
244.000000,0.002000,-0.042186,0.402785,0.449294,-2.667733,-0.929971,-0.203314,0.488945,-12.905340,-13.401730,0.002000,1.216736,0.000000
245.000000,0.002000,4.210250,1.503154,-5.109224,-0.319683,0.808121,-1.533245,-0.271211,-0.095405,0.329770,0.002000,-0.335787,0.000000
246.000000,0.002000,2.463128,-1.684813,1.954437,-0.216779,-0.015567,-0.065409,-0.917784,0.648021,-0.786597,0.002000,0.508599,0.000000
247.000000,0.002000,0.692518,-1.479383,-2.242628,-1.502976,-0.478088,0.291779,-0.555485,1.167742,1.711166,0.002000,0.945320,0.000000
248.000000,0.002000,-0.114268,0.321773,0.514841,-1.406781,2.787025,2.100380,4.945907,-9.252867,-15.072693,0.002000,-0.340241,0.000000
249.000000,0.002000,0.216735,0.044212,-0.095625,0.388622,1.068618,1.085493,-15.926762,-3.495043,9.341864,0.002000,0.689603,0.000000
250.000000,0.002000,0.108023,-0.235577,-0.220208,-0.786619,4.057796,-3.487689,-6.020417,4.564324,13.525586,0.002000,-0.197444,0.000000
251.000000,0.002000,-1.461862,-2.418463,-1.435831,0.982243,-0.077601,0.828548,0.781488,1.321156,0.761808,0.002000,0.245564,0.000000
252.000000,0.002000,0.304893,-0.252871,0.247900,3.578038,0.900707,0.935361,-14.173365,10.899476,-11.111709,0.002000,-0.042186,0.000000
253.000000,0.002000,0.257951,0.516187,0.050105,1.275661,-2.216509,0.092719,-8.274753,-15.757723,-0.828074,0.002000,4.210250,0.000000
254.000000,0.002000,0.496100,-0.900125,0.729995,-2.703143,0.144985,-0.114916,-2.865353,5.348660,-4.347438,0.002000,2.463128,0.000000
255.000000,0.002000,0.465117,-0.568410,0.207381,0.099218,1.867623,1.234180,-9.290469,10.171635,-3.904389,0.002000,0.692518,0.000000
256.000000,0.002000,0.396758,-1.320970,-0.409803,-0.307691,-1.023806,-0.276896,-1.877726,5.735004,1.785246,0.002000,-0.114268,0.000000
257.000000,0.002000,-0.751230,-0.092016,0.161407,2.437222,2.158464,0.759970,14.789335,2.843688,-3.353110,0.002000,0.216735,0.000000
258.000000,0.002000,0.163896,-0.063688,0.251606,2.104263,0.703287,2.235812,-12.038495,3.999882,-15.232238,0.002000,0.108023,0.000000
259.000000,0.002000,0.052262,-1.225139,-0.294651,1.342330,-0.274022,-1.402108,-0.572889,7.456324,1.412302,0.002000,-1.461862,0.000000
260.000000,0.002000,0.566341,1.388658,0.765219,0.660320,-0.456105,2.033438,-1.846193,-4.188795,-2.491018,0.002000,0.304893,0.000000
261.000000,0.002000,0.866615,0.416331,0.253358,2.616168,-1.562598,0.045359,-9.830824,-2.178875,-4.156145,0.002000,0.257951,0.000000
262.000000,0.002000,0.899965,-0.882967,0.715704,-0.814378,-1.247562,2.176858,-3.753200,3.770714,-3.028412,0.002000,0.496100,0.000000
263.000000,0.002000,-0.579622,-0.362053,0.673911,0.275733,-0.581959,2.199023,5.941120,6.124199,-8.765743,0.002000,0.465117,0.000000
264.000000,0.002000,-0.943130,0.473133,-0.796209,-0.027856,-0.653617,0.036358,5.612609,-2.718696,4.542597,0.002000,0.396758,0.000000
265.000000,0.002000,-0.406264,0.350771,-0.377428,-1.915421,2.486637,1.138593,10.960573,-8.330788,9.854469,0.002000,-0.751230,0.000000
266.000000,0.002000,-0.847759,1.666370,1.374814,0.414989,-0.140274,0.545468,1.112244,-2.274226,-1.862860,0.002000,0.163896,0.000000
267.000000,0.002000,1.290870,0.672676,-0.129771,-2.251329,-0.175350,-0.846612,-5.674301,-2.794838,0.555737,0.002000,0.052262,0.000000
268.000000,0.002000,0.702546,0.180464,-0.471110,1.150517,-1.097655,-0.131336,-10.154709,-2.461310,6.550918,0.002000,0.566341,0.000000
269.000000,0.002000,0.063600,0.048578,0.076499,2.028719,-1.589131,-2.804621,-2.657038,-2.033023,-10.227863,0.002000,0.866615,0.000000
270.000000,0.002000,0.675983,-0.440884,0.583878,0.249818,4.091804,0.380820,-7.236264,4.871651,-6.082599,0.002000,0.899965,0.000000
271.000000,0.002000,0.086933,-0.308867,-0.193641,2.901039,1.208209,-2.514706,-0.316797,16.673833,8.296345,0.002000,-0.579622,0.000000
272.000000,0.002000,-0.465899,-1.745668,2.680729,-0.497789,1.167942,0.601483,0.265737,0.841843,-1.416916,0.002000,-0.943130,0.000000
273.000000,0.002000,-0.265560,0.969439,-0.615779,1.748483,1.106069,-1.379046,1.757038,-7.505274,4.881791,0.002000,-0.406264,0.000000
274.000000,0.002000,-0.167044,-0.123318,-0.218087,-1.705393,-1.150562,0.160746,7.855230,7.076605,13.973600,0.002000,-0.847759,0.000000
275.000000,0.002000,0.765484,0.082893,0.038683,-2.175106,0.674310,1.185055,-14.294846,-0.829780,-0.734370,0.002000,1.290870,0.000000
276.000000,0.002000,0.006256,-2.435083,-2.513548,0.050627,0.471136,0.921022,-0.054047,1.026504,1.063506,0.002000,0.702546,0.000000
277.000000,0.002000,0.269601,0.591640,-0.513372,2.344580,1.107148,-1.160766,-5.151562,-8.055612,9.029578,0.002000,0.063600,0.000000
278.000000,0.002000,-0.085587,-0.062662,-0.039065,3.551735,-1.004929,0.224765,-0.519640,-0.015669,10.549905,0.002000,0.675983,0.000000
279.000000,0.002000,-0.298422,-0.839839,-0.244026,-0.434454,-0.845566,-0.880544,3.378381,10.668513,3.400883,0.002000,0.086933,0.000000
280.000000,0.002000,0.216240,0.237562,-0.147391,-0.864399,-0.157585,-0.435625,-12.395611,-10.330652,7.237359,0.002000,-0.465899,0.000000
281.000000,0.002000,0.642261,0.202700,0.304302,-1.622968,1.222900,-3.042824,-11.592937,-2.518562,-5.633461,0.002000,-0.265560,0.000000
282.000000,0.002000,1.762771,0.421313,0.067527,-0.916382,0.980410,2.585070,-4.260868,-0.946736,-0.196463,0.002000,-0.167044,0.000000
283.000000,0.002000,-0.184596,-0.761996,-0.307050,-1.764306,-0.158109,0.892777,2.292571,11.863363,4.496604,0.002000,0.765484,0.000000
284.000000,0.002000,-4.565627,-0.398365,2.835131,-0.604977,-0.637911,0.097718,0.576158,0.054967,-0.355450,0.002000,0.006256,0.000000
285.000000,0.002000,-0.097448,-0.017679,-0.099970,-4.801211,0.616121,-0.678674,0.041669,4.892667,5.611602,0.002000,0.269601,0.000000
286.000000,0.002000,-1.285776,0.078688,-0.080881,-0.369397,-2.895752,-0.709692,7.872717,-0.214686,0.440059,0.002000,-0.085587,0.000000
287.000000,0.002000,0.069198,0.493404,-0.098025,-0.906883,-0.164465,1.132389,-6.190332,-18.860673,3.004666,0.002000,-0.298422,0.000000
288.000000,0.002000,-0.164967,0.327913,-0.025959,-0.661868,-0.385078,0.889725,5.417468,-15.672565,1.612956,0.002000,0.216240,0.000000
289.000000,0.002000,0.488196,0.034334,-0.111411,-1.632851,-0.648254,0.995580,-16.128918,1.075904,3.487448,0.002000,0.642261,0.000000
290.000000,0.002000,-0.123687,-0.458901,0.343323,0.270377,1.116787,-0.313914,0.676069,14.776263,-10.088457,0.002000,1.762771,0.000000
291.000000,0.002000,1.071760,0.145567,-1.453141,-0.574814,-1.191147,2.376701,-2.636637,-0.181849,3.371539,0.002000,-0.184596,0.000000
292.000000,0.002000,0.082481,-0.327912,0.359492,-2.234928,-0.577846,-1.250088,-6.244565,14.872392,-13.114375,0.002000,-4.565627,0.000000
293.000000,0.002000,0.146747,-0.271248,0.025090,1.929676,-0.217632,0.775247,-9.792028,15.155514,0.576967,0.002000,-0.097448,0.000000
294.000000,0.002000,1.649874,-0.254065,1.342699,0.891840,-1.152883,-0.310866,-2.607301,0.451961,-2.119349,0.002000,-1.285776,0.000000
295.000000,0.002000,0.294467,0.191025,0.180183,2.187717,0.856476,-1.222525,-16.128067,-7.810289,-7.728384,0.002000,0.069198,0.000000
296.000000,0.002000,0.009903,0.184499,-0.683634,-2.379044,2.587222,-0.215604,-0.650123,-4.743669,14.487605,0.002000,-0.164967,0.000000
297.000000,0.002000,-0.094565,0.273966,-0.002945,1.543527,-1.102417,-2.827483,-3.163554,-15.356586,5.389197,0.002000,0.488196,0.000000
298.000000,0.002000,0.813559,-0.206406,0.043291,2.157891,-2.343554,0.756922,-12.562619,2.574364,-0.856077,0.002000,-0.123687,0.000000
299.000000,0.002000,2.471336,2.021841,1.462516,0.327112,1.196890,0.121768,-1.008405,-0.776317,-0.578818,0.002000,1.071760,0.000000
300.000000,0.002000,0.313192,-1.135366,-0.270449,2.366224,0.881078,3.414188,-2.087352,7.465126,1.730620,0.002000,0.082481,0.000000
301.000000,0.002000,0.279372,-0.642633,-0.892885,-0.089310,-2.047536,-1.831624,-2.368239,5.339632,7.107666,0.002000,0.146747,0.000000
302.000000,0.002000,0.163034,0.234341,-0.918260,-1.082978,1.297899,-1.921583,-3.778840,0.611194,10.218612,0.002000,1.649874,0.000000
303.000000,0.002000,-2.189478,-1.721832,0.828101,1.202049,-0.136315,0.809983,1.508930,1.209502,-0.604903,0.002000,0.294467,0.000000
304.000000,0.002000,-0.313355,-0.078882,0.127949,1.295316,-2.817531,-3.739474,17.021539,5.651607,-7.463519,0.002000,0.009903,0.000000
305.000000,0.002000,-2.117258,-0.711632,1.028829,-0.755808,0.537148,0.504176,2.328342,0.788898,-1.158919,0.002000,-0.094565,0.000000
306.000000,0.002000,0.718117,-0.331712,-0.028231,-0.396190,0.070779,-0.072618,-12.730438,5.417637,0.804236,0.002000,0.813559,0.000000
307.000000,0.002000,-0.175012,-0.393724,0.071200,-0.505004,1.229114,3.437920,5.527404,18.510100,-2.834266,0.002000,2.471336,0.000000
308.000000,0.002000,3.234377,-2.082863,-1.432729,0.119400,0.802215,0.232105,-0.862985,0.568859,0.370747,0.002000,0.313192,0.000000
309.000000,0.002000,1.697480,-0.151121,0.635397,-2.214683,1.405789,-0.970521,-4.017668,0.385986,-1.483862,0.002000,0.279372,0.000000
310.000000,0.002000,0.635953,-0.476343,0.106203,-0.728882,1.464314,2.233705,-10.969641,8.303629,-2.756150,0.002000,0.163034,0.000000
311.000000,0.002000,-0.193394,-1.757404,1.969556,1.141268,0.974916,-0.933258,0.071171,1.521456,-1.628931,0.002000,-2.189478,0.000000
312.000000,0.002000,1.301481,0.024515,-1.014807,2.724193,0.275592,-0.502071,-3.892840,0.129699,3.085935,0.002000,-0.313355,0.000000
313.000000,0.002000,-1.554024,0.184588,-1.510326,1.295245,1.525414,1.390487,2.457115,-0.614666,2.510336,0.002000,-2.117258,0.000000
314.000000,0.002000,0.591281,-0.437439,-0.696131,0.623286,-1.587294,0.693360,-5.400677,3.617433,5.643350,0.002000,0.718117,0.000000
315.000000,0.002000,-1.985581,-1.155506,-0.310444,-2.260410,-0.353219,-0.386566,2.524444,1.514084,0.315707,0.002000,-0.175012,0.000000
316.000000,0.002000,0.011756,0.083563,0.849772,-2.675313,-0.617598,2.388320,-0.233320,-0.737123,-13.375550,0.002000,3.234377,0.000000
317.000000,0.002000,0.740835,-0.317233,-0.644964,-1.051125,-0.619076,2.642135,-7.837197,2.654503,6.618154,0.002000,1.697480,0.000000
318.000000,0.002000,-0.231675,-0.714010,-0.420701,-0.230356,2.091422,-1.278092,2.869277,10.590703,6.107289,0.002000,0.635953,0.000000
319.000000,0.002000,-0.198791,0.036571,-0.440264,1.757015,0.569052,-2.290174,6.478305,1.499594,18.075766,0.002000,-0.193394,0.000000
320.000000,0.002000,-1.133288,-2.541735,-3.573394,-0.238233,0.582608,-0.466383,0.293844,0.618098,0.786264,0.002000,1.301481,0.000000
321.000000,0.002000,0.516619,0.146689,-0.588271,0.055597,-0.843432,-0.055629,-9.168239,-2.087864,9.935601,0.002000,-1.554024,0.000000
322.000000,0.002000,-0.602651,-0.257280,0.054542,-0.820610,2.598894,0.408042,16.754770,6.449486,-1.404760,0.002000,0.591281,0.000000
323.000000,0.002000,-0.158555,0.855121,-0.345591,-0.317769,1.837782,1.193662,1.419887,-10.626379,4.692507,0.002000,-1.985581,0.000000
324.000000,0.002000,0.145356,0.166633,-0.221986,2.536276,-1.088753,2.515890,-9.789895,-8.373127,12.780565,0.002000,0.011756,0.000000
325.000000,0.002000,0.372200,0.507599,-3.039061,0.658310,2.165209,0.257673,0.057114,-0.217126,1.954965,0.002000,0.740835,0.000000
326.000000,0.002000,0.531624,-0.177917,1.107961,0.954958,1.509369,2.651506,-3.229689,1.415023,-6.918799,0.002000,-0.231675,0.000000
327.000000,0.002000,-0.169540,0.127039,0.084013,0.595588,-1.359578,0.695199,10.465672,-7.132036,-4.072472,0.002000,-0.198791,0.000000
328.000000,0.002000,0.127710,0.204774,-0.498335,0.945015,-0.751833,1.835240,-6.202044,-7.168123,15.083030,0.002000,-1.133288,0.000000
329.000000,0.002000,-0.118438,0.307667,-0.108914,-0.886314,-2.310556,1.749870,3.711582,-13.157590,5.825877,0.002000,0.516619,0.000000
330.000000,0.002000,-0.330917,-0.291876,0.222706,0.236499,4.040687,-0.526622,10.756834,11.930618,-8.695434,0.002000,-0.602651,0.000000
331.000000,0.002000,0.205150,-0.056980,0.124711,1.974018,-0.735084,2.888580,-13.861630,6.529487,-5.488861,0.002000,-0.158555,0.000000
332.000000,0.002000,-0.070715,0.006288,-0.333084,-0.681929,-1.161886,3.372938,0.531590,0.919435,14.962171,0.002000,0.145356,0.000000
333.000000,0.002000,0.907368,0.126581,-0.251389,-2.730955,-0.117890,-2.225336,-11.219053,-0.757709,3.661596,0.002000,0.372200,0.000000
334.000000,0.002000,0.031315,-0.232912,-0.604711,1.463831,-0.610619,3.708699,-5.149833,7.964623,16.122757,0.002000,0.531624,0.000000
335.000000,0.002000,-0.397065,0.064564,0.375011,-0.648434,-0.340401,0.031336,15.041411,-2.288526,-13.661637,0.002000,-0.169540,0.000000
336.000000,0.002000,0.277908,0.300785,0.039033,-1.195291,-0.018967,-4.235061,-11.765118,-12.028575,-6.121579,0.002000,0.127710,0.000000
337.000000,0.002000,-0.005384,0.508302,-0.110842,1.399616,1.387133,3.345255,-3.395667,-18.806953,3.385156,0.002000,-0.118438,0.000000
338.000000,0.002000,2.882140,2.093316,-0.574726,0.452274,-0.349491,1.321469,-1.143998,-0.858017,0.271163,0.002000,-0.330917,0.000000
339.000000,0.002000,0.487512,0.276187,-0.098205,-1.482284,2.070106,-1.017859,-14.121483,-8.226453,2.891516,0.002000,0.205150,0.000000
340.000000,0.002000,-2.282108,1.343845,0.740591,-0.563779,-1.232585,-0.722114,1.818403,-1.071853,-0.632893,0.002000,-0.070715,0.000000
341.000000,0.002000,-0.461631,0.339825,0.332051,0.529347,-0.508921,-1.234588,11.404651,-9.845618,-8.362154,0.002000,0.907368,0.000000
342.000000,0.002000,-0.117228,0.064993,-3.588339,-0.570560,0.838567,0.535180,0.021388,-0.090033,1.427947,0.002000,0.031315,0.000000
343.000000,0.002000,0.506767,0.214892,-0.533148,1.421644,-2.934518,0.063599,-9.698787,-4.576259,9.719153,0.002000,-0.397065,0.000000
344.000000,0.002000,-0.180825,-0.120023,0.021234,-1.682999,3.689286,-1.279539,9.612652,11.434000,3.353217,0.002000,0.277908,0.000000
345.000000,0.002000,-0.889648,-0.614073,0.781685,1.440997,0.029903,-0.097603,4.765159,3.697201,-4.507670,0.002000,-0.005384,0.000000
346.000000,0.002000,1.727899,0.025726,1.808782,-0.458937,1.424442,-0.853090,-1.761533,-0.018421,-1.879905,0.002000,2.882140,0.000000
347.000000,0.002000,-0.247925,1.553243,-0.278166,0.211818,0.180723,2.327704,0.897164,-5.335098,0.891064,0.002000,0.487512,0.000000
348.000000,0.002000,-0.102855,0.003259,0.068359,3.661715,2.789843,-1.720552,5.502174,-3.570702,-4.564377,0.002000,-2.282108,0.000000
349.000000,0.002000,-0.998585,-0.378137,-0.272430,-1.176939,1.384075,-2.147737,8.775658,3.815830,2.910252,0.002000,-0.461631,0.000000
350.000000,0.002000,0.694294,0.748206,-0.173117,0.207574,-1.041352,2.222799,-6.761417,-7.358272,2.089563,0.002000,-0.117228,0.000000
351.000000,0.002000,0.773838,0.851774,0.125282,-1.521175,-2.228238,1.540226,-6.297011,-6.417606,-1.406603,0.002000,0.506767,0.000000
352.000000,0.002000,-0.034498,-1.480694,-0.998681,1.829543,0.798630,-2.870429,0.021530,3.683123,2.330631,0.002000,-0.180825,0.000000
353.000000,0.002000,-0.928038,0.034194,-0.509939,2.676801,2.521206,2.005782,9.256084,0.057506,5.046049,0.002000,-0.889648,0.000000
354.000000,0.002000,-0.087809,-0.047187,0.176539,2.379531,3.782818,-0.105095,7.141403,2.861476,-11.923899,0.002000,1.727899,0.000000
355.000000,0.002000,-0.013648,0.015542,0.018885,-1.731675,0.235888,-0.372778,-1.401584,2.386128,3.726201,0.002000,-0.247925,0.000000
356.000000,0.002000,-0.013112,0.127030,0.253147,2.831490,0.853759,-2.540135,-1.365811,-6.285098,-10.605519,0.002000,-0.102855,0.000000
357.000000,0.002000,-0.388683,-0.885990,0.006271,-1.344874,-3.051566,2.301362,3.713513,10.285144,-0.047219,0.002000,-0.998585,0.000000
358.000000,0.002000,0.819501,-0.560001,0.001817,-1.269796,-1.283051,-3.122786,-8.725634,5.746509,0.504136,0.002000,0.694294,0.000000
359.000000,0.002000,0.929524,-0.322467,0.588533,0.364237,-1.953019,-0.938679,-6.268043,2.296554,-4.600419,0.002000,0.773838,0.000000
360.000000,0.002000,-1.149085,-1.028190,0.445304,3.063907,-0.074521,-0.022925,3.817671,3.731603,-1.566614,0.002000,-0.034498,0.000000
361.000000,0.002000,-0.235689,0.133372,-0.192117,-2.344903,-0.229667,0.844962,13.585341,-6.470631,13.118041,0.002000,-0.928038,0.000000
362.000000,0.002000,-0.361927,0.409407,-0.264372,1.296099,2.735549,0.830096,11.680248,-13.802268,8.714451,0.002000,-0.087809,0.000000
363.000000,0.002000,0.027507,0.752126,-0.612539,-0.427503,0.222581,0.553123,-0.584730,-8.789182,7.417351,0.002000,-0.013648,0.000000
364.000000,0.002000,0.478429,-0.523583,-0.020827,-2.161498,0.105653,-0.821794,-9.474342,11.133202,-0.160288,0.002000,-0.013112,0.000000
365.000000,0.002000,0.739039,0.976016,-4.686408,-0.258090,-0.065461,0.097344,-0.126916,-0.182369,0.837548,0.002000,-0.388683,0.000000
366.000000,0.002000,0.109388,-0.231642,0.079914,0.983894,-0.091171,-2.191938,-9.323045,13.802627,-3.265985,0.002000,0.819501,0.000000
367.000000,0.002000,-0.310852,-0.388392,0.814755,-1.485701,-0.131495,-0.556740,3.711691,1.314188,-9.701823,0.002000,0.929524,0.000000
368.000000,0.002000,0.563013,1.537624,-1.398880,1.324273,-1.870745,-0.126738,-0.862959,-2.363091,2.261520,0.002000,-1.149085,0.000000
369.000000,0.002000,-0.190121,-0.195669,-0.160468,-0.084916,-0.353287,-1.908598,9.683214,12.664296,11.387558,0.002000,-0.235689,0.000000
370.000000,0.002000,0.000835,0.402071,-0.190367,0.600505,1.375671,4.131341,-0.434863,-15.416414,8.236885,0.002000,-0.361927,0.000000
371.000000,0.002000,0.993080,-0.562299,0.029830,2.464641,-0.777546,0.569146,-7.623787,4.292869,-0.188313,0.002000,0.027507,0.000000
372.000000,0.002000,2.033906,-1.342154,-3.705390,0.213481,0.104018,-0.485179,-0.456978,0.284359,0.812193,0.002000,0.478429,0.000000
373.000000,0.002000,1.276196,-0.639187,-0.845923,1.366407,0.053466,1.294973,-3.726666,1.986217,2.470645,0.002000,0.739039,0.000000
374.000000,0.002000,-0.390576,-0.496707,-1.722861,-1.312968,0.864732,-0.168319,0.860016,1.201674,4.022128,0.002000,0.109388,0.000000
375.000000,0.002000,-0.401989,-1.384414,1.300587,-1.224710,1.798031,-0.897446,0.739381,2.788057,-2.557064,0.002000,-0.310852,0.000000
376.000000,0.002000,-0.027743,0.296566,-0.231228,-0.882301,-1.132066,0.404560,0.627231,-12.989883,12.268204,0.002000,0.563013,0.000000
377.000000,0.002000,-1.216081,-2.060032,1.707580,0.241952,-0.286863,-1.252390,0.802935,1.336135,-1.138566,0.002000,-0.190121,0.000000
378.000000,0.002000,-0.440614,1.545075,-1.180058,0.027132,-0.315769,-0.289757,0.804604,-2.826888,2.381133,0.002000,0.000835,0.000000
379.000000,0.002000,-0.052015,-0.012839,0.097416,-0.063677,-1.953806,-0.853085,1.456347,-1.476534,-0.963675,0.002000,0.993080,0.000000
380.000000,0.002000,0.086769,0.109465,0.264939,-0.225831,-4.354637,0.110563,-15.399045,-3.309592,-20.284411,0.002000,2.033906,0.000000
381.000000,0.002000,3.842067,0.031568,-1.920508,-0.011698,-0.284743,0.160371,-0.914656,-0.000264,0.451203,0.002000,1.276196,0.000000
382.000000,0.002000,-0.765820,0.002109,-0.188807,-1.249553,-2.237995,0.941782,17.453507,0.855195,2.578525,0.002000,-0.390576,0.000000
383.000000,0.002000,0.000466,-0.017317,0.423239,-1.982876,-1.362534,1.473889,-1.598845,2.125854,-21.396065,0.002000,-0.401989,0.000000
384.000000,0.002000,0.018916,-0.392612,0.415663,-0.239658,3.213349,-1.058625,-2.429746,13.526745,-12.618627,0.002000,-0.027743,0.000000
385.000000,0.002000,-0.437011,-0.316751,0.510728,-0.014895,-0.095589,0.653499,8.601115,7.727335,-11.368963,0.002000,-1.216081,0.000000
386.000000,0.002000,-0.599961,0.459485,0.122058,-1.391344,1.514764,1.039258,12.375149,-9.577844,-2.749581,0.002000,-0.440614,0.000000
387.000000,0.002000,-2.667597,-1.512299,2.081621,0.605092,-0.325830,-0.329203,0.943528,0.539271,-0.748776,0.002000,-0.052015,0.000000
388.000000,0.002000,-0.252396,0.661716,-0.780487,0.301915,0.902887,-0.113828,2.973801,-5.745161,8.369131,0.002000,0.086769,0.000000
389.000000,0.002000,-1.261407,0.907375,-0.211928,0.655080,0.611726,2.096779,4.559305,-3.442526,0.666523,0.002000,3.842067,0.000000
390.000000,0.002000,-0.284872,0.251840,-0.961749,0.836558,0.652950,1.210570,3.085596,-2.703323,9.905166,0.002000,-0.765820,0.000000
391.000000,0.002000,0.502652,-0.627189,-0.231577,-1.758258,2.493789,0.310019,-8.166335,10.085963,3.890059,0.002000,0.000466,0.000000
392.000000,0.002000,-0.466668,0.385593,0.048655,2.619474,1.986856,-0.895234,10.877714,-10.695563,1.937675,0.002000,0.018916,0.000000
393.000000,0.002000,-0.182740,-0.218419,-0.665501,-1.365653,-1.327118,0.227603,1.590566,4.223390,13.221833,0.002000,-0.437011,0.000000
394.000000,0.002000,0.058720,0.749606,-0.108625,1.825741,0.815700,-0.743272,-2.059553,-14.700396,1.603929,0.002000,-0.599961,0.000000
395.000000,0.002000,0.242851,0.937565,-0.400090,0.978289,1.753352,-0.134486,-2.431866,-9.502775,4.084605,0.002000,-2.667597,0.000000
396.000000,0.002000,0.033141,0.327947,0.008697,0.425837,1.271128,-1.967918,-2.722054,-15.210618,3.904660,0.002000,-0.252396,0.000000
397.000000,0.002000,0.510187,0.217202,-0.122083,-1.283160,-1.871388,-0.459395,-12.393021,-6.988132,3.567110,0.002000,-1.261407,0.000000
398.000000,0.002000,2.071733,-0.132275,-0.287295,1.120117,-0.138219,0.022076,-3.440216,0.316877,0.441910,0.002000,-0.284872,0.000000
399.000000,0.002000,0.519409,-0.438491,-0.426810,1.113434,-4.139484,-1.974949,-8.415753,7.296358,6.913730,0.002000,0.502652,0.000000
400.000000,0.002000,-0.723801,-0.395203,-0.144397,-0.226438,4.122397,-2.197609,11.299519,7.127239,2.771767,0.002000,-0.466668,0.000000
401.000000,0.002000,4.193781,-0.396726,-2.864183,0.226245,-0.342703,0.083174,-0.626244,0.064069,0.426868,0.002000,-0.182740,0.000000
402.000000,0.002000,0.122150,-0.038238,-0.429326,1.807190,-3.683535,0.635579,-6.164570,2.861580,16.471389,0.002000,0.058720,0.000000
403.000000,0.002000,-2.251740,-0.948995,1.708403,1.179654,-0.161409,0.199146,1.418720,0.614472,-1.029937,0.002000,0.242851,0.000000
404.000000,0.002000,-0.293329,-0.209274,-1.509274,-0.609509,-0.219690,1.919873,1.686312,1.107808,4.999127,0.002000,0.033141,0.000000
405.000000,0.002000,-0.224028,-0.176984,0.011632,-0.776567,0.391254,2.254879,11.533626,10.510192,-1.145735,0.002000,0.510187,0.000000
406.000000,0.002000,-0.124138,-0.169957,-0.198348,-0.341414,-2.100324,0.593282,4.905561,10.772145,15.656639,0.002000,2.071733,0.000000
407.000000,0.002000,0.276698,0.319673,0.327743,-0.063223,-0.543775,0.191168,-11.326369,-10.823823,-9.418370,0.002000,0.519409,0.000000
408.000000,0.002000,-0.908639,0.942453,-0.397870,0.276013,1.623873,0.069713,4.660768,-5.144787,1.929426,0.002000,-0.723801,0.000000
409.000000,0.002000,0.106872,-0.333444,-0.176786,-2.318100,1.523035,1.994831,-3.936049,23.348159,4.606782,0.002000,4.193781,0.000000
410.000000,0.002000,0.263631,1.405831,-1.148716,-0.201700,-0.005077,-1.709073,-0.626596,-3.325741,2.773669,0.002000,0.122150,0.000000
411.000000,0.002000,-1.217109,-0.858881,0.112097,1.342057,0.435896,-1.871128,5.096178,3.607129,-0.482841,0.002000,-2.251740,0.000000
412.000000,0.002000,-2.041403,-3.098881,1.405550,0.684801,-0.034269,-0.574703,0.598116,0.919872,-0.420902,0.002000,-0.293329,0.000000
413.000000,0.002000,0.206306,-0.237805,0.200419,-1.305102,0.129040,0.864841,-8.712194,9.372799,-8.876341,0.002000,-0.224028,0.000000
414.000000,0.002000,2.247105,2.429274,1.861442,-0.438601,1.065144,0.023267,-0.710563,-0.795796,-0.679896,0.002000,-0.124138,0.000000
415.000000,0.002000,-0.558651,-0.490773,-0.428255,-1.720387,-0.083627,-2.341846,7.827816,7.068229,6.479384,0.002000,0.276698,0.000000
416.000000,0.002000,-0.307461,-0.138409,-0.155923,-0.382387,2.433669,-4.455902,9.947278,8.281792,10.296700,0.002000,-0.908639,0.000000
417.000000,0.002000,0.408029,0.576614,1.995388,-0.462812,-1.163393,-1.994244,-0.647843,-0.909686,-3.227153,0.002000,0.106872,0.000000
418.000000,0.002000,0.038961,0.243186,1.415688,0.262173,0.952390,0.449703,-0.723578,-0.840521,-6.224177,0.002000,0.263631,0.000000
419.000000,0.002000,2.664113,3.877602,-1.067121,0.490385,0.376649,-1.401544,-0.464570,-0.674353,0.193328,0.002000,-1.217109,0.000000
420.000000,0.002000,1.098121,0.393499,1.798822,0.256941,0.497449,1.380215,-2.593360,-0.311622,-3.286250,0.002000,-2.041403,0.000000
421.000000,0.002000,0.124029,0.395002,0.512170,0.675114,1.221782,-0.307873,-3.357613,-7.505824,-12.720630,0.002000,0.206306,0.000000
422.000000,0.002000,0.345937,0.219741,-0.103936,4.006347,3.780206,-2.137558,-14.936496,-7.846943,4.974443,0.002000,2.247105,0.000000
423.000000,0.002000,-0.763932,-5.233805,4.006164,-0.391046,-0.802742,0.666057,0.053020,0.352486,-0.269408,0.002000,-0.558651,0.000000
424.000000,0.002000,0.682933,3.052682,2.367286,0.715981,0.315522,1.046176,-0.224846,-0.938408,-0.742629,0.002000,-0.307461,0.000000
425.000000,0.002000,-0.816087,0.421386,0.281800,1.077605,-0.448462,1.585720,8.197428,-4.085452,-4.216239,0.002000,0.408029,0.000000
426.000000,0.002000,-0.854430,0.697660,0.434313,0.917503,-0.957367,0.889884,6.588481,-5.614430,-3.382766,0.002000,0.038961,0.000000
427.000000,0.002000,-0.159344,-1.372136,-0.319618,-1.927888,1.484688,-0.226766,0.503886,6.427639,1.395525,0.002000,2.664113,0.000000
428.000000,0.002000,0.412698,-0.644498,-0.048862,-0.481696,0.296136,3.602350,-7.274149,12.619739,0.688428,0.002000,1.098121,0.000000
429.000000,0.002000,0.877013,0.168510,-0.206686,0.125951,-2.025204,0.354522,-11.953913,-1.905332,2.799378,0.002000,0.124029,0.000000
430.000000,0.002000,2.432616,-1.763578,-0.173402,-1.052486,0.646501,0.719263,-1.498646,1.127101,0.095383,0.002000,0.345937,0.000000
431.000000,0.002000,-0.338078,0.436748,0.253511,-0.401638,-2.260260,0.467030,11.545266,-13.016755,-7.088963,0.002000,-0.763932,0.000000
432.000000,0.002000,0.429576,0.468445,-0.426562,-1.484968,-3.046546,2.492744,-8.316901,-8.261816,8.043327,0.002000,0.682933,0.000000
433.000000,0.002000,0.069716,0.246280,-0.095472,-1.720210,-1.611425,0.633369,-2.734159,-11.344803,7.217315,0.002000,-0.816087,0.000000
434.000000,0.002000,1.839797,1.867776,0.763451,1.366361,-1.324377,-1.714673,-1.507692,-1.535954,-0.687210,0.002000,-0.854430,0.000000
435.000000,0.002000,-0.156885,-0.752404,0.112293,-0.767161,-0.250514,2.332986,1.998353,13.702754,-1.989166,0.002000,-0.159344,0.000000
436.000000,0.002000,-0.865846,-0.408206,0.261515,-0.180657,-1.898745,2.813899,9.828306,5.003050,-3.158135,0.002000,0.412698,0.000000
437.000000,0.002000,0.184806,-0.060575,0.370833,-1.810201,1.203023,-2.739493,-9.856937,3.703962,-14.606985,0.002000,0.877013,0.000000
438.000000,0.002000,0.004828,-0.163032,-0.321098,0.028200,0.919836,1.577410,-6.026394,8.010756,16.260299,0.002000,2.432616,0.000000
439.000000,0.002000,0.091293,0.236563,0.324156,2.285683,-3.466556,0.477539,-7.601426,-9.768680,-15.809201,0.002000,-0.338078,0.000000
440.000000,0.002000,-0.056091,0.042265,-0.716870,1.854762,0.266706,1.229720,0.182002,1.001050,14.546994,0.002000,0.429576,0.000000
441.000000,0.002000,-0.283449,-0.282333,-0.214696,-0.429135,-3.482669,2.347445,12.735268,12.896566,10.100436,0.002000,0.069716,0.000000
442.000000,0.002000,-0.294693,-0.076459,0.348116,-0.751095,-3.192877,0.538205,11.398118,4.383591,-14.495082,0.002000,1.839797,0.000000
443.000000,0.002000,0.000002,-1.140955,0.781687,0.640725,0.516877,0.456934,-0.687798,6.281612,-3.774449,0.002000,-0.156885,0.000000
444.000000,0.002000,0.117271,-0.279808,-0.224880,1.482310,-0.933385,-2.346953,-10.609833,12.741606,17.899557,0.002000,-0.865846,0.000000
445.000000,0.002000,0.335627,0.241534,-0.211573,0.904185,-0.080797,1.416566,-14.260331,-7.621968,7.930702,0.002000,0.184806,0.000000
446.000000,0.002000,-0.545236,-0.559109,-1.014423,-1.309373,-1.159788,-0.707199,3.144228,3.539151,6.040127,0.002000,0.004828,0.000000
447.000000,0.002000,0.121995,-0.562050,-0.362828,0.012650,-2.348939,-1.744135,-3.347941,12.526444,8.445403,0.002000,0.091293,0.000000
448.000000,0.002000,0.226793,0.046022,-1.544088,-1.530667,1.147547,-0.053669,-0.773531,-0.134564,5.609890,0.002000,-0.056091,0.000000
449.000000,0.002000,-0.229668,0.445161,-0.090357,0.814012,2.701756,1.395082,8.284298,-17.692713,3.146376,0.002000,-0.283449,0.000000
450.000000,0.002000,-0.409565,0.759335,-0.595793,-1.770848,2.303916,-0.534998,3.984167,-7.788696,6.552502,0.002000,-0.294693,0.000000
451.000000,0.002000,1.505716,-4.838169,-0.784047,-0.618022,-1.153565,1.204439,-0.208947,0.685611,0.109028,0.002000,0.000002,0.000000
452.000000,0.002000,-3.007803,3.786618,1.693927,0.305796,0.844803,0.110916,0.444397,-0.550912,-0.256276,0.002000,0.117271,0.000000
453.000000,0.002000,0.972638,-0.438371,-0.259639,-3.648255,1.421790,-0.893868,-8.173783,3.696965,2.234353,0.002000,0.335627,0.000000
454.000000,0.002000,-0.425841,0.102040,0.601585,0.044439,1.909569,1.646842,9.469026,0.108219,-14.141740,0.002000,-0.545236,0.000000
455.000000,0.002000,1.161064,1.767875,0.427179,0.205444,-0.618816,0.517554,-1.056490,-4.697944,5.145259,0.002000,0.121995,0.000000
456.000000,0.002000,0.330519,-0.170427,-0.054033,0.539525,1.455231,-1.050557,-14.938968,6.764687,1.798451,0.002000,0.226793,0.000000
457.000000,0.002000,0.658642,1.506640,-0.825049,-0.664335,-1.439787,0.137471,-1.549496,-3.556084,1.995652,0.002000,-0.229668,0.000000
458.000000,0.002000,0.055048,0.605737,0.137046,-0.732542,-0.027716,-3.121978,-3.223563,-15.706754,-4.783511,0.002000,-0.409565,0.000000
459.000000,0.002000,-0.436112,0.634525,-0.917992,2.008568,-1.131287,-1.857012,2.830388,-4.674318,7.119641,0.002000,1.505716,0.000000
460.000000,0.002000,-0.024867,-0.209058,-0.001985,2.200969,-0.011636,1.017460,3.176115,15.243562,4.797530,0.002000,-3.007803,0.000000
461.000000,0.002000,-0.024022,-0.264998,-0.852916,-2.941435,-0.106253,-1.568163,-1.561656,3.106380,11.338947,0.002000,0.972638,0.000000
462.000000,0.002000,0.418694,0.533644,1.251881,1.363761,-0.250309,0.274825,-1.907255,-2.353978,-5.763379,0.002000,-0.425841,0.000000
463.000000,0.002000,-0.245087,-0.003606,-0.312646,-2.659769,3.499565,-0.368713,10.945998,1.938114,17.381385,0.002000,1.161064,0.000000
464.000000,0.002000,0.271079,0.649629,-0.411716,2.325302,-0.876468,1.010902,-5.263859,-10.437759,7.111726,0.002000,0.330519,0.000000
465.000000,0.002000,-0.042834,-0.371799,-0.463309,0.441608,1.816254,-4.550109,1.568031,9.325822,12.911483,0.002000,0.658642,0.000000
466.000000,0.002000,0.208528,-0.964909,-2.399938,-1.269347,1.401764,0.488996,-0.236886,0.950542,2.230883,0.002000,0.055048,0.000000
467.000000,0.002000,-0.103628,-0.246503,-0.345105,1.175162,0.782153,0.705544,3.508475,11.742916,14.682354,0.002000,-0.436112,0.000000
468.000000,0.002000,-3.156289,-0.220884,0.969684,0.781478,-0.405018,0.533539,1.528769,0.121560,-0.432524,0.002000,-0.024867,0.000000
469.000000,0.002000,-0.516605,-0.074074,0.306174,0.568268,-1.591853,0.980976,15.915821,2.442101,-10.694060,0.002000,-0.024022,0.000000
470.000000,0.002000,-3.879179,1.365952,0.043191,0.085788,0.883948,-0.075346,1.047638,-0.363707,-0.001276,0.002000,0.418694,0.000000
471.000000,0.002000,-0.200619,0.760686,0.482635,1.469930,-1.352979,-3.136036,2.236322,-10.080257,-6.066750,0.002000,-0.245087,0.000000
472.000000,0.002000,-1.771157,0.798014,-2.092470,0.565953,-1.400055,-0.525588,1.285612,-0.553984,1.533062,0.002000,0.271079,0.000000
473.000000,0.002000,-4.721724,2.428330,5.900578,-1.956922,-0.159172,1.100864,0.187944,-0.096501,-0.236438,0.002000,-0.042834,0.000000
474.000000,0.002000,0.460308,0.216837,0.394268,-1.374519,-2.225794,2.699526,-11.640232,-4.715090,-10.681944,0.002000,0.208528,0.000000
475.000000,0.002000,-0.782329,0.409113,0.128271,2.063137,0.765016,0.941241,11.050163,-6.580179,-2.186256,0.002000,-0.103628,0.000000
476.000000,0.002000,-0.931876,0.379613,-1.466575,-1.088461,-1.019630,-1.789260,2.552086,-1.061893,3.967899,0.002000,-3.156289,0.000000
477.000000,0.002000,0.187027,0.095534,-0.438319,1.879675,2.382145,1.305138,-7.884088,-2.243038,13.663228,0.002000,-0.516605,0.000000
478.000000,0.002000,1.343667,5.520617,-2.496886,-0.119102,0.859086,-0.374511,-0.113539,-0.460426,0.213787,0.002000,-3.879179,0.000000
479.000000,0.002000,-0.326820,0.542769,0.275869,-1.999839,0.488710,-2.155024,7.746566,-13.152476,-7.293102,0.002000,-0.200619,0.000000
480.000000,0.002000,-0.866104,-0.346562,0.350598,2.793670,3.372152,0.403011,10.039141,4.516758,-3.590841,0.002000,-1.771157,0.000000
481.000000,0.002000,-1.121805,0.947713,-1.258498,-1.348875,-0.752610,0.200614,2.519771,-1.800665,2.947789,0.002000,-4.721724,0.000000
482.000000,0.002000,-0.946372,-1.480072,-0.841684,-0.734295,0.019679,-1.411799,1.794981,3.151772,1.499142,0.002000,0.460308,0.000000
483.000000,0.002000,7.272617,-2.559163,-1.615792,1.558255,-0.571899,-0.210220,-0.295331,0.105435,0.064885,0.002000,-0.782329,0.000000
484.000000,0.002000,-0.197528,-0.248078,-0.071735,2.350466,-1.427249,2.994623,8.279104,18.145154,7.128029,0.002000,-0.931876,0.000000
485.000000,0.002000,-0.114769,-0.063682,0.003151,0.376704,0.900224,0.430624,3.529982,1.423854,0.087259,0.002000,0.187027,0.000000
486.000000,0.002000,-0.154700,0.109351,1.469324,-1.818564,-1.829504,0.969638,0.548886,-0.227275,-5.954038,0.002000,1.343667,0.000000
487.000000,0.002000,-0.668624,1.940088,3.022424,-0.487193,-1.095118,0.069872,0.116664,-0.754373,-0.915451,0.002000,-0.326820,0.000000
488.000000,0.002000,1.471324,-0.984050,0.485414,-1.295083,0.721888,-1.887502,-3.311040,2.381523,-1.060351,0.002000,-0.866104,0.000000
489.000000,0.002000,-0.155187,0.374526,-0.136296,-0.602581,-1.311971,-4.595849,3.175881,-15.030433,6.832965,0.002000,-1.121805,0.000000
490.000000,0.002000,-1.411205,-0.894785,1.021284,0.869332,-0.194342,0.765049,2.754616,1.838647,-2.116697,0.002000,-0.946372,0.000000
491.000000,0.002000,-0.113897,0.105989,0.105414,-1.550219,-0.786111,-2.324374,7.284481,-2.380129,-7.664714,0.002000,7.272617,0.000000
492.000000,0.002000,-0.349028,-0.157689,-0.479772,-0.794607,0.201324,-1.332418,8.282704,7.101012,13.985901,0.002000,-0.197528,0.000000
493.000000,0.002000,0.082127,0.321998,0.977748,2.228799,0.379351,0.826597,-1.044617,-3.070624,-10.021626,0.002000,-0.114769,0.000000
494.000000,0.002000,0.367184,0.133179,-0.280292,-0.800629,1.633432,-1.078550,-14.141841,-3.483173,9.861465,0.002000,-0.154700,0.000000
495.000000,0.002000,-0.106516,0.032931,-0.200112,-1.342944,0.561135,3.008520,0.160760,-3.556147,15.889199,0.002000,-0.668624,0.000000
496.000000,0.002000,-1.295729,-1.203212,-0.189700,-0.571254,-1.783040,-1.059113,3.285701,3.377391,0.520153,0.002000,1.471324,0.000000
497.000000,0.002000,1.405124,-8.743814,-4.169879,-0.658356,-1.526873,-0.421282,-0.029810,0.186016,0.087960,0.002000,-0.155187,0.000000
498.000000,0.002000,0.606595,-0.276108,-0.220649,0.835478,1.617345,-1.172609,-12.990683,5.099088,5.029857,0.002000,-1.411205,0.000000
499.000000,0.002000,1.366634,0.322266,-0.775984,2.490206,-0.838095,-0.106819,-4.367182,-0.937636,2.566547,0.002000,-0.113897,0.000000
500.000000,0.002000,-0.217500,0.306379,-0.361660,0.220502,3.410418,0.085320,6.242698,-11.242243,12.379723,0.002000,-0.349028,0.000000
501.000000,0.002000,0.221867,0.162131,0.019422,0.996068,1.707701,1.046915,-17.465068,-8.667882,-1.396975,0.002000,0.082127,0.000000
502.000000,0.002000,0.898022,-0.333280,0.479518,1.398661,1.472633,-0.978979,-7.696037,3.368850,-4.354245,0.002000,0.367184,0.000000
503.000000,0.002000,0.021888,-0.047257,-0.480205,0.021649,3.305311,-0.603734,-2.123062,1.261843,17.591640,0.002000,-0.106516,0.000000
504.000000,0.002000,-0.075541,0.418491,-0.739306,-3.021235,-1.625218,2.285881,0.704963,-6.647837,11.647869,0.002000,-1.295729,0.000000
505.000000,0.002000,0.256220,1.199728,1.004756,-0.085406,0.635460,1.118344,-0.825318,-4.213392,-3.664442,0.002000,1.405124,0.000000
506.000000,0.002000,0.193091,0.198854,-0.643166,-0.382813,-1.444883,1.043715,-3.554709,-5.952791,14.843497,0.002000,0.606595,0.000000
507.000000,0.002000,-1.028665,0.246097,0.692253,-1.319146,0.311944,-1.515821,6.359977,-1.437257,-4.879468,0.002000,1.366634,0.000000
508.000000,0.002000,-1.022269,1.333712,-0.993961,-0.176782,0.620245,-1.599243,2.207707,-2.745423,2.124782,0.002000,-0.217500,0.000000
509.000000,0.002000,-0.523661,-0.043162,-1.060268,-1.062074,0.982225,-1.859280,4.048860,0.730330,8.160966,0.002000,0.221867,0.000000
510.000000,0.002000,-2.384755,0.359848,3.316835,0.291201,-0.463156,0.029391,0.612368,-0.091432,-0.885221,0.002000,0.898022,0.000000
511.000000,0.002000,4.836228,-4.056104,0.626279,0.764267,-0.087097,1.268079,-0.369198,0.313252,-0.048776,0.002000,0.021888,0.000000
512.000000,0.002000,-0.569645,0.107795,-0.074261,1.027649,0.344521,3.110672,17.319957,-0.719249,2.643084,0.002000,-0.075541,0.000000
513.000000,0.002000,-2.995919,-0.871917,-1.672234,-0.262507,-0.117203,1.020711,1.492193,0.461239,0.665265,0.002000,0.256220,0.000000
514.000000,0.002000,0.214441,1.010312,-0.549602,1.996772,0.470394,-1.375917,-1.783812,-7.957776,3.292056,0.002000,0.193091,0.000000
515.000000,0.002000,-1.046995,2.998702,2.078660,0.368877,-0.626651,-0.281530,0.436702,-1.001680,-0.628302,0.002000,-1.028665,0.000000
516.000000,0.002000,0.243425,0.160758,0.202512,-1.987334,0.040859,-0.603329,-14.335037,-6.827608,-10.440914,0.002000,-1.022269,0.000000
517.000000,0.002000,-0.114613,0.089296,-0.391318,0.517595,-3.352500,-2.378061,3.396935,-0.152327,17.148410,0.002000,-0.523661,0.000000
518.000000,0.002000,-0.018488,0.321299,0.377441,-0.724233,-0.645940,1.856247,-1.232652,-15.030247,-13.363094,0.002000,-2.384755,0.000000
519.000000,0.002000,-0.043589,0.129135,-0.031704,-1.075666,4.871776,-0.000357,-0.706043,-5.021336,4.222400,0.002000,4.836228,0.000000
520.000000,0.002000,0.317142,0.436321,-0.106313,-2.487640,-0.245875,-0.043621,-10.596343,-12.469834,3.079260,0.002000,-0.569645,0.000000
521.000000,0.002000,-0.529373,0.181304,0.356407,-1.829566,-3.496293,-0.100585,14.843882,-3.876769,-9.426439,0.002000,-2.995919,0.000000
522.000000,0.002000,0.320282,-0.168638,-0.026620,1.295002,2.395981,0.745003,-14.706185,7.366100,-2.044831,0.002000,0.214441,0.000000
523.000000,0.002000,-0.164816,0.141782,0.431681,-3.798626,1.956534,1.098580,7.094159,-7.001833,-17.307287,0.002000,-1.046995,0.000000
524.000000,0.002000,-0.866135,-0.870029,-0.033009,-2.460805,-2.394406,-0.195512,5.384836,6.267442,0.010414,0.002000,0.243425,0.000000
525.000000,0.002000,-1.707965,-1.311176,-0.890150,-0.214956,-0.065775,-0.666007,2.101252,1.742895,1.106291,0.002000,-0.114613,0.000000
526.000000,0.002000,-0.099972,0.392608,-0.640679,-1.188314,-0.449592,-0.866009,1.230078,-7.099821,13.207196,0.002000,-0.018488,0.000000
527.000000,0.002000,-0.350799,0.009152,0.434961,3.257982,1.049063,-0.379939,14.176574,0.122071,-13.086408,0.002000,-0.043589,0.000000
528.000000,0.002000,1.612351,-0.166355,-0.866093,-2.329940,1.221575,-1.455028,-3.732650,0.598124,2.087892,0.002000,0.317142,0.000000
529.000000,0.002000,0.407479,-0.367596,-0.026594,0.068139,0.878054,-1.668780,-13.907266,12.327776,0.291154,0.002000,-0.529373,0.000000
530.000000,0.002000,2.010539,-4.112738,-1.716042,0.975565,-0.128614,0.006989,-0.330181,0.674280,0.276741,0.002000,0.320282,0.000000
531.000000,0.002000,0.853982,0.119623,-1.839098,0.494164,-0.101528,0.782563,-1.598322,-0.259273,3.314705,0.002000,-0.164816,0.000000
532.000000,0.002000,-0.703004,-0.671973,-0.877659,-2.947196,0.978619,1.176007,3.659025,4.117407,5.185141,0.002000,-0.866135,0.000000
533.000000,0.002000,1.061526,-1.008183,0.746257,2.015756,0.188583,-0.918553,-3.056012,3.002749,-2.409878,0.002000,-1.707965,0.000000
534.000000,0.002000,0.146504,-0.023609,0.095725,2.291463,-1.683980,-0.864908,-10.577238,2.666240,-6.832669,0.002000,-0.099972,0.000000
535.000000,0.002000,1.393802,1.566255,1.366430,-1.006473,-0.888541,-1.275810,-1.449723,-1.574899,-1.431640,0.002000,-0.350799,0.000000
536.000000,0.002000,1.165980,1.554028,0.384042,1.030505,0.856639,0.289309,-2.260580,-2.917864,-0.879934,0.002000,1.612351,0.000000
537.000000,0.002000,-0.056429,-0.460382,0.484795,-2.645378,-3.234422,-0.588077,0.850855,11.754839,-12.559714,0.002000,0.407479,0.000000
538.000000,0.002000,-0.968180,2.986367,-0.162893,0.252869,0.171484,-0.266949,0.757258,-1.625876,0.048321,0.002000,2.010539,0.000000
539.000000,0.002000,-0.710412,-0.618965,-0.116505,2.675461,1.700582,-2.765990,8.017691,8.119274,1.743479,0.002000,0.853982,0.000000
540.000000,0.002000,0.667478,-0.124889,0.253501,1.297147,1.206413,0.531829,-12.975370,2.989239,-4.987019,0.002000,-0.703004,0.000000
541.000000,0.002000,0.276290,-1.462833,-1.332043,0.156968,0.616470,0.522335,-0.629781,2.767628,2.435364,0.002000,1.061526,0.000000
542.000000,0.002000,-0.854695,0.015929,0.270979,-1.961893,-0.125552,-2.544317,12.253811,0.428012,-4.227751,0.002000,0.146504,0.000000
543.000000,0.002000,0.495431,0.644945,0.131174,1.075513,1.679711,-1.170176,-7.847364,-10.295715,-3.279856,0.002000,1.393802,0.000000
544.000000,0.002000,0.141561,-0.371860,0.245226,1.904285,-0.328314,-0.607412,-5.651660,14.625229,-7.158921,0.002000,1.165980,0.000000
545.000000,0.002000,-0.903962,0.772864,0.660747,-2.394191,0.740496,2.031409,4.775460,-4.160035,-3.690108,0.002000,-0.056429,0.000000
546.000000,0.002000,0.268931,-0.236792,0.233957,-2.128337,0.352249,-0.156962,-10.785354,10.309019,-12.523403,0.002000,-0.968180,0.000000
547.000000,0.002000,0.228371,-0.158301,0.527133,1.726022,0.030481,1.302479,-6.894559,4.936910,-14.638209,0.002000,-0.710412,0.000000
548.000000,0.002000,-0.441817,-1.624030,-0.717255,-1.229935,-1.693838,-0.233638,0.934179,3.870056,1.820310,0.002000,0.667478,0.000000
549.000000,0.002000,-0.283359,1.781098,-1.161211,2.363517,-0.772679,0.225236,0.292277,-2.901292,1.856263,0.002000,0.276290,0.000000
550.000000,0.002000,0.075625,-0.371853,-0.020891,-2.447189,0.647602,-4.399833,-5.129559,16.399457,2.867263,0.002000,-0.854695,0.000000
551.000000,0.002000,2.809514,1.118600,-0.793244,-0.664290,-0.681794,-0.986561,-1.622960,-0.571338,0.428923,0.002000,0.495431,0.000000
552.000000,0.002000,-0.567451,0.383434,-0.367072,1.694287,-1.937904,-1.019227,10.301708,-7.956914,8.150031,0.002000,0.141561,0.000000
553.000000,0.002000,1.987834,-1.576671,-0.555655,-0.823229,0.589969,1.563305,-1.823048,1.563773,0.540234,0.002000,-0.903962,0.000000
554.000000,0.002000,-0.256051,0.046181,-0.019673,-1.104624,2.248275,-0.158652,16.182593,-2.940176,3.710609,0.002000,0.268931,0.000000
555.000000,0.002000,-0.967356,0.264067,0.510384,1.792861,-1.656353,-1.361802,8.195367,-2.103894,-4.622577,0.002000,0.228371,0.000000
556.000000,0.002000,0.214024,-0.921920,0.154225,0.299408,0.247657,-0.799219,-4.334978,9.510785,-2.883198,0.002000,-0.441817,0.000000
557.000000,0.002000,-0.036145,0.009883,-0.383476,4.553812,-0.062226,-0.657667,-1.376328,-0.419557,19.319197,0.002000,-0.283359,0.000000
558.000000,0.002000,1.243359,-0.965513,1.333218,-1.140279,-0.727069,-2.098314,-2.108628,1.561969,-2.261718,0.002000,0.075625,0.000000
559.000000,0.002000,1.315828,0.328321,0.961346,-1.250862,-1.925220,1.402787,-4.028520,-0.866155,-3.164479,0.002000,2.809514,0.000000
560.000000,0.002000,0.154796,2.536804,-0.203625,-0.138407,-0.591847,1.980043,-0.131103,-2.479389,0.206917,0.002000,-0.567451,0.000000
561.000000,0.002000,-0.419329,0.017788,0.528501,0.434252,-2.069576,-1.280162,11.103590,1.161045,-14.469785,0.002000,1.987834,0.000000
562.000000,0.002000,-0.643189,2.654350,-0.018419,1.930071,1.131270,-0.073218,0.491736,-2.168292,-0.002683,0.002000,-0.256051,0.000000
563.000000,0.002000,-0.946275,0.813379,-0.544443,-1.061526,1.232552,-2.824932,5.015737,-4.203339,2.957827,0.002000,-0.967356,0.000000
564.000000,0.002000,-0.741266,-0.216275,0.408921,-0.932010,3.660496,-2.796404,10.787553,2.759004,-6.927599,0.002000,0.214024,0.000000
565.000000,0.002000,-0.156063,2.872967,1.417009,0.985121,0.748563,0.337175,-1.890083,-3.511934,-4.392362,0.002000,-0.036145,0.000000
566.000000,0.002000,0.555817,-0.043158,-0.356343,3.996495,-1.964216,-0.287251,-12.605878,0.109611,8.247101,0.002000,1.243359,0.000000
567.000000,0.002000,2.592905,-0.189910,0.818457,-1.238572,0.340759,-1.186201,-2.111176,0.186434,-0.674469,0.002000,1.315828,0.000000
568.000000,0.002000,-0.238725,-0.352676,0.256213,0.746481,1.071343,-0.655665,7.206451,12.766201,-7.768462,0.002000,0.154796,0.000000
569.000000,0.002000,0.429525,-1.145509,-1.057305,-0.592569,1.459840,-1.394415,-1.442310,3.801190,3.218239,0.002000,-0.419329,0.000000
570.000000,0.002000,1.319270,-3.063579,2.773634,0.201165,1.076263,-0.558431,-0.298904,0.718699,-0.643549,0.002000,-0.643189,0.000000
571.000000,0.002000,-0.134407,-0.697540,-0.341281,1.423354,1.168525,-2.081730,1.533446,12.199526,5.781045,0.002000,-0.946275,0.000000
572.000000,0.002000,-0.459188,-0.038253,-0.224678,-2.165646,4.100062,3.321342,16.489476,2.328537,8.952471,0.002000,-0.741266,0.000000
573.000000,0.002000,-0.159782,0.366228,-0.254871,0.089524,-2.033590,1.279163,8.070991,-6.807484,13.809113,0.002000,-0.156063,0.000000
574.000000,0.002000,1.236962,0.276278,0.921151,0.804310,-0.971805,-1.845456,-4.198265,-0.720307,-3.224801,0.002000,0.555817,0.000000
575.000000,0.002000,0.941921,2.677908,0.026241,0.250651,-1.382467,-0.233892,-0.735692,-1.966538,-0.032041,0.002000,2.592905,0.000000
576.000000,0.002000,-0.324347,0.524849,-0.289186,3.096800,-0.361056,1.151229,9.381041,-15.014141,8.920871,0.002000,-0.238725,0.000000
577.000000,0.002000,0.487396,-0.058416,-0.237959,1.861313,0.631682,3.012623,-14.701007,2.167095,6.916692,0.002000,0.429525,0.000000
578.000000,0.002000,0.267622,0.276479,-1.142164,-2.341883,-3.421061,1.358639,-1.762320,-1.825381,7.281099,0.002000,1.319270,0.000000
579.000000,0.002000,-0.030566,0.272826,-1.781058,-0.030461,-0.761492,-2.407565,0.113048,-0.563922,4.426882,0.002000,-0.134407,0.000000
580.000000,0.002000,-0.107372,-0.331960,-0.870300,1.656159,-0.660090,2.349957,1.281430,4.836006,11.038872,0.002000,-0.459188,0.000000
581.000000,0.002000,0.042067,-0.565131,0.036194,-2.890779,-0.388980,3.078717,-1.962451,16.971364,-2.384686,0.002000,-0.159782,0.000000
582.000000,0.002000,0.173659,1.840675,3.158851,-0.502434,0.033632,-0.809360,-0.066773,-0.557269,-1.208121,0.002000,1.236962,0.000000
583.000000,0.002000,1.715097,3.239871,2.551563,0.893937,0.504200,-1.547069,-0.365143,-0.701399,-0.553724,0.002000,0.941921,0.000000
584.000000,0.002000,-0.134250,0.096875,0.647460,1.085073,-1.986933,-1.781459,1.782885,-2.922333,-17.072856,0.002000,-0.324347,0.000000
585.000000,0.002000,0.285919,1.574166,-1.384103,-0.913660,1.281021,-0.758378,-0.448553,-2.551678,2.296475,0.002000,0.487396,0.000000
586.000000,0.002000,-0.598171,0.307133,-0.322871,-0.275066,0.616316,-1.292187,11.928685,-6.046543,7.330661,0.002000,0.267622,0.000000
587.000000,0.002000,0.392423,-0.068409,0.091422,-4.251971,-3.481096,2.192043,-18.172820,5.008231,-3.582183,0.002000,-0.030566,0.000000
588.000000,0.002000,-0.567586,0.651754,-0.896578,-1.359181,0.700892,-2.402026,3.800690,-4.337165,5.968731,0.002000,-0.107372,0.000000
589.000000,0.002000,0.352949,-0.626761,0.575705,-0.515723,3.412411,0.940468,-4.777054,8.055624,-6.995123,0.002000,0.042067,0.000000
590.000000,0.002000,1.737036,1.416703,1.934758,-0.726369,-1.467901,0.041586,-1.178609,-0.932835,-1.267221,0.002000,0.173659,0.000000
591.000000,0.002000,0.327633,-0.299267,-0.042931,-1.297480,-2.313163,1.076271,-13.162770,11.823697,0.039265,0.002000,1.715097,0.000000
592.000000,0.002000,0.464889,0.545289,-0.033169,0.170673,-0.020632,-0.438437,-9.776940,-11.136478,0.778992,0.002000,-0.134250,0.000000
593.000000,0.002000,-0.657496,1.006010,0.464599,2.294911,-2.045358,-1.916297,3.880710,-6.031575,-2.931854,0.002000,0.285919,0.000000
594.000000,0.002000,-0.359140,-1.342882,2.254413,0.748780,1.689990,-0.131967,0.423784,1.027606,-1.917440,0.002000,-0.598171,0.000000
595.000000,0.002000,-0.948020,-0.139381,-0.289296,1.228993,-1.365875,-0.014388,10.560920,1.496469,3.551297,0.002000,0.392423,0.000000
596.000000,0.002000,-2.626621,1.172642,0.769956,1.097640,-1.155779,0.060175,1.753070,-0.745836,-0.454361,0.002000,-0.567586,0.000000
597.000000,0.002000,-0.465085,1.816026,0.151529,-1.754152,0.622742,-0.809522,1.086616,-4.012122,-0.266706,0.002000,0.352949,0.000000
598.000000,0.002000,0.275586,-0.003079,0.557660,-0.798930,2.750555,-0.616894,-9.360321,-0.298460,-17.003756,0.002000,1.737036,0.000000
599.000000,0.002000,-0.541571,-0.289280,0.087919,-0.456210,1.743493,4.309653,16.163206,11.321276,-2.783896,0.002000,0.327633,0.000000
600.000000,0.002000,0.146793,-0.855055,0.738021,0.929054,-0.364395,1.696328,-1.432837,6.573598,-5.723207,0.002000,0.464889,0.000000
601.000000,0.002000,-0.547646,0.744071,0.388600,-1.414083,0.849457,-2.696059,5.709871,-8.508685,-4.651706,0.002000,-0.657496,0.000000
602.000000,0.002000,-0.256630,0.462723,-0.577385,0.247731,1.417208,-2.756166,4.022064,-8.589337,11.682495,0.002000,-0.359140,0.000000
603.000000,0.002000,-2.056644,-0.197012,-0.501282,0.848544,1.657135,1.448517,3.294466,0.577705,0.787772,0.002000,-0.948020,0.000000
604.000000,0.002000,-0.377382,-0.011848,-0.053961,-2.390979,3.749579,0.413256,17.807341,1.032094,5.583906,0.002000,-2.626621,0.000000
605.000000,0.002000,0.473841,-0.421627,-0.642334,-1.247758,-0.177837,-0.737449,-6.304510,5.466478,7.888543,0.002000,-0.465085,0.000000
606.000000,0.002000,3.184362,1.792267,-2.123708,-0.114048,1.138188,-0.509273,-0.797139,-0.438798,0.549308,0.002000,0.275586,0.000000
607.000000,0.002000,0.627905,0.434588,0.329455,0.251084,-1.087576,2.883491,-6.171827,-5.040253,-5.766343,0.002000,-0.541571,0.000000
608.000000,0.002000,-0.264086,0.069559,0.415297,0.289425,-1.004240,0.760935,6.340541,-4.827293,-15.998951,0.002000,0.146793,0.000000
609.000000,0.002000,1.236301,-0.054260,1.101579,-2.182813,-0.761096,-1.468199,-3.633059,0.287119,-3.334852,0.002000,-0.547646,0.000000
610.000000,0.002000,-0.145981,-0.138178,-0.286715,0.862445,2.065428,1.215948,2.566373,13.086363,16.044883,0.002000,-0.256630,0.000000
611.000000,0.002000,-0.009746,-0.218304,0.141519,-0.388727,-2.987019,-1.885428,-2.241806,15.809681,-9.652891,0.002000,-2.056644,0.000000
612.000000,0.002000,-0.287986,0.040063,0.206148,1.320422,-0.629095,-0.543548,15.645846,-0.178706,-9.987574,0.002000,-0.377382,0.000000
613.000000,0.002000,-0.414015,-0.290380,0.291609,-0.433566,0.086947,-0.843824,12.407991,8.962568,-9.600743,0.002000,0.473841,0.000000
614.000000,0.002000,-0.891042,0.111481,0.223997,0.502422,0.599357,1.710913,12.319848,-1.112366,-2.794254,0.002000,3.184362,0.000000
615.000000,0.002000,0.171016,0.301307,0.296163,2.287141,-0.106128,3.962467,-9.070137,-11.505994,-12.124951,0.002000,0.627905,0.000000
616.000000,0.002000,0.411964,-0.003910,-0.566802,1.707219,0.816180,2.141733,-8.790307,0.876316,12.482443,0.002000,-0.264086,0.000000
617.000000,0.002000,0.479074,-0.369509,0.327056,-0.406882,-0.808812,-0.745132,-10.202868,8.093295,-6.962453,0.002000,1.236301,0.000000
618.000000,0.002000,-0.247740,-0.029487,-0.264668,1.343366,-1.871178,0.906625,11.742782,3.826341,16.860212,0.002000,-0.145981,0.000000
619.000000,0.002000,0.706894,0.400442,-2.620563,-0.308104,-0.433766,1.508600,-0.604767,-0.285821,2.116377,0.002000,-0.009746,0.000000
620.000000,0.002000,0.065027,-0.537392,-0.138789,0.163906,2.194035,1.484410,-2.150060,15.546123,3.578579,0.002000,-0.287986,0.000000
621.000000,0.002000,-0.026829,0.393412,-0.306411,-3.007079,-1.515798,-3.171699,-0.897915,-14.497089,12.229040,0.002000,-0.414015,0.000000
622.000000,0.002000,0.571726,-0.386248,0.044681,-1.627124,-0.056378,3.237890,-11.781384,9.411421,-3.594009,0.002000,-0.891042,0.000000
623.000000,0.002000,-0.211878,0.325468,-0.030046,-0.370894,1.449400,0.600094,9.758072,-15.889549,0.178521,0.002000,0.171016,0.000000
624.000000,0.002000,-0.279373,-0.333896,0.161367,1.327970,-0.751498,0.278581,10.539547,14.374565,-6.460262,0.002000,0.411964,0.000000
625.000000,0.002000,-0.024450,1.060891,0.756727,-0.544380,-3.142663,-1.538836,-0.123857,-5.984792,-4.612114,0.002000,0.479074,0.000000
626.000000,0.002000,-0.126194,0.561721,-0.659029,-2.155812,0.023123,-1.094987,1.140455,-8.509708,10.176880,0.002000,-0.247740,0.000000
627.000000,0.002000,-0.304330,-0.373878,-0.343130,0.701844,1.919837,-1.314811,5.653326,12.511933,10.449704,0.002000,0.706894,0.000000
628.000000,0.002000,0.397226,-0.618037,0.013302,-0.751724,-0.148352,3.061079,-7.455598,12.443297,-0.966334,0.002000,0.065027,0.000000
629.000000,0.002000,-0.738050,0.236010,-0.327309,-1.883318,0.898663,3.314282,12.010770,-4.598346,5.028251,0.002000,-0.026829,0.000000
630.000000,0.002000,0.215899,-0.303650,0.153123,-0.135109,2.430400,-2.986089,-10.662799,15.093660,-10.680468,0.002000,0.571726,0.000000
631.000000,0.002000,-0.698741,-0.020109,-0.243883,-3.974923,-2.715741,-1.896758,14.451372,1.147038,5.910360,0.002000,-0.211878,0.000000
632.000000,0.002000,0.390075,-0.495382,-0.090775,-1.643320,-0.802139,1.414420,-9.239196,13.054156,1.529107,0.002000,-0.279373,0.000000
633.000000,0.002000,2.668189,1.337320,-2.960247,0.450650,-0.626099,0.315636,-0.678341,-0.325095,0.752417,0.002000,-0.024450,0.000000
634.000000,0.002000,0.291214,-0.115096,0.038112,1.343870,2.699178,-3.185064,-19.007798,8.219385,-1.056568,0.002000,-0.126194,0.000000
635.000000,0.002000,-0.408648,0.203754,-0.338259,-1.472009,2.034636,-0.797595,13.057811,-6.419535,11.637733,0.002000,-0.304330,0.000000
636.000000,0.002000,0.009605,-0.434914,0.199270,1.109476,-0.351956,0.465737,-0.701558,17.801008,-7.988899,0.002000,0.397226,0.000000
637.000000,0.002000,-1.162664,-1.397176,-0.814477,-0.493388,-0.652403,-1.202739,2.253662,2.746475,1.515595,0.002000,-0.738050,0.000000
638.000000,0.002000,-1.060875,-0.156757,-0.512913,-2.990475,-0.739880,-1.878720,7.962696,1.290460,3.890061,0.002000,0.215899,0.000000
639.000000,0.002000,1.110370,-0.037501,0.203444,1.574508,0.403637,2.196569,-8.609996,0.592125,-1.619040,0.002000,-0.698741,0.000000
640.000000,0.002000,-0.914861,-0.384172,-0.671156,0.706660,-0.148990,0.085163,6.571943,2.771802,5.196311,0.002000,0.390075,0.000000
641.000000,0.002000,-0.705766,0.652997,-0.397015,-0.095428,-1.286112,-1.442935,7.446826,-6.415139,4.463647,0.002000,2.668189,0.000000
642.000000,0.002000,-0.059671,-0.355805,-0.286708,0.017212,0.881718,2.067616,3.606245,15.392328,9.756174,0.002000,0.291214,0.000000
643.000000,0.002000,0.172693,1.188641,0.722847,2.848692,-1.545464,-1.289581,-0.854103,-5.721453,-3.551378,0.002000,-0.408648,0.000000
644.000000,0.002000,-0.303137,-0.741156,0.370240,2.396598,0.700659,-2.910088,2.770389,10.637664,-5.837844,0.002000,0.009605,0.000000
645.000000,0.002000,-0.051222,0.249990,0.131636,2.091380,1.782217,-1.939979,0.340855,-14.130346,-8.484479,0.002000,-1.162664,0.000000
646.000000,0.002000,-0.409149,1.214246,2.120292,0.721995,-0.766339,-1.670785,0.407135,-1.227626,-2.232753,0.002000,-1.060875,0.000000
647.000000,0.002000,-1.073259,1.165926,-1.375751,0.425729,-0.469171,-1.319463,2.041779,-1.945382,2.346725,0.002000,1.110370,0.000000
648.000000,0.002000,0.509468,0.074939,-0.127046,-1.229252,-4.385722,1.735254,-15.573990,-0.299562,3.918060,0.002000,-0.914861,0.000000
649.000000,0.002000,-0.081535,0.195588,0.082573,0.637076,1.022755,0.655075,6.530093,-12.496206,-3.172234,0.002000,-0.705766,0.000000
650.000000,0.002000,-0.822322,-3.971135,0.252827,1.094053,-0.830275,-0.415585,0.223007,1.087444,-0.055861,0.002000,-0.059671,0.000000
651.000000,0.002000,-3.581368,1.373722,0.660318,0.040727,-0.360966,-0.902617,1.122674,-0.422224,-0.195970,0.002000,0.172693,0.000000
652.000000,0.002000,-0.130500,-0.538332,-0.225893,1.569144,-0.476897,-2.329955,2.751612,15.046426,6.877668,0.002000,-0.303137,0.000000
653.000000,0.002000,-1.156520,1.807727,1.931390,0.607878,-1.216571,-0.331655,0.805735,-1.266866,-1.382055,0.002000,-0.051222,0.000000
654.000000,0.002000,-0.475196,0.081361,-0.553466,0.647045,1.338020,4.273857,9.101664,-0.806929,11.930172,0.002000,-0.409149,0.000000
655.000000,0.002000,-0.852136,1.157392,0.271948,-1.882763,-2.175853,-1.785759,3.571305,-5.296631,-1.132903,0.002000,-1.073259,0.000000
656.000000,0.002000,0.059435,-0.004475,1.403642,-1.055170,0.010673,0.886214,-0.385120,0.218639,-6.351494,0.002000,0.509468,0.000000
657.000000,0.002000,0.156849,-0.002344,-0.503158,1.759242,-0.347069,1.819782,-4.831245,1.987913,16.274668,0.002000,-0.081535,0.000000
658.000000,0.002000,0.112559,-0.006733,-0.061517,4.182348,-0.621528,0.936855,-7.728989,0.436238,12.691286,0.002000,-0.822322,0.000000
659.000000,0.002000,-0.579603,-0.484875,-0.031782,1.731992,2.572163,2.754866,10.177695,10.724718,0.910140,0.002000,-3.581368,0.000000
660.000000,0.002000,-0.331012,0.098732,0.208288,1.422961,3.625454,1.479812,16.756131,-7.011514,-9.612474,0.002000,-0.130500,0.000000
661.000000,0.002000,-0.724245,0.779854,0.307320,2.250822,-0.553816,0.105342,6.157498,-7.401061,-2.691347,0.002000,-1.156520,0.000000
662.000000,0.002000,0.605199,-0.134509,-0.349645,2.659083,1.703913,3.829185,-14.077338,4.926096,7.638200,0.002000,-0.475196,0.000000
663.000000,0.002000,0.683103,0.221905,-0.915522,-0.098344,0.159451,-2.432696,-5.220452,-1.287895,6.752785,0.002000,-0.852136,0.000000
664.000000,0.002000,-0.367108,-0.507813,0.090441,0.867769,-0.600062,-1.257131,6.522123,15.958472,-2.753514,0.002000,0.059435,0.000000
665.000000,0.002000,0.310847,0.289313,0.164338,1.143815,-3.910526,-0.841326,-13.081297,-12.218477,-5.587629,0.002000,0.156849,0.000000
666.000000,0.002000,-0.087555,0.122835,0.318778,-0.348735,4.141208,1.825508,2.693329,-7.855273,-14.277248,0.002000,0.112559,0.000000
667.000000,0.002000,0.408709,0.288737,0.498921,-1.480579,-2.283359,-0.523019,-9.021717,-5.243950,-10.666105,0.002000,-0.579603,0.000000
668.000000,0.002000,0.891117,-0.913350,-0.902476,-0.424080,1.265303,1.566341,-3.172221,3.243830,3.088570,0.002000,-0.331012,0.000000
669.000000,0.002000,-0.792083,0.345555,0.085691,2.602924,0.454800,1.927342,13.670987,-7.892487,-1.074201,0.002000,-0.724245,0.000000
670.000000,0.002000,-0.348662,0.080312,0.371639,-0.652251,1.974841,0.303388,12.588952,-3.959934,-14.592595,0.002000,0.605199,0.000000
671.000000,0.002000,0.007923,-1.108974,0.253623,0.940378,-1.658002,1.714970,-0.005993,8.681504,-1.850550,0.002000,0.683103,0.000000
672.000000,0.002000,0.262876,-0.055678,-0.033003,1.568330,-0.062817,0.692378,-24.912623,5.172203,2.398312,0.002000,-0.367108,0.000000
673.000000,0.002000,1.813709,-3.812826,1.812692,-0.755499,0.440990,1.563554,-0.357257,0.747992,-0.345132,0.002000,0.310847,0.000000
674.000000,0.002000,1.858503,1.673697,3.166275,0.207057,-0.654784,0.125994,-0.525358,-0.455620,-0.908456,0.002000,-0.087555,0.000000
675.000000,0.002000,0.488940,-1.565852,0.418341,1.759690,-0.642690,1.106093,-1.723572,4.490585,-1.226813,0.002000,0.408709,0.000000
676.000000,0.002000,0.211764,0.276121,0.319685,-0.283125,1.461129,2.419991,-9.524754,-9.886969,-11.733369,0.002000,0.891117,0.000000
677.000000,0.002000,-0.638716,-0.152612,0.530584,-0.670440,0.040926,-1.695162,9.648250,3.273662,-9.270060,0.002000,-0.792083,0.000000
678.000000,0.002000,-0.071608,0.127804,-0.620353,0.635467,-2.276408,1.095470,0.262524,-1.586855,14.266910,0.002000,-0.348662,0.000000
679.000000,0.002000,-0.105362,0.615922,0.379311,2.757456,-2.953018,-3.042214,2.355692,-14.309232,-8.048103,0.002000,0.007923,0.000000
680.000000,0.002000,-0.359516,-1.115787,1.229801,1.322063,1.998103,-1.133878,0.821890,3.138824,-3.498751,0.002000,0.262876,0.000000
681.000000,0.002000,-1.067486,-0.883442,0.135729,-0.502540,0.709472,-0.563139,4.442531,3.996554,-0.747898,0.002000,1.813709,0.000000
682.000000,0.002000,-0.172829,0.281663,0.075106,-2.944254,2.266063,1.463527,9.181164,-11.686457,-2.859482,0.002000,1.858503,0.000000
683.000000,0.002000,-1.539393,-1.369843,2.760653,-0.389465,0.082642,0.018711,0.648972,0.640329,-1.168524,0.002000,0.488940,0.000000
684.000000,0.002000,1.254351,-1.197847,0.380971,-0.742979,1.106804,-0.296471,-3.134015,3.006388,-0.958013,0.002000,0.211764,0.000000
685.000000,0.002000,-0.487394,-0.144307,-0.094575,1.815262,-3.411968,-0.377609,16.462130,6.878167,2.868764,0.002000,-0.638716,0.000000
686.000000,0.002000,-0.241304,0.660084,-0.602944,-0.636428,1.302216,0.470058,2.805977,-8.773839,8.278686,0.002000,-0.071608,0.000000
687.000000,0.002000,-0.327799,-3.770623,0.408460,0.085400,0.795507,0.775999,0.092265,1.227043,-0.120589,0.002000,-0.105362,0.000000
688.000000,0.002000,0.127478,0.846976,-0.792002,1.188520,2.133152,0.351185,-0.948324,-6.445535,6.100757,0.002000,-0.359516,0.000000
689.000000,0.002000,-0.581589,1.893552,0.421013,-0.128215,-2.192762,-1.085757,1.047241,-3.502196,-0.814975,0.002000,-1.067486,0.000000
690.000000,0.002000,0.613497,-1.362415,-1.669560,0.191974,0.992305,1.907687,-0.875294,1.935381,2.161295,0.002000,-0.172829,0.000000
691.000000,0.002000,-1.218092,-1.716498,0.548313,1.699113,1.533102,-0.217544,1.717216,2.648110,-0.926223,0.002000,-1.539393,0.000000
692.000000,0.002000,-0.253099,0.466025,0.002299,0.229584,-0.088384,1.246510,7.713900,-16.662762,-0.534963,0.002000,1.254351,0.000000
693.000000,0.002000,-0.017828,0.530663,0.660574,1.213423,1.032020,-1.241596,0.320862,-8.551526,-11.037100,0.002000,-0.487394,0.000000
694.000000,0.002000,0.874972,-0.015544,0.488088,-2.114079,-1.311662,-0.336964,-8.861818,0.567549,-5.316450,0.002000,-0.241304,0.000000
695.000000,0.002000,1.005438,1.731294,-0.314888,-0.987271,1.213264,0.113180,-1.889353,-3.131841,0.609791,0.002000,-0.327799,0.000000
696.000000,0.002000,4.146947,-0.184556,-1.192251,-0.217558,-0.162187,0.230813,-1.005514,0.051789,0.241847,0.002000,0.127478,0.000000
697.000000,0.002000,2.332319,2.270822,0.770997,0.858067,-0.490322,0.576027,-1.102309,-1.049307,-0.408342,0.002000,-0.581589,0.000000
698.000000,0.002000,0.029875,-0.058894,0.216960,0.109446,-1.046424,-0.283907,-3.790592,2.986109,-16.948482,0.002000,0.613497,0.000000
699.000000,0.002000,0.045692,-0.167750,0.011554,-0.295697,-5.641484,1.706460,-9.118174,5.055189,3.461871,0.002000,-1.218092,0.000000
700.000000,0.002000,-0.878478,0.058355,0.324696,1.718729,1.662695,2.837498,11.555128,-0.227348,-4.961004,0.002000,-0.253099,0.000000
701.000000,0.002000,0.075929,-0.294622,-0.112023,-1.910196,-0.322277,-1.562349,-5.102812,19.156356,3.467151,0.002000,-0.017828,0.000000
702.000000,0.002000,-0.553721,0.822431,0.808878,3.264183,-1.842110,0.548324,3.576488,-4.983914,-5.246595,0.002000,0.874972,0.000000
703.000000,0.002000,0.836014,-0.580514,0.297060,0.528198,-1.742588,2.037515,-7.351011,5.501339,-2.573681,0.002000,1.005438,0.000000
704.000000,0.002000,2.995326,1.094656,-0.967064,-0.995314,0.321666,0.776782,-1.476536,-0.482673,0.487720,0.002000,4.146947,0.000000
705.000000,0.002000,2.043768,-1.089781,6.695698,0.501427,-0.466740,1.329876,-0.113312,0.060833,-0.370877,0.002000,2.332319,0.000000
706.000000,0.002000,-0.538503,-0.089945,0.240165,4.918937,0.373940,2.514063,17.910127,2.859988,-6.988450,0.002000,0.029875,0.000000
707.000000,0.002000,-0.521065,0.307932,0.460979,-1.330240,-1.286795,-4.641858,11.630915,-7.108478,-9.676541,0.002000,0.045692,0.000000
708.000000,0.002000,-0.109004,-0.207541,0.609912,1.308269,0.152662,3.266146,2.047097,5.553926,-17.526987,0.002000,-0.878478,0.000000
709.000000,0.002000,0.187276,-0.646992,-0.031702,0.456443,1.487450,1.281606,-4.242600,15.669925,-0.142634,0.002000,0.075929,0.000000
710.000000,0.002000,-0.222362,-0.408974,-0.525623,-0.839954,-0.135523,-1.398145,4.262638,8.792055,11.173029,0.002000,-0.553721,0.000000
711.000000,0.002000,-2.910485,0.359506,0.933400,0.249186,-0.484401,1.731898,1.721138,-0.159559,-0.538734,0.002000,0.836014,0.000000
712.000000,0.002000,-0.205556,-0.125256,0.026139,2.463907,-0.277384,-0.603989,15.290031,10.036773,-0.327433,0.002000,2.995326,0.000000
713.000000,0.002000,-1.658320,-1.184321,0.378959,-1.182975,0.658181,-0.741442,2.857710,2.087994,-0.693302,0.002000,2.043768,0.000000
714.000000,0.002000,0.138645,0.792934,0.511829,-0.811726,-0.553019,0.893135,-2.405185,-9.180031,-7.179340,0.002000,-0.538503,0.000000
715.000000,0.002000,-2.419818,-3.565492,3.135811,-0.503600,-0.526300,-0.144728,0.298645,0.453845,-0.414515,0.002000,-0.521065,0.000000
716.000000,0.002000,0.555420,1.482862,0.232225,1.640679,1.508961,-0.679731,-1.936107,-5.130216,-0.948157,0.002000,-0.109004,0.000000
717.000000,0.002000,1.366952,1.830664,0.116611,0.026393,0.812949,0.780661,-1.670460,-2.449419,-0.004442,0.002000,0.187276,0.000000
718.000000,0.002000,1.992931,-0.186512,2.120661,-0.540343,-1.053838,-0.058324,-1.347548,0.169226,-1.433529,0.002000,-0.222362,0.000000
719.000000,0.002000,0.585589,0.615721,0.203862,-1.590010,3.518971,2.281122,-8.351084,-8.525256,-3.562259,0.002000,-2.910485,0.000000
720.000000,0.002000,1.322465,0.105447,-1.372788,-2.408119,-0.669034,0.855556,-2.991126,-0.152012,2.850590,0.002000,-0.205556,0.000000
721.000000,0.002000,-0.201630,-0.292564,-0.026224,-3.030129,0.489633,-0.842334,9.655601,24.161686,-1.126278,0.002000,-1.658320,0.000000
722.000000,0.002000,0.782859,-0.073501,0.599923,0.679729,0.147187,1.332758,-8.293301,1.036925,-6.313141,0.002000,0.138645,0.000000
723.000000,0.002000,-0.021098,0.603587,0.157660,-1.568058,0.428393,-0.861676,-0.475563,-19.337225,-6.330974,0.002000,-2.419818,0.000000
724.000000,0.002000,4.210820,0.221659,-0.795891,0.520006,0.112246,0.819709,-1.014829,-0.052716,0.177485,0.002000,0.555420,0.000000
725.000000,0.002000,-0.273597,-0.113075,-0.554240,0.594216,-2.336038,2.921877,6.458093,2.727691,14.414184,0.002000,1.366952,0.000000
726.000000,0.002000,0.382621,0.949239,1.781984,-0.235691,0.113525,1.451235,-0.572066,-1.580398,-3.270934,0.002000,1.992931,0.000000
727.000000,0.002000,0.461681,-0.561635,0.088249,-0.261251,2.424091,-3.397587,-8.937681,10.984706,-2.150621,0.002000,0.585589,0.000000
728.000000,0.002000,0.608248,0.468504,-0.096882,1.546034,-1.112783,-2.083534,-10.991655,-12.003742,-2.387520,0.002000,1.322465,0.000000
729.000000,0.002000,-0.703025,0.189934,-0.327594,-0.465623,-2.163313,0.195573,12.701340,-3.967967,5.730238,0.002000,-0.201630,0.000000
730.000000,0.002000,0.675211,0.204877,-0.122269,-2.199321,2.933829,0.430366,-15.550696,-3.236945,4.156282,0.002000,0.782859,0.000000
731.000000,0.002000,-0.555738,-0.321367,-0.172372,1.335868,0.211983,-0.464903,11.162778,7.985251,6.353691,0.002000,-0.021098,0.000000
732.000000,0.002000,-0.546600,0.097308,0.172770,-0.380318,-3.747238,1.184626,19.137584,-2.147671,-5.757274,0.002000,4.210820,0.000000
733.000000,0.002000,0.552083,3.160861,0.957318,-0.704177,0.053128,-1.159153,-0.288393,-1.479264,-0.472048,0.002000,-0.273597,0.000000
734.000000,0.002000,-0.015439,-0.285619,-0.174998,-2.673337,1.441262,0.382932,1.174183,16.427293,9.987795,0.002000,0.382621,0.000000
735.000000,0.002000,-0.778790,0.357713,-0.051251,2.819850,-0.018237,2.981758,16.204933,-6.803747,1.925518,0.002000,0.461681,0.000000
736.000000,0.002000,-0.297110,0.231937,-0.018582,-2.093948,-2.629251,2.722059,12.853151,-12.187985,0.371006,0.002000,0.608248,0.000000
737.000000,0.002000,-0.110511,-0.068321,-0.037200,2.795170,2.757443,-1.404976,6.408278,2.665172,9.939607,0.002000,-0.703025,0.000000
738.000000,0.002000,-2.791698,0.527408,1.978352,0.986580,-0.276012,-0.501415,1.181559,-0.150518,-0.883537,0.002000,0.675211,0.000000
739.000000,0.002000,0.481646,0.590446,0.109024,-1.912575,0.221446,-4.962074,-9.934683,-10.098989,-2.508767,0.002000,-0.555738,0.000000
740.000000,0.002000,0.039280,0.262847,0.194103,1.102498,-0.739600,0.638998,-2.908792,-13.260348,-9.263988,0.002000,-0.546600,0.000000
741.000000,0.002000,0.526362,-0.032903,-0.092717,1.797072,-0.654927,3.620009,-16.401613,2.520987,2.195215,0.002000,0.552083,0.000000
742.000000,0.002000,0.015191,0.104412,0.195908,0.127394,-3.490135,2.108269,-4.835937,-7.390852,-12.402909,0.002000,-0.015439,0.000000
743.000000,0.002000,-0.370107,-0.006631,0.549004,3.535195,-2.542638,-1.729874,9.124940,1.762012,-16.145360,0.002000,-0.778790,0.000000
744.000000,0.002000,-0.230818,0.087766,-0.267248,2.776657,-3.214578,-0.379809,13.155719,-3.365325,12.367535,0.002000,-0.297110,0.000000
745.000000,0.002000,4.472858,-0.763759,-1.902268,0.021267,0.617547,-1.228756,-0.730243,0.133654,0.308765,0.002000,-0.110511,0.000000
746.000000,0.002000,1.978772,0.940919,0.089122,1.461966,0.723082,-0.026598,-2.927011,-1.334656,-0.176162,0.002000,-2.791698,0.000000
747.000000,0.002000,-0.513156,-1.209354,-2.777730,-0.671054,1.314000,-0.310456,0.324381,0.746602,1.645001,0.002000,0.481646,0.000000
748.000000,0.002000,0.655277,-1.297225,-0.057360,-0.746243,3.196762,0.520908,-2.909075,5.930797,-0.104449,0.002000,0.039280,0.000000
749.000000,0.002000,3.488973,1.169669,1.592501,-0.538279,-0.249878,-0.108275,-0.963839,-0.391025,-0.508989,0.002000,0.526362,0.000000
750.000000,0.002000,-0.246656,0.143981,0.352417,-2.149365,-1.074953,0.056808,6.136452,-5.917202,-21.669621,0.002000,0.015191,0.000000
751.000000,0.002000,-0.081567,-0.353599,0.171776,-3.826125,-2.768880,-1.617000,2.110006,18.216107,-8.931754,0.002000,-0.370107,0.000000
752.000000,0.002000,-1.225273,0.557566,-0.713598,-1.551202,-2.133157,-2.521988,4.873712,-2.106644,2.912272,0.002000,-0.230818,0.000000
753.000000,0.002000,0.300700,0.805261,-0.964728,0.379954,1.210100,-1.674705,-1.790277,-4.653375,5.558670,0.002000,4.472858,0.000000
754.000000,0.002000,-0.953265,-1.110644,0.324428,-0.308987,-0.587809,0.035485,3.529877,4.752048,-1.338902,0.002000,1.978772,0.000000
755.000000,0.002000,0.876698,-0.639988,0.457099,0.824741,0.835478,3.312840,-5.941866,4.828364,-3.256874,0.002000,-0.513156,0.000000
756.000000,0.002000,-0.191363,0.949177,-0.106249,-1.362955,3.587811,1.428236,2.142861,-11.886896,1.527963,0.002000,0.655277,0.000000
757.000000,0.002000,1.004383,-0.318916,0.196218,2.031658,-0.827125,0.465600,-8.458332,3.211107,-1.654006,0.002000,3.488973,0.000000
758.000000,0.002000,0.217733,-0.307015,0.137114,-0.617661,-0.162893,-1.345188,-11.969476,16.513730,-1.630840,0.002000,-0.246656,0.000000
759.000000,0.002000,-0.098839,0.514792,0.213791,-3.300241,0.548704,1.424507,3.427545,-16.919425,-4.626453,0.002000,-0.081567,0.000000
760.000000,0.002000,0.330725,-0.687489,-0.206362,-3.107347,-2.007365,0.796241,-6.666081,10.255081,4.706975,0.002000,-1.225273,0.000000
761.000000,0.002000,-0.260675,0.102920,-0.477451,-3.921168,0.429044,0.569945,9.105677,-2.120963,15.673467,0.002000,0.300700,0.000000
762.000000,0.002000,-0.420955,0.741492,-0.140702,0.643288,3.380250,1.596894,6.106719,-11.412583,2.614164,0.002000,-0.953265,0.000000
763.000000,0.002000,0.951903,0.140849,-0.034903,-0.387999,-1.458596,0.116441,-11.111820,-1.353628,0.812292,0.002000,0.876698,0.000000
764.000000,0.002000,-0.213226,0.021881,0.069322,-2.625631,0.773892,-2.200743,9.954326,-3.182249,-9.197729,0.002000,-0.191363,0.000000
765.000000,0.002000,2.744988,1.097780,1.055281,0.266729,-0.119450,1.667552,-1.558203,-0.565118,-0.609578,0.002000,1.004383,0.000000
766.000000,0.002000,-0.218491,-0.220674,-0.792452,0.290441,3.056413,-0.244108,3.334093,4.290065,12.369510,0.002000,0.217733,0.000000
767.000000,0.002000,0.821923,0.116414,-0.208632,0.029473,2.661633,1.963329,-12.113896,-0.583131,4.482940,0.002000,-0.098839,0.000000
768.000000,0.002000,0.039385,0.412264,0.066342,-2.540572,1.714389,-3.361556,-5.137213,-16.991331,-2.915155,0.002000,0.330725,0.000000
769.000000,0.002000,-0.231537,0.106094,-0.170114,1.057061,0.033301,-1.930104,14.293692,-3.373690,11.920558,0.002000,-0.260675,0.000000
770.000000,0.002000,0.622787,-0.627082,0.284074,2.014429,0.931297,-0.625540,-7.642153,7.515189,-3.808109,0.002000,-0.420955,0.000000
771.000000,0.002000,0.257402,2.233782,0.209222,0.148846,-2.005767,-0.416957,-0.394409,-3.097769,-0.360602,0.002000,0.951903,0.000000
772.000000,0.002000,0.013304,0.382042,-1.797867,0.233913,1.936931,-0.579271,-0.017052,-0.955439,4.271720,0.002000,-0.213226,0.000000
773.000000,0.002000,-0.080668,1.321920,-0.694628,-0.896206,2.625652,0.686452,0.290778,-5.305866,3.228312,0.002000,2.744988,0.000000
774.000000,0.002000,0.707508,-0.199614,0.139743,0.276575,-0.871941,0.361383,-12.993682,3.966195,-3.352617,0.002000,-0.218491,0.000000
775.000000,0.002000,2.759936,-2.162780,1.728448,-0.653562,0.318376,0.124703,-0.841949,0.696595,-0.519780,0.002000,0.821923,0.000000
776.000000,0.002000,2.403456,-1.781525,-2.456678,0.214873,0.785208,-0.371959,-0.767261,0.577013,0.769100,0.002000,0.039385,0.000000
777.000000,0.002000,0.689666,0.195676,0.163881,-0.692852,1.317737,-2.510366,-13.577357,-3.889413,-3.458183,0.002000,-0.231537,0.000000
778.000000,0.002000,-0.697265,-0.641970,0.019166,0.414460,0.431670,-1.989695,7.985804,8.981018,-0.739968,0.002000,0.622787,0.000000
779.000000,0.002000,-0.382547,0.049728,0.202503,-1.808616,-4.135033,-1.312388,16.930647,-2.285463,-9.671271,0.002000,0.257402,0.000000
780.000000,0.002000,0.454958,-2.094295,0.447432,0.988133,-1.536324,0.344432,-0.704970,2.978393,-0.590431,0.002000,0.013304,0.000000
781.000000,0.002000,-0.139718,0.616207,1.868512,1.088156,1.034601,-0.280715,0.239469,-1.168695,-3.673279,0.002000,-0.080668,0.000000
782.000000,0.002000,0.203392,-0.137664,0.170415,-3.557769,-2.261851,0.455011,-11.841365,11.261997,-9.079298,0.002000,0.707508,0.000000
783.000000,0.002000,0.677407,-1.235265,-3.798353,0.108270,0.356320,0.650763,-0.197778,0.367853,1.073837,0.002000,2.759936,0.000000
784.000000,0.002000,0.606444,-0.121624,0.251079,2.902721,0.795300,-1.823109,-12.990605,3.489308,-5.489278,0.002000,2.403456,0.000000
785.000000,0.002000,1.760186,-2.384082,0.897317,0.758703,-0.790771,-0.991878,-1.013625,1.342964,-0.502575,0.002000,0.689666,0.000000
786.000000,0.002000,-0.315719,0.411420,-0.819986,-3.793355,1.721479,-0.838388,3.732771,-5.621558,9.930022,0.002000,-0.697265,0.000000
787.000000,0.002000,-0.003593,3.497639,-1.995073,0.126556,0.292057,-1.204540,-0.011018,-1.014529,0.584885,0.002000,-0.382547,0.000000
788.000000,0.002000,-0.082533,0.611589,-0.097931,-2.344249,-0.873246,-2.938096,1.534582,-18.536193,2.484028,0.002000,0.454958,0.000000
789.000000,0.002000,0.215820,-0.197425,0.286466,-0.667275,1.575446,-1.693281,-11.184125,8.180524,-12.988527,0.002000,-0.139718,0.000000
790.000000,0.002000,0.016148,-0.223456,1.257097,0.261999,1.546045,0.763590,-0.283657,1.373954,-7.346452,0.002000,0.203392,0.000000
791.000000,0.002000,-2.004326,1.877351,-0.236026,1.547199,-0.739416,-0.538404,1.620611,-1.470368,0.171675,0.002000,0.677407,0.000000
792.000000,0.002000,0.054740,0.624030,-0.178662,-2.774687,-1.296674,-1.267171,-5.286169,-17.976617,4.097298,0.002000,0.606444,0.000000
793.000000,0.002000,-0.641660,0.044705,-0.801156,1.383532,-0.848003,1.134559,6.925718,-0.010117,8.844522,0.002000,1.760186,0.000000
794.000000,0.002000,-0.476500,0.495498,-0.877760,-1.164686,-0.834819,-0.776043,4.270418,-4.041596,7.827438,0.002000,-0.315719,0.000000
795.000000,0.002000,-0.226023,0.419661,0.843529,0.232993,0.491140,-4.395244,2.333596,-4.614187,-10.282650,0.002000,-0.003593,0.000000
796.000000,0.002000,-0.406121,1.407736,1.222471,0.974695,-0.000371,-0.805521,0.820282,-3.038682,-2.656087,0.002000,-0.082533,0.000000
797.000000,0.002000,0.031790,0.236723,0.014590,0.149602,-1.140777,-3.480202,-2.642750,-16.290134,0.938576,0.002000,0.215820,0.000000
798.000000,0.002000,-0.016676,0.437360,-0.176634,3.715864,0.237049,-1.197859,0.199711,-17.684893,8.518320,0.002000,0.016148,0.000000
799.000000,0.002000,-1.641708,0.368809,-2.089950,-0.782602,1.278831,-0.401078,1.381914,-0.354305,1.792147,0.002000,-2.004326,0.000000
800.000000,0.002000,-0.203167,0.229677,0.129544,2.529729,1.387878,-2.430949,9.875773,-12.333488,-5.780533,0.002000,0.054740,0.000000
801.000000,0.002000,-0.016088,-0.195897,0.707799,-0.426788,0.913439,1.739253,0.412778,4.427569,-15.516032,0.002000,-0.641660,0.000000
802.000000,0.002000,0.054967,0.171277,0.030625,-1.032200,3.793313,-0.641986,-9.140716,-10.236802,3.012986,0.002000,-0.476500,0.000000
803.000000,0.002000,1.801662,-0.334181,-0.661506,-0.970686,-0.452715,-0.257693,-3.514170,0.888884,1.288863,0.002000,-0.226023,0.000000
804.000000,0.002000,-0.292792,0.136928,-0.032256,1.742560,-0.631215,3.917298,14.055296,-4.597200,3.272430,0.002000,-0.406121,0.000000
805.000000,0.002000,-0.240427,-0.304091,-0.338572,3.287577,-0.732648,1.712801,7.030462,11.631007,13.434218,0.002000,0.031790,0.000000
806.000000,0.002000,-2.203944,-2.568771,-4.592183,-0.176468,-0.271424,-0.769697,0.235780,0.276164,0.484985,0.002000,-0.016676,0.000000
807.000000,0.002000,0.361147,-0.166707,-0.048514,-1.221397,3.068661,-1.634688,-18.967938,5.489333,0.394615,0.002000,-1.641708,0.000000
808.000000,0.002000,-0.004732,0.473270,-0.136824,-1.189015,-1.699536,-1.696421,-2.181645,-17.108123,6.900434,0.002000,-0.203167,0.000000
809.000000,0.002000,-0.569465,0.138289,-0.205642,-1.591914,2.081988,2.265876,15.477829,-2.600229,5.989142,0.002000,-0.016088,0.000000
810.000000,0.002000,-0.231848,0.228456,-0.003534,-0.862053,-1.670868,-1.167755,10.262940,-10.796278,0.478148,0.002000,0.054967,0.000000
811.000000,0.002000,-0.068223,-0.446696,-0.396354,-0.210300,0.029369,-4.554553,2.036416,12.938375,9.913415,0.002000,1.801662,0.000000
812.000000,0.002000,-0.364530,0.301841,0.814811,1.775669,0.075069,-0.547435,3.979990,-3.659270,-10.669385,0.002000,-0.292792,0.000000
813.000000,0.002000,1.052104,0.576662,-0.619691,0.219826,-0.140425,0.149381,-5.518764,-2.754185,3.479636,0.002000,-0.240427,0.000000
814.000000,0.002000,-0.234061,-0.035346,-1.205425,0.557861,1.190694,1.619884,1.729532,0.810952,8.347727,0.002000,-2.203944,0.000000
815.000000,0.002000,-0.464489,0.660794,-0.008289,0.621446,-3.295382,0.570735,8.109027,-11.571901,-0.202541,0.002000,0.361147,0.000000
816.000000,0.002000,-0.137128,0.414110,-0.267843,-3.449454,2.041644,-0.778079,4.443175,-15.471132,11.005265,0.002000,-0.004732,0.000000
817.000000,0.002000,1.040145,-0.572944,0.514892,-1.831097,0.842357,-1.646618,-5.840630,3.307619,-2.823209,0.002000,-0.569465,0.000000
818.000000,0.002000,-0.112649,3.085932,-1.870784,1.238889,-0.514576,-0.322168,0.023474,-1.208885,0.717728,0.002000,-0.231848,0.000000
819.000000,0.002000,-0.315752,-0.188805,0.451656,-3.034972,0.506459,1.082887,11.324506,7.678271,-15.606986,0.002000,-0.068223,0.000000
820.000000,0.002000,0.039112,0.489435,1.828722,0.403005,-0.229001,-0.071488,-0.173480,-1.006311,-3.979452,0.002000,-0.364530,0.000000
821.000000,0.002000,1.184211,-1.335983,-0.781544,0.309939,1.180718,0.205466,-2.315232,2.940079,1.226677,0.002000,1.052104,0.000000
822.000000,0.002000,2.930601,-1.762967,0.510216,0.258091,-0.004607,-0.336324,-1.246301,0.772977,-0.233903,0.002000,-0.234061,0.000000
823.000000,0.002000,0.142462,1.878543,2.520831,-0.203299,0.034342,-1.113021,-0.095289,-0.999548,-1.429423,0.002000,-0.464489,0.000000
824.000000,0.002000,0.110103,-0.267543,0.574795,-0.145174,0.359755,1.658089,-3.214743,8.124238,-15.024224,0.002000,-0.137128,0.000000
825.000000,0.002000,3.690839,-0.442392,-1.215640,0.045239,-0.838681,-1.750906,-1.114425,0.171894,0.366923,0.002000,1.040145,0.000000
826.000000,0.002000,0.300672,-0.264327,-0.467074,3.052642,-0.475633,0.218821,-8.302106,6.292822,12.257955,0.002000,-0.112649,0.000000
827.000000,0.002000,-1.011946,0.489196,-0.356238,-0.280117,1.560014,-0.288193,7.589880,-4.021758,2.803154,0.002000,-0.315752,0.000000
828.000000,0.002000,0.375071,0.199011,-0.399269,2.635685,-2.458508,-1.235606,-10.639865,-4.148470,11.063929,0.002000,0.039112,0.000000
829.000000,0.002000,-1.811579,-1.048927,-1.185780,0.439776,0.461375,1.851549,1.989121,1.304121,1.466215,0.002000,1.184211,0.000000
830.000000,0.002000,0.188984,0.486722,-0.366815,-1.055719,-2.792858,0.940458,-5.745320,-11.803175,10.729942,0.002000,2.930601,0.000000
831.000000,0.002000,0.580424,-0.790724,0.209854,-0.619923,-0.544794,-2.675420,-6.520587,7.285011,-3.223085,0.002000,0.142462,0.000000
832.000000,0.002000,-0.072404,-0.082932,-0.064439,-1.734950,5.125444,-0.396895,-0.250528,5.627754,10.813913,0.002000,0.110103,0.000000
833.000000,0.002000,0.195745,0.836303,-0.378281,0.421798,0.800666,0.928089,-2.267719,-10.437382,4.909612,0.002000,3.690839,0.000000
834.000000,0.002000,0.010131,-0.725491,0.206714,-1.348460,-0.965020,1.295717,-0.493576,13.799995,-3.617181,0.002000,0.300672,0.000000
835.000000,0.002000,0.599686,-0.316217,-0.236661,-4.435676,-1.739379,-1.457370,-11.964764,7.096141,6.063968,0.002000,-1.011946,0.000000
836.000000,0.002000,-0.979417,-2.817830,1.367794,-0.736724,-0.877706,0.086113,0.304397,1.388266,-0.611830,0.002000,0.375071,0.000000
837.000000,0.002000,-0.880535,-0.064521,0.094200,2.478517,0.416011,-2.221216,13.105681,1.888682,-0.909576,0.002000,-1.811579,0.000000
838.000000,0.002000,0.310570,-0.198368,0.729485,-1.831444,-0.464522,0.432722,-4.922689,3.674787,-11.863283,0.002000,0.188984,0.000000
839.000000,0.002000,-0.205248,0.016411,0.042957,4.853885,1.893265,0.108187,2.013392,-1.645827,0.301740,0.002000,0.580424,0.000000
840.000000,0.002000,0.306725,0.233952,-1.315963,0.793552,-1.105415,0.416157,-1.549037,-0.542433,6.892523,0.002000,-0.072404,0.000000
841.000000,0.002000,-0.330600,0.584467,1.149849,-1.822842,0.299304,-0.160523,1.408502,-3.113858,-6.413324,0.002000,0.195745,0.000000
842.000000,0.002000,0.020581,0.269766,-0.303036,1.236077,1.178472,-0.573965,-4.129672,-11.490922,17.065610,0.002000,0.010131,0.000000
843.000000,0.002000,-0.169472,-0.172612,-0.144131,0.910333,-0.625099,0.381653,7.869680,11.875751,10.579351,0.002000,0.599686,0.000000
844.000000,0.002000,0.023494,0.117447,-0.081656,2.024420,0.506764,4.404634,0.521578,-11.488293,9.164901,0.002000,-0.979417,0.000000
845.000000,0.002000,-0.628330,-2.631876,-0.716945,-1.223379,0.592533,-0.854654,0.599888,2.092541,0.456816,0.002000,-0.880535,0.000000
846.000000,0.002000,0.273801,0.063885,0.357243,0.788145,1.618503,-0.891825,-13.016180,-1.771690,-14.787627,0.002000,0.310570,0.000000
847.000000,0.002000,-2.699649,1.228603,0.171689,0.945898,-1.024042,0.410413,1.785139,-0.802054,-0.104142,0.002000,-0.205248,0.000000
848.000000,0.002000,0.147297,-0.913751,-0.611542,-0.556370,0.621647,-1.271163,-1.354341,7.604822,4.902657,0.002000,0.306725,0.000000
849.000000,0.002000,2.113751,2.160121,-1.652893,0.883417,-0.295744,0.534727,-0.927096,-0.932519,0.731301,0.002000,-0.330600,0.000000
850.000000,0.002000,0.233289,0.217703,0.044118,3.499711,2.132275,0.600679,-14.426932,-10.925763,-2.878181,0.002000,0.020581,0.000000
851.000000,0.002000,-0.305011,-0.133631,-0.423265,-3.372421,-1.274935,-1.168785,8.379656,7.512646,11.346062,0.002000,-0.169472,0.000000
852.000000,0.002000,0.140704,-0.197751,-0.354251,2.859963,1.167262,0.745230,-6.871952,8.090198,14.534013,0.002000,0.023494,0.000000
853.000000,0.002000,-0.391861,-0.671689,-0.076211,-2.299612,0.753596,0.527098,6.472687,12.742948,1.470536,0.002000,-0.628330,0.000000
854.000000,0.002000,-0.546164,-0.199357,-0.247679,0.107183,0.019055,-2.733068,14.479354,6.733541,7.426335,0.002000,0.273801,0.000000
855.000000,0.002000,-0.132491,-0.943428,-0.504117,-2.543705,1.209271,0.505557,0.739218,8.489213,4.544312,0.002000,-2.699649,0.000000
856.000000,0.002000,-0.237392,0.387859,0.230718,0.200442,0.419770,2.175822,8.719922,-14.814067,-9.351296,0.002000,0.147297,0.000000
857.000000,0.002000,-0.747978,0.140981,-0.271684,-1.625318,0.725002,1.422410,14.167255,-2.237177,4.225382,0.002000,2.113751,0.000000
858.000000,0.002000,-0.093232,0.089095,-0.723846,0.948544,1.038030,-1.819275,-0.845194,0.103020,15.783232,0.002000,0.233289,0.000000
859.000000,0.002000,0.405299,-0.568264,0.279936,4.458306,-1.060789,-0.960695,-8.188259,12.054514,-6.612228,0.002000,-0.305011,0.000000
860.000000,0.002000,-0.058259,0.447583,0.292053,-1.830525,1.244840,-2.388728,1.176732,-15.454455,-7.328002,0.002000,0.140704,0.000000
861.000000,0.002000,2.792931,-0.852130,1.149989,-0.368675,-1.999291,0.637951,-1.570165,0.457999,-0.661105,0.002000,-0.391861,0.000000
862.000000,0.002000,0.170635,0.009184,0.000281,0.567428,2.142905,-3.201576,-13.229260,-1.110338,1.011588,0.002000,-0.546164,0.000000
863.000000,0.002000,1.744744,-0.019155,-0.390596,1.737779,-1.336016,0.225227,-4.343059,0.196947,0.897901,0.002000,-0.132491,0.000000
864.000000,0.002000,-0.697506,-5.336594,-0.504998,0.326013,-0.409483,-0.459598,0.084369,0.659148,0.067053,0.002000,-0.237392,0.000000
865.000000,0.002000,0.873412,-0.828891,-2.754206,0.097210,-0.955482,1.156189,-0.590631,0.535031,1.740116,0.002000,-0.747978,0.000000
866.000000,0.002000,-0.687179,-0.877174,0.378768,1.439870,0.856494,-1.625763,4.787105,6.920241,-2.562410,0.002000,-0.093232,0.000000
867.000000,0.002000,-0.367208,-0.211189,0.004631,-5.358206,-2.485231,-0.858432,18.052557,9.096388,-0.796911,0.002000,0.405299,0.000000
868.000000,0.002000,0.487006,-1.042333,1.259937,0.475634,-0.964917,-1.804337,-1.308037,2.709871,-3.513824,0.002000,-0.058259,0.000000
869.000000,0.002000,-0.016600,0.278237,0.440622,-0.660773,0.512313,-3.719234,-1.737051,-8.654279,-16.073105,0.002000,2.792931,0.000000
870.000000,0.002000,0.476337,0.042539,-0.654065,-1.530465,2.433442,1.977992,-8.093519,0.397425,11.024381,0.002000,0.170635,0.000000
871.000000,0.002000,-0.095511,0.216078,-0.174391,0.409704,-1.636108,-3.165737,3.913264,-9.458157,11.794266,0.002000,1.744744,0.000000
872.000000,0.002000,-1.057663,-2.406116,-0.776831,0.512150,0.918189,-0.078427,0.841461,1.960277,0.569499,0.002000,-0.697506,0.000000
873.000000,0.002000,0.607846,1.437466,2.109056,-0.231403,-0.827402,-1.429846,-0.620041,-1.170788,-2.022028,0.002000,0.873412,0.000000
874.000000,0.002000,-1.911242,-2.192632,-2.942054,0.042924,0.156242,0.543591,0.492226,0.592070,0.787606,0.002000,-0.687179,0.000000
875.000000,0.002000,0.213810,1.958650,0.649563,0.560937,1.623164,0.356877,-0.384516,-3.441889,-1.147546,0.002000,-0.367208,0.000000
876.000000,0.002000,-1.447782,0.400269,-0.051214,-0.849949,0.550408,0.597368,6.197631,-1.533402,0.287051,0.002000,0.487006,0.000000
877.000000,0.002000,-0.036315,-0.225085,2.528943,0.838937,0.312956,-1.484692,0.013415,0.221580,-2.457133,0.002000,-0.016600,0.000000
878.000000,0.002000,1.968087,0.034098,-0.020709,1.072353,-0.134348,-1.050445,-3.791591,-0.014147,0.051375,0.002000,0.476337,0.000000
879.000000,0.002000,0.150838,-0.153907,-0.458942,0.666621,0.529342,-2.574385,-5.603849,6.209105,15.216951,0.002000,-0.095511,0.000000
880.000000,0.002000,0.572953,-0.094363,-0.308613,5.016232,-0.900947,0.658272,-13.306049,2.770768,5.958895,0.002000,-1.057663,0.000000
881.000000,0.002000,-0.167810,-0.297527,0.010579,1.217967,2.878798,-0.106260,7.363136,20.661867,-2.451490,0.002000,0.607846,0.000000
882.000000,0.002000,0.171734,-0.682369,0.491130,0.987507,3.954895,2.069204,-2.463647,10.427034,-6.286671,0.002000,-1.911242,0.000000
883.000000,0.002000,-0.454509,0.347578,0.588545,2.537205,-1.355825,-0.272875,7.382099,-6.366026,-11.269142,0.002000,0.213810,0.000000
884.000000,0.002000,0.173535,-0.163104,0.368227,0.267511,-0.887007,2.552165,-9.074246,6.049831,-17.359581,0.002000,-1.447782,0.000000
885.000000,0.002000,-0.968257,-0.680788,-0.878656,2.852664,1.365893,0.649828,4.025842,2.999210,3.956180,0.002000,-0.036315,0.000000
886.000000,0.002000,-0.458259,1.256862,0.400474,1.199487,0.430241,0.421250,2.033982,-6.199815,-1.741713,0.002000,1.968087,0.000000
887.000000,0.002000,0.329020,0.331281,-0.218696,0.299020,2.596651,-2.416414,-12.575410,-12.904411,9.996773,0.002000,0.150838,0.000000
888.000000,0.002000,-0.776152,-0.050850,0.390319,3.590568,2.532062,-1.621331,11.974285,0.106510,-5.900079,0.002000,0.572953,0.000000
889.000000,0.002000,-0.150793,-0.130602,0.344129,0.264869,0.885504,-0.142766,6.269630,7.857215,-14.839881,0.002000,-0.167810,0.000000
890.000000,0.002000,3.465027,1.482002,2.249198,-0.284446,0.301369,0.591170,-0.781226,-0.315573,-0.532507,0.002000,0.171734,0.000000
891.000000,0.002000,-0.960101,1.084716,-0.581992,0.494447,0.991332,1.556366,3.548727,-4.234471,2.256077,0.002000,-0.454509,0.000000
892.000000,0.002000,-0.319862,-0.485427,0.292415,0.302495,0.781824,2.239349,6.692414,14.212766,-9.048847,0.002000,0.173535,0.000000
893.000000,0.002000,2.651672,0.255295,-1.738146,-0.126527,-1.478874,0.200935,-1.429352,-0.126476,0.937441,0.002000,-0.968257,0.000000
894.000000,0.002000,0.078162,-0.494235,-0.061657,0.421868,1.116209,2.985373,-3.795680,16.872855,1.758094,0.002000,-0.458259,0.000000
895.000000,0.002000,1.334949,0.429211,0.757470,1.247747,1.688507,-0.806100,-4.392293,-1.411383,-2.271999,0.002000,0.329020,0.000000
896.000000,0.002000,0.267869,0.839327,0.396385,2.078530,0.693399,0.726309,-3.073515,-9.171803,-5.093188,0.002000,-0.776152,0.000000
897.000000,0.002000,-0.158454,0.003416,0.186513,-0.633048,1.077984,-1.465020,7.804680,-1.602975,-13.833310,0.002000,-0.150793,0.000000
