# 
#                 columns are tag, mass, x, y, z, vx, vy, vz, ax, ay, az, EK, EU, E
#                 Time=10.000000
# 
1.000000,0.002000,3.093871,-0.526930,-0.879170,1.308929,-0.688716,-1.122797,-1.560107,0.363017,0.445483,78.863670,-160.998842,-82.135172
2.000000,0.002000,2.526599,2.313349,-1.423760,-0.992956,0.701978,-1.964171,-0.988638,-0.844131,0.538407,0.000000,0.000000,0.000000
3.000000,0.002000,0.281797,0.150047,-0.360489,4.115282,-0.613490,-3.230988,-11.596381,-0.522749,12.418147,0.000000,0.000000,0.000000
4.000000,0.002000,-0.092845,0.092715,-0.836396,-0.394234,-2.983527,2.023112,1.596557,-0.138110,13.419508,nan,0.000000,0.000000
5.000000,0.002000,-0.094402,-0.087395,-0.018375,-1.738874,-1.396766,-3.224285,6.609114,12.437858,-1.208884,0.000000,0.000000,0.000000
6.000000,0.002000,0.118650,0.812187,-0.543867,-1.199246,-2.489989,-0.231478,-2.312419,-9.013032,6.947801,0.000000,0.000000,0.000000
7.000000,0.002000,-0.041784,0.354170,0.849461,0.209646,-3.564455,-3.290162,0.320818,-3.569555,-11.026732,0.000000,0.000000,0.000000
8.000000,0.002000,-0.515187,-0.642166,0.602013,0.013823,0.287782,-1.586685,4.636387,6.471595,-6.014039,4787142885798284855643719328774778173795084465174780641693637665648403877169013833835529490445327801418802613545316354916722037909682831782952926534213756634845881425509470953275392.000000,0.000000,0.000000
9.000000,0.002000,3.253881,-2.004220,-2.301538,-0.805206,0.564037,0.385578,-0.699269,0.433897,0.482422,0.000000,0.002000,0.000000
10.000000,0.002000,-1.296737,1.211756,2.394942,-0.578365,-0.593918,-0.329717,0.871977,-0.737669,-1.580403,110635040058481679411514612453443184812538708864458969506756681039152082237526959845920215643780174509973234098540444092991932712850278572228240991555595583386670857736495119495455878108896857050578944.000000,0.002000,0.000000
11.000000,0.002000,-0.299021,-0.464069,0.022185,-0.045509,-2.460786,1.563211,8.052004,14.110289,-1.757330,6290249991981503926886157919257818480068077002863106881581926316779113236916075250088185699340216948616574972492619074843610900712036786189768187795708741233328991815551598924398592.000000,0.002000,0.000000
12.000000,0.002000,1.036192,-0.948475,-0.660443,2.119669,-0.755459,-0.805920,-3.535825,3.504624,2.008177,1109012494741397987484543737691401318909060178886875582239867855680697677722197282973016375103961476976053819161181920992190165124037563755145170653511545320734569147945263655744364463638667623220058524796865353799958528.000000,0.002000,0.000000
13.000000,0.002000,-0.724516,-0.351444,0.200013,0.697066,-1.840446,-2.947963,10.009942,6.535788,-3.425804,0.000000,0.002000,0.000000
14.000000,0.002000,-1.757702,0.201798,1.405883,0.408402,-0.605454,-1.232984,2.643757,-0.206905,-1.850281,31091784414728264655539602971689349090085441500613317120753575695656055987010049539047424.000000,0.002000,0.000000
15.000000,0.002000,-1.676575,0.957489,-0.789299,-1.692267,1.741246,-0.479168,3.088027,-1.497720,1.476037,2285262.556982,0.002000,0.000000
16.000000,0.002000,-0.045524,1.727926,0.409034,0.673904,-1.847167,-1.935396,0.121549,-4.812040,-1.366578,5993431493856710198719123052054670718426509187359637773007849239998886030436812357414513822822744195072.000000,0.002000,0.000000
17.000000,0.002000,-0.937335,0.431862,0.518114,-0.002140,0.386488,0.631877,7.560174,-3.127445,-4.745962,2289350.509804,0.002000,0.000000
18.000000,0.002000,0.065148,0.411883,0.108535,2.660336,2.195809,-2.233346,-2.537019,-14.409495,-3.767175,2273922.526101,0.002000,0.000000
19.000000,0.002000,0.107867,-0.055460,0.172045,-0.830537,0.018919,1.289917,-7.680391,13.427510,-10.485019,1535090.422703,0.002000,0.000000
20.000000,0.002000,-0.295737,0.140922,-0.391207,-0.503484,-2.025110,-0.766564,9.835391,-3.612207,13.500973,26840764939309020721218979383864957699904490538083716984671519952491802474628511243032042251456726053511434862592.000000,0.002000,0.000000
21.000000,0.002000,0.490059,-0.026470,-0.250724,-1.662904,-0.685602,-1.135548,-15.273939,4.006680,6.579193,4044428665534533611213304356226034688368302655130664193683801731533799845287340412248928573518144816870169935151169192682206805035506263134387664693856188131845029367226826752.000000,0.002000,0.000000
22.000000,0.002000,1.279880,-0.009849,0.267395,-0.034876,-0.589964,-0.766639,-7.012329,0.713343,-1.744010,156272876253969123815436317796159332680600117272221668544831330872237022458226686107421595209353818992906750866241561296896.000000,0.002000,0.000000
23.000000,0.002000,-1.110813,1.272482,0.168609,1.604012,0.975537,2.141436,3.521239,-3.602835,-0.790469,934262174692957178060646332511646691896184848498820356791054081674722700114857736510612291262391410025950791271607882163463982075179100531517979495176511759618932736.000000,0.002000,0.000000
24.000000,0.002000,0.662855,0.478500,-0.002449,0.114763,0.396501,0.720252,-12.256527,-8.180386,-0.144476,856015154180819309336236949353314342567447089315044053248852705301598769483239183563113567306933652006410620446301653238423509224860437578529986665689168211738172290236416.000000,0.002000,0.000000
25.000000,0.002000,-0.196753,-0.645885,-0.517816,0.510809,-2.146034,0.171108,2.477568,9.175334,7.029911,2631752116622533446294666818379868278039058723156730174242816.000000,0.002000,0.000000
26.000000,0.002000,0.870561,0.216945,-0.432324,-3.066799,-1.966782,-0.646454,-10.449667,-1.325625,5.211701,164954577217361082818897578950164774995798469262047852491577782728319098036110500227034419040835097742588506791212401861529613712099141462735817291962056448147456.000000,0.002000,0.000000
27.000000,0.002000,-0.127606,-0.580390,-0.088220,-1.683170,1.801156,-0.846061,2.455272,16.804968,1.548346,139991206025706966380896211483458599161349890892989886103552.000000,0.002000,0.000000
28.000000,0.002000,0.075364,0.319756,-1.043309,0.016616,1.012818,0.625681,-0.576586,-2.255885,10.047124,21488054396700792230289958030054126405604308178483686986239676532737185186174849763302190329953601704955545430927953848666659385094387312039901986006769378947818848256.000000,0.002000,0.000000
29.000000,0.002000,0.017598,0.158358,0.342235,3.651209,2.762733,-4.889834,2.300232,-4.371501,-16.067380,1276660262919024153610949847223893340499009603726971265613824.000000,0.002000,0.000000
30.000000,0.002000,-0.681607,-0.779175,-0.626134,0.453041,0.690698,1.686340,4.327170,5.612856,3.983942,7525316737058676795382035762500765404229250976645820451343278800575148531805077908107370658697101652263748182506710006064657420809372538696252535919114767262788344882418115655057136270817868859767976234097881828869942782840247402090638287753445376.000000,0.002000,0.000000
31.000000,0.002000,-0.432126,0.082928,-0.010089,-2.553209,2.689506,0.563337,16.742886,0.488073,-0.286570,9713646261546692.000000,0.002000,0.000000
32.000000,0.002000,-0.229670,-0.130972,-0.419682,0.311180,-2.185646,0.352058,6.760956,8.505509,13.123929,2267824.681923,0.002000,0.000000
33.000000,0.002000,-0.338100,0.992296,0.572130,-0.909457,1.768525,-0.502077,2.779829,-7.445936,-5.265223,167896874519916015894601469526233460405390688783293775311264040812592244363106892642329134643114601115420239175893938864128.000000,0.002000,0.000000
34.000000,0.002000,1.015910,0.749878,0.372045,1.946449,-0.317047,2.101164,-6.019176,-3.702910,-2.393905,17187685.027168,0.002000,0.000000
35.000000,0.002000,-0.528137,0.572207,-0.990241,2.813127,-1.125753,2.448776,3.468517,-4.117328,7.200062,325137980285186090031242873347693664157403505733259074091361180377581018687364661248.000000,0.002000,0.000000
36.000000,0.002000,-0.095203,0.578700,-0.477704,-2.951601,-1.870712,3.716533,1.266621,-12.109193,11.288309,412970398446300573479526037427942038954303216195267062914369972626003632051683057472444621739207841271380999421344307622172766298995902842032917881269735239696599325391770726957056.000000,0.002000,0.000000
37.000000,0.002000,-1.911014,-0.050193,-4.077801,-0.824545,-0.443084,-0.705396,0.414944,0.014707,0.881764,4575679813031859906489121795058728024619492444402377064485322131542936049288373798760296004013291457421418250267842770483535896548184254628164922833532120651529124737415573368569645493607792092935788429312.000000,0.002000,0.000000
38.000000,0.002000,0.551015,0.835838,-0.818554,0.115852,1.262079,-2.485725,-3.786755,-5.238265,5.372290,2375718301075759301945613049146406416628152816213241361622157134632214280362575968270489082213495227902066688.000000,0.002000,0.000000
39.000000,0.002000,-0.156799,0.786539,-0.371033,-0.598898,1.380704,1.676709,1.932046,-10.857045,6.091399,4414220745798847364363482177427319807605419627213005369665625610308212496824506130869167645316834595279285836761610691281684065943817905951638619988035158082864034264964665028920460362074042093828999063263724437504.000000,0.002000,0.000000
40.000000,0.002000,0.123067,-1.039905,-0.928845,1.029570,-0.998650,0.212407,-0.594380,4.782486,3.927917,584343201106187657170679015496444613779560830682264714551297475088705188935455373768508830746135557604963590828517090131968.000000,0.002000,0.000000
41.000000,0.002000,-0.654980,0.661469,0.799522,0.169115,0.186566,-0.738038,4.781612,-4.159168,-4.527895,3408128271894155802107315363706910277086929500894305519461100754163834489040677485181168576059266910168427901681406662561391687269228552459829470363390557989091905430363140160985005490700288.000000,0.002000,0.000000
42.000000,0.002000,0.179186,-1.136296,2.065970,-1.000515,1.028996,-0.600618,-0.227771,1.388084,-2.432000,0.000000,0.002000,0.000000
43.000000,0.002000,-0.752364,-0.999094,0.278105,-0.837902,2.992656,1.544616,3.814887,5.373331,-1.513627,14394195.389065,0.002000,0.000000
44.000000,0.002000,-0.011599,0.747474,-0.321854,-1.833342,1.860334,0.965404,0.672521,-13.223245,6.710013,395185060096031598381020538035466249633578002834892854919168.000000,0.002000,0.000000
45.000000,0.002000,0.502142,0.061671,-0.055386,-1.255407,0.422957,-2.692367,-17.892188,3.803726,0.246776,115617831278874079938997557237565889543852031194408988975346262011032148631346524818648347654558216200668805702122050210746114746663228104453789045561424676665359935015847123728218769132169501916248506629125566117175541063740829420407725414752620119881713452531225185982316395102208.000000,0.002000,0.000000
46.000000,0.002000,-0.411046,0.052412,-0.672969,-0.677011,-1.143500,1.174448,8.166885,0.601867,12.562865,172896983543870672775955399049262769617059389362859477077956846003045630831567252736111887243711527867495274982432002854417952168562779683303015559916010854856832454077025071636829700096.000000,0.002000,0.000000
47.000000,0.002000,-1.141775,-0.282128,0.354527,2.189049,-0.062695,-1.676325,7.260598,2.288317,-2.316132,108537988590928049595407840887985857167894077898557394259759618477364442003816529837519202697609216.000000,0.002000,0.000000
48.000000,0.002000,-0.365258,-0.110442,-0.403454,-1.078034,-2.250831,-1.384410,10.640942,9.254145,11.088500,154211824572914960214833984024937059550671863743741419247115866861152943849842147328.000000,0.002000,0.000000
49.000000,0.002000,1.459747,-0.132905,1.172922,-2.758090,-0.008444,-1.532890,-3.187768,0.479387,-2.687077,121007759597695478210422968618908461775168334139076046085275404356021383801481534539088246438147819311185487811741634002944.000000,0.002000,0.000000
50.000000,0.002000,0.029128,0.580743,0.364169,-1.334042,2.786179,1.634330,0.600944,-13.746973,-11.399175,0.000000,0.002000,0.000000
51.000000,0.002000,0.458854,-0.600449,0.503357,-0.246439,1.636140,-0.484043,-4.865687,7.629593,-6.137310,39903635209954701274498329160517959253906380267097013691837522224301998878024493931668749238437904043648632985960236373204008960.000000,0.002000,0.000000
52.000000,0.002000,-0.254790,0.176576,0.281069,-2.231982,0.976662,-3.640896,10.455110,-3.065260,-14.254332,19734341621410354751589630934277409933287282826879115263800812830701354429478141754388989476127695159564273128982461193005241568687134651291862064491419433697280.000000,0.002000,0.000000
53.000000,0.002000,-0.395886,-0.004149,0.118627,-3.953446,-0.545337,2.391113,15.186292,6.140732,-6.070396,121956863447915840866914820183808358219776.000000,0.002000,0.000000
54.000000,0.002000,-0.803178,-0.333928,-0.283885,-1.329387,-0.081098,-3.551051,9.653607,5.465057,3.416797,0.000000,0.002000,0.000000
55.000000,0.002000,0.083231,0.381009,0.047152,0.739937,2.565623,2.049949,-6.587365,-11.305084,-3.685836,0.000000,0.002000,0.000000
56.000000,0.002000,-0.142337,0.887250,0.481871,-0.206704,0.519835,1.622907,1.759946,-9.477181,-6.033851,630823534704080139921259192871778691021460505761238716971330146304156943065212679084581251331391488.000000,0.002000,0.000000
57.000000,0.002000,-0.797014,-0.803857,-1.230594,-2.887261,0.247821,-1.027560,3.047550,1.892417,2.944180,0.000000,0.002000,0.000000
58.000000,0.002000,-0.804547,-0.186197,-3.679288,0.169015,0.241064,0.549615,0.276839,0.088543,1.295385,200659805835785535937658526612591932196776004332111726200892231990901059085737237345147780920316384577382757453919309266944.000000,0.002000,0.000000
59.000000,0.002000,-0.146952,0.277475,-0.378248,-3.012491,1.792517,1.921623,6.939879,-7.407482,12.403791,588803659038487424704651741395464454961576952161796253286400.000000,0.002000,0.000000
60.000000,0.002000,0.171575,0.061988,0.149803,-0.608873,0.471569,-1.747524,-6.757547,-0.027998,-8.989959,25108042313621409853263106799339617386496.000000,0.002000,0.000000
61.000000,0.002000,0.174599,-0.348275,-0.208974,-2.994533,-1.747506,0.893671,-6.039094,13.833578,7.537632,12546196183614660.000000,0.002000,0.000000
62.000000,0.002000,4.070032,-0.685519,2.245912,-0.431944,0.022247,0.532386,-0.750013,0.133808,-0.416768,117132552572164599281920605387128963464157726342471238863649576201143459070732183318527480677110102586321937629184.000000,0.002000,0.000000
63.000000,0.002000,0.231691,-0.087942,-0.190541,-0.930717,0.091040,0.390731,-10.862534,9.245748,8.478231,12546196183614692.000000,0.002000,0.000000
64.000000,0.002000,-0.417128,0.079700,-0.254358,1.961857,-3.299661,0.988106,15.013567,-0.943662,9.357803,12581447597470962.000000,0.002000,0.000000
65.000000,0.002000,0.434340,0.223132,0.342680,1.484354,3.752523,-0.356762,-12.543945,-3.957365,-10.772603,12194402.732831,0.002000,0.000000
66.000000,0.002000,-0.733831,0.293489,-0.162302,2.069281,-2.007230,-1.555201,12.828500,-4.525590,2.705539,1499987411091247688173421709338568089458333909145642179517498245202832857827958328860066250122001138303088082674257471333402156615106947078079152055212257126404463781788729516356267365183059914354023393831481243967459409852867058812334756253865575609683625204886011904.000000,0.002000,0.000000
67.000000,0.002000,0.794144,-1.594464,0.638056,-0.622956,1.850680,-0.743332,-1.609444,3.414415,-1.348616,225860349906162827640438784.000000,0.002000,0.000000
68.000000,0.002000,-0.484615,1.019054,-0.993470,0.425272,0.242764,2.427982,2.170636,-4.195831,4.357441,186134955242697465489041345156632744589462614416929690602792670794349821332851738308398386698757431394944403111936.000000,0.002000,0.000000
69.000000,0.002000,-0.975299,2.558240,0.154688,1.031930,1.068920,1.040802,0.850393,-2.157065,-0.198691,117134167201803750616571963303992699820527162450707257540589892329662896419574694060067799976525787879468385173504.000000,0.002000,0.000000
70.000000,0.002000,0.693976,-0.524270,0.250995,2.897809,-0.763893,-1.043093,-8.430055,6.654241,-3.096350,12546196183614692.000000,0.002000,0.000000
71.000000,0.002000,-0.313908,-0.274822,-0.174562,-1.027630,1.832775,-3.830492,14.630185,9.043986,3.475587,12581447597470962.000000,0.002000,0.000000
72.000000,0.002000,-0.570602,-0.820767,0.046588,0.946090,1.043693,1.458375,4.961534,8.357866,-0.681152,12194402.732831,0.002000,0.000000
73.000000,0.002000,0.793552,-0.282920,2.577674,0.372888,-0.614743,-0.642179,-0.604788,0.248684,-2.146270,1499987411091247688173421709338568089458333909145642179517498245202832857827958328860066250122001138303088082674257471333402156615106947078079152055212257126404463781788729516356267365183059914354023393831481243967459409852867058812334756253865575609683625204886011904.000000,0.002000,0.000000
74.000000,0.002000,0.150556,0.155299,-0.076631,2.780761,0.548421,1.301490,-7.058962,-2.226068,1.263289,225860349906162827640438784.000000,0.002000,0.000000
75.000000,0.002000,2.394262,-0.467193,0.510520,-1.324596,-0.041172,1.062357,-2.477531,0.551482,-0.540681,186134955242697465489041345156632744589462614416929690602792670794349821332851738308398386698757431394944403111936.000000,0.002000,0.000000
76.000000,0.002000,0.977165,-0.025707,-0.107283,1.587820,-0.195898,-0.880511,-10.800912,1.244119,0.418901,117134167201803750616571963303992699820527162450707257540589892329662896419574694060067799976525787879468385173504.000000,0.002000,0.000000
77.000000,0.002000,-0.065622,0.386337,0.775927,0.858053,0.956967,0.854726,0.855922,-5.060411,-11.637089,34307578604778992058093187102668852629460228101809765710442548560350372780311507544236616123449506863560160859731334901349112174210816321753901924535210288777043403231848436276341801541625255162562903438307419488256.000000,0.002000,0.000000
78.000000,0.002000,-0.304640,-0.205680,-0.175839,-2.401074,-1.279865,2.702589,12.019375,10.630048,5.938368,252743253042454242008718048085147877522792994354779413826122444663256387631456087751566211600610120619608124410934992697956041256348152756535486129268620237197442835287884339085312.000000,0.002000,0.000000
79.000000,0.002000,-0.337634,-0.447708,-0.442492,3.397960,0.203772,-1.269817,4.508827,10.217215,6.398860,0.000000,0.002000,0.000000
80.000000,0.002000,1.915337,2.217850,-1.650060,-1.622728,-0.001652,0.681939,-0.941749,-1.080714,0.829314,0.000000,0.002000,0.000000
81.000000,0.002000,-0.078156,0.031468,0.086639,-0.470243,2.443126,-0.860514,5.707394,3.296312,-2.228966,12194194.795697,0.002000,0.000000
82.000000,0.002000,-0.587463,-0.530197,-0.734424,-1.793876,-1.178975,1.567903,4.868968,5.471461,6.002289,0.000000,0.002000,0.000000
83.000000,0.002000,0.726129,0.246627,0.322819,-0.163856,-1.508117,3.593289,-12.342028,-1.234212,-5.902633,69104796790514968319199128956852213508687187743489461688441879614947345448962790113787727454073660286409864305804497497768303582476508883565680975985411106951092753868909130611343111462959485593940303997007991065238852065226037133312.000000,0.002000,0.000000
84.000000,0.002000,-0.273372,0.260994,-0.467290,-3.706567,0.182418,-3.997838,8.641870,-5.814552,14.077352,2389303465923263666738081079110405819182078765541385381882861635903245333689821982895018179453787246160204481719849392237765812545506748238846598203811855295008460698470128136555261297286717538617780788960536660755477735105105181095370839556096.000000,0.002000,0.000000
85.000000,0.002000,0.182935,0.309790,-0.656294,3.967059,-1.336329,-2.324189,-4.988280,-6.143993,14.084591,26820538731297062529269760.000000,0.002000,0.000000
86.000000,0.002000,-0.462167,0.640577,0.840918,1.084523,-1.855712,0.656686,3.544116,-4.824489,-7.067011,280123310660179753682894440595361535528928549016832880867682997308247256189414680580067132954796107239204988309604807472046425770065878639419787247792049498183190505154399675875328.000000,0.002000,0.000000
87.000000,0.002000,0.154528,-0.539990,-0.072442,2.383841,-3.194105,1.773851,-4.638343,14.592411,1.425285,290631370528171845659369561525106680712934396926321878077654396240952360757150500939479939594017162733940861228009081170504191773519372739407311438123255043341116871185227137771952006693420211439933073886153700118045753778617001705472.000000,0.002000,0.000000
88.000000,0.002000,0.271518,0.585972,0.193886,0.880167,-2.504080,-0.136295,-7.245743,-14.070567,-4.771392,44857828296186907278621855854222001598985166881942202579280742075933482620551168.000000,0.002000,0.000000
89.000000,0.002000,-0.888658,-2.232949,-0.547785,-1.242950,-0.786199,0.067229,0.825617,2.342013,0.432098,7534085569817431237303703420948379966651365072686459252968484243400193736704000.000000,0.002000,0.000000
90.000000,0.002000,0.405564,0.029630,0.044564,0.776172,1.937546,-1.642963,-20.656886,1.252460,-0.144638,380489423569472674654845747387782601600297359674947284113471042173817174914305857048233403705797051229372377527816697496188901178710219511284773457063963611254750378017549504055486663203395278297395570876515375162368194931834898735474737682018073134116110336.000000,0.002000,0.000000
91.000000,0.002000,0.588193,1.709945,0.312225,-0.650769,2.615248,-2.670443,-1.613564,-4.336570,-0.918910,318385976142228170517852204759685560662529923584078043994062595631378232448814475193392075544881255008144612104274926428889955340242231812121471911725440084987451614095579755111419272758036529152.000000,0.002000,0.000000
92.000000,0.002000,-0.203286,0.112163,0.006493,-4.049472,-2.323334,-1.675479,8.217121,-0.033604,-4.833075,0.000000,0.002000,0.000000
93.000000,0.002000,-1.991662,1.316470,1.810330,0.489718,-0.528072,1.157781,1.351195,-0.909062,-1.267986,104838532332544880.000000,0.002000,0.000000
94.000000,0.002000,2.717600,-0.370927,-1.004471,0.188601,-0.419223,-0.867300,-1.877610,0.309165,0.703680,17133109259227120153198817364921740842496243005949587875341940430181078388036208059717319375692117535292914497322880176808460758957376009522408614531513380649129145144493396149067673274324357782224133269836615647232.000000,0.002000,0.000000
95.000000,0.002000,0.511296,0.204765,-0.138203,-4.059897,-1.019728,1.155789,-13.892795,-5.161374,5.940129,0.000000,0.002000,0.000000
96.000000,0.002000,-0.823879,-0.002491,-0.315456,0.818693,-0.629300,1.155872,12.016393,1.538254,4.219656,7861763379374060497284735512229220226744626622091935739072502232759592932116430054033912089774469454917086316437050012206833589004621763414423111077824197887831860788051764515555565940031933289724050146460727169021403852218307974763165247501918977761154349863164294471088078848.000000,0.002000,0.000000
97.000000,0.002000,-0.642296,0.140970,-0.117684,2.136171,-2.108512,0.874494,18.312784,-1.773693,3.826193,16559960090018647336026112.000000,0.002000,0.000000
98.000000,0.002000,0.920801,0.707124,-2.346363,-0.494134,-0.822933,2.242156,-0.453456,-0.444561,2.688557,503006200009105057421327115737445352687135219880211501432730393130434391099095026546763233055225726409637888.000000,0.002000,0.000000
99.000000,0.002000,-0.036387,-0.304578,0.128250,-0.069091,0.270501,-1.587606,2.556993,15.274225,-6.191911,256778169802667310142337176442844914892577315290690594012871479278658009702128039461234627043624257730054870083850439592669233481686615859581172489081089594307006319323167139601066229760.000000,0.002000,0.000000
100.000000,0.002000,0.396778,-0.219000,0.411221,0.550204,-0.095948,1.782266,-11.699911,9.830809,-10.408779,1243879603249760455813480054784.000000,0.002000,0.000000
101.000000,0.002000,0.095081,-0.336987,0.333998,-1.707913,-1.220150,3.969805,-2.168667,12.064012,-10.200685,702704521698783178167787890094910764321068380316949658811708703588526877904165141058979246895958451575258627571030164474074252660633378068275884729929621244117422720290289304123190385518965555421036784974086671408567746171303843162190421709594610645168291840.000000,0.002000,0.000000
102.000000,0.002000,0.325214,0.133044,-0.731000,-2.137036,1.979698,-1.010147,-8.207009,-1.537302,13.013117,11063933215023261097563758441105017996506484015562866084256880963778564613876086352445168503448748062308096892694826238653497344.000000,0.002000,0.000000
103.000000,0.002000,-3.061394,0.582297,-0.239881,0.529783,-0.433248,0.334203,1.797666,-0.330570,0.125863,34186328630605203195619053266884053267053365253631884436597545273592740067054728287918563298173584016956855418880.000000,0.002000,0.000000
104.000000,0.002000,-0.162140,-0.263112,0.486639,-0.024281,1.859897,0.823953,5.414398,8.070557,-10.469767,3341896717640102753732962729515818432401906366175622750785572678266734881648394033524240611046891198773553889726693376.000000,0.002000,0.000000
105.000000,0.002000,-0.242406,-0.457009,0.780514,3.098691,1.941642,1.755130,2.767109,5.770983,-9.013888,492595914930079579409304823815720596126871362888353419236737544093696.000000,0.002000,0.000000
106.000000,0.002000,0.244058,0.201563,-0.089781,0.638365,-0.486822,2.922727,-10.409944,-5.416768,-0.657763,0.000000,0.002000,0.000000
107.000000,0.002000,-0.022666,0.459767,-0.457041,-0.895763,-1.568290,0.629586,3.511821,-11.715056,11.847471,71534620934712079515735708975588721403105320160974421251392156355483323436050218253396305966862459187247543764650083864826347520.000000,0.002000,0.000000
108.000000,0.002000,-0.519993,-0.031439,0.548636,-1.095887,0.088846,1.022465,8.532303,1.736631,-9.749523,4325960350080446234624.000000,0.002000,0.000000
109.000000,0.002000,0.553669,0.224538,-0.092704,1.531301,-1.333356,2.666239,-17.034559,-4.638292,1.745377,0.000000,0.002000,0.000000
110.000000,0.002000,-1.056954,1.148821,1.473829,0.840505,-1.357740,-2.388571,1.505126,-1.696904,-2.260649,2322033748493927843285742169129884031439140008579011477169219952221665484916757069595144364388613273439308807961313280.000000,0.002000,0.000000
111.000000,0.002000,-0.349289,0.369851,0.083764,-0.181718,-3.192312,1.346523,13.581715,-12.503444,-3.918526,29319957311700516774994739358158782434765133142160948202682880198937839545852637773491740064668252747997634403214487040333633385097921995632785543812520092770724718936923033869815377274587119551229026628401066754705457152000.000000,0.002000,0.000000
112.000000,0.002000,-1.565421,-3.502651,1.232240,-0.794470,-0.572233,0.070871,0.422280,0.983443,-0.350734,34186328625578892486119548181035713569050246677841842673586853668075239425358225006879494304043750644309529985024.000000,0.002000,0.000000
113.000000,0.002000,-0.531709,1.451046,0.653613,-3.638338,1.260330,-1.148613,1.757540,-4.592744,-2.253373,0.000000,0.002000,0.000000
114.000000,0.002000,-0.197613,-0.395969,-0.252408,3.506542,0.921869,-2.626906,6.190005,14.552501,7.763862,0.000000,0.002000,0.000000
115.000000,0.002000,-0.298299,0.224154,0.083495,3.109819,-1.733643,-1.136421,16.570314,-4.149970,-7.770803,5232992292937152513624819499029346280536989939997172700198964928970752.000000,0.002000,0.000000
116.000000,0.002000,0.073524,-0.063602,-0.001959,-2.407012,0.879301,0.664060,-3.584276,9.094393,0.000237,24629281652272347487351243568330164195701340870940701892797229767689974043039554201438078093846081916768557316886296448699727872.000000,0.002000,0.000000
117.000000,0.002000,0.753013,0.113522,-0.045795,-1.910259,-0.552762,1.645218,-15.020760,-0.032962,-0.126137,136077884762798193723113007033748476203960873025002644361818579981443082125557744230065405015517889411338368824594378289438209481604125858636639654067928909491312653903085536805392539439068401587392170663995855418313244028677966560159995609007259648.000000,0.002000,0.000000
118.000000,0.002000,-0.530551,-0.191195,-0.595797,-2.365641,1.079060,0.458876,8.496311,4.087062,9.314002,0.000000,0.002000,0.000000
119.000000,0.002000,-0.625617,-0.907834,0.712846,1.785835,1.985222,-0.021177,2.697576,4.918200,-3.522431,0.000000,0.002000,0.000000
120.000000,0.002000,0.139571,0.411185,0.080744,1.416917,-1.934579,1.190276,-6.779829,-14.215377,-3.550424,7918698267428114211598539661175112084121190400.000000,0.002000,0.000000
121.000000,0.002000,0.354487,0.574796,-0.126613,-2.257820,-0.630022,-1.294565,-9.768275,-12.121374,2.590961,1696728590470614515238010203458589180867687493865769656668787208233683049504549961296712596281977726474537808703970049955628984314057432104547749067369354590517156708172171876872417581170423608946561808137907862381877774320140221804265294730266019865857308532913733632.000000,0.002000,0.000000
122.000000,0.002000,-0.128138,-0.069798,-0.473484,-1.672376,-1.248289,2.784309,3.818761,6.851854,14.627467,175077300586513551511308401350606589655529601519167067498623849182785512898226323102954346625745653321982441160704.000000,0.002000,0.000000
123.000000,0.002000,0.140960,-0.177443,0.159981,-0.364570,5.772038,-0.775211,-6.268777,16.053083,-10.815010,379319000494532393865494964390816284744620136575363093928382036238308064347761227363354844296400533417408296285723758551188878700004350386597115971027581552286618391549704185336500846592.000000,0.002000,0.000000
124.000000,0.002000,0.845367,0.021328,0.260593,0.027231,0.603545,0.996840,-10.993211,0.655103,-3.915060,7555944090887188706878744697103550310436510661842766078844459660828182881239040.000000,0.002000,0.000000
125.000000,0.002000,1.392031,0.061144,-0.810238,0.436640,0.307706,0.691092,-4.881762,-0.048814,2.595815,0.000000,0.002000,0.000000
126.000000,0.002000,-0.120498,-0.510860,-0.573295,0.969074,4.748728,-1.351380,2.100471,10.081114,9.411122,135331365987453865438425412799090725619692391971105482790517889432406611900094012578115304743173828093041844821637967482922646544892796714493725262518214830561642294702099121598515248826327731073283509304103173976993820573696.000000,0.002000,0.000000
127.000000,0.002000,-1.196347,1.418565,-0.635261,-1.454376,0.302278,1.326771,2.632121,-2.928136,1.392247,45967915214694005884643439031369373864808009725167796212875602436471154075597705771728869836473099739989067295461919571263378253635692810977051645729225084160714054227036097342918803041594203206953631861728620865269833502506236640189788389464080384.000000,0.002000,0.000000
128.000000,0.002000,-1.406267,-2.927279,0.326103,0.439592,1.378158,0.013448,0.689437,1.487557,-0.169614,464522776518191088168763908172533615063807504534420669706283062280494294705178875959928264794832896.000000,0.002000,0.000000
129.000000,0.002000,-1.692275,0.428596,0.489704,-0.020500,-0.751981,-0.456244,4.250988,-0.978445,-1.279405,2500052710936555186233754790412810347373905389920259188198708021286628024809142833900973522067620354809206932372069801621590541033883652411461683546193047646415829308990221342920324451514275685584622505898045060319348560952760636664649958411679314695700299904437977088.000000,0.002000,0.000000
130.000000,0.002000,1.387846,-0.025968,0.751588,-0.125972,1.508883,0.307538,-4.624708,0.442901,-2.439169,666911773372881388139009775027499653812156511878099131051057303654648056597412258955736699748600416672366650547721053317261232169025699387266436757125479414100122304969442412340517563697505194702735232636804751240737014991389709284414072063759700977622985744760806660028497920.000000,0.002000,0.000000
131.000000,0.002000,-0.233288,0.594389,-0.019513,-0.848402,-1.696466,2.418012,6.718245,-14.062254,-1.730391,10804487933655918384184042233002902175625009413540472423975491862077227475717326718072086498259533556088982764446140299429112740027530685115275932248594292178621811320497558267977193582755840.000000,0.002000,0.000000
132.000000,0.002000,-0.009517,1.112382,-0.358793,-1.546782,-0.694546,-1.361471,0.152905,-9.614884,3.060978,0.000000,0.002000,0.000000
133.000000,0.002000,-1.863981,-0.513092,-1.749791,0.244280,-1.286746,-1.095527,1.835345,0.456261,1.586453,1405217356348420439410035137647754961162850645376316281600149542631760964673004515051824291655485216020376783780491415904134811985890641978843573129127300208895697480701070733733067336187904.000000,0.002000,0.000000
134.000000,0.002000,0.771252,-0.502555,1.753245,-1.562369,1.234943,-0.748732,-1.443507,1.153243,-3.259515,60105279647529137130873767556893025302130132378489599374836294792722536477821720767853115705963427608900119494109173941428693293108177905202553285142615427866612543309308621404809019265002613622715889922564529212817183139830880769748483234229911552.000000,0.002000,0.000000
135.000000,0.002000,1.102020,2.529433,-1.825974,-0.388499,-0.092054,1.065399,-0.532241,-1.079660,0.956379,1006533524274.039795,0.002000,0.000000
136.000000,0.002000,-0.136563,-0.110657,0.466181,0.842264,-0.008661,2.647267,5.068529,6.220001,-14.476943,0.000000,0.002000,0.000000
137.000000,0.002000,-0.389209,-0.352653,-0.087895,-1.114645,-0.828035,-3.175223,10.976364,14.121585,0.399353,6807465068359219.000000,0.002000,0.000000
138.000000,0.002000,-1.421270,0.814652,0.140674,-2.154496,-0.474677,-0.065613,4.814361,-2.484041,-0.467527,3592838.627755,0.002000,0.000000
139.000000,0.002000,-0.911718,1.087038,-0.301355,-0.707260,1.751810,-0.067534,4.553070,-5.294462,0.724291,5490814580484073247313637075938369076985050578226222886103284216909049837317819202548453199275175241526297537831651907138302970120529897956453344936999290318890194267803746304.000000,0.002000,0.000000
140.000000,0.002000,-0.761282,-0.982255,0.560629,0.799527,2.198780,2.330136,3.509932,4.951588,-2.687035,1327411.216632,0.002000,0.000000
141.000000,0.002000,-0.916675,-3.025322,3.128109,0.384351,-0.683466,-0.440712,0.189112,0.671405,-0.706414,0.000000,0.002000,0.000000
142.000000,0.002000,-0.261366,-0.749330,0.110519,-0.107866,1.286346,0.023317,3.547548,11.833164,-1.993967,299864410056674967552.000000,0.002000,0.000000
143.000000,0.002000,-1.477193,-2.741992,-0.852558,-1.375282,-1.966701,-0.613332,0.749252,1.464971,0.439329,0.000000,0.002000,0.000000
144.000000,0.002000,0.196690,-0.158710,-0.522626,0.537000,1.116225,-0.515535,-6.346566,8.165294,13.973614,55545454187916670634901308770800734568448.000000,0.002000,0.000000
145.000000,0.002000,0.193255,0.034093,0.686503,-3.272359,-0.286399,-0.251349,-3.939747,1.288272,-14.115435,76245832086952028975352205438908262655844598439177076698925221403583019370110299995800283650246158308359539787279284026029257644216423478069293982336690665264069970704346382336.000000,0.002000,0.000000
146.000000,0.002000,0.038319,0.221689,-0.518413,-0.766766,1.414656,2.211353,-0.883266,-4.723366,17.273620,0.000000,0.002000,0.000000
147.000000,0.002000,-0.349054,0.108334,0.112259,0.774047,-2.888837,-1.104136,13.954793,0.962666,5.497543,311627103882949242497196783403860956327972686089426307841605547789373942797326254502227304694012428564703283245248595741018550993231241214600274210698916575535046224357415128464664243111546617555118399771144668746006190095797031446778653791805482744893082301081059328.000000,0.002000,0.000000
148.000000,0.002000,2.244568,0.389408,-1.192542,-1.133385,0.288540,-0.003129,-2.345627,-0.410993,1.305035,12726842.789220,0.002000,0.000000
149.000000,0.002000,-0.375602,0.622395,-0.389223,-0.202568,-1.006786,1.351468,4.825296,-10.303395,8.082469,0.000000,0.002000,0.000000
150.000000,0.002000,0.451573,-0.154355,0.623753,2.177594,1.662540,-0.010171,-8.225333,4.623290,-9.611913,3449444.587500,0.002000,0.000000
151.000000,0.002000,-0.753184,-0.992279,-0.810145,-0.172346,1.436136,0.894125,2.877761,4.182409,2.942297,66226909077055224488355984305518192395712247608664890471164245971204097640415738471184033061034054626974432547622489754836140032.000000,0.002000,0.000000
152.000000,0.002000,-0.204379,0.284249,-0.711948,1.463540,-3.464082,-1.610870,4.269209,-4.064431,14.139010,0.000000,0.002000,0.000000
153.000000,0.002000,0.770267,1.791599,0.134475,0.884310,-1.131872,0.615667,-1.738174,-3.812511,-0.312434,1253722083765293471653579214306273654330183391179073050056656989474507198282103599370570899640721873118565999106740115190299607594757675773026870787884285485465020233054177890140160.000000,0.002000,0.000000
154.000000,0.002000,0.073333,0.055453,-0.562252,0.073845,1.241164,-2.175874,-2.538183,0.524576,16.624097,16514863120779515619855616415380438777856.000000,0.002000,0.000000
155.000000,0.002000,0.017632,0.188733,0.293120,0.420089,-0.251699,-1.191897,-1.143330,-6.266398,-12.092800,92224305596850510393794547749986248637124420810705490187290182990040505648523926802208530759138314930004663485321416245434975576988288466758894966798632955283529291823365236660997699976439917289852560926072578221314252944944222647743277388171051008.000000,0.002000,0.000000
156.000000,0.002000,-4.656926,1.145444,-0.847106,-0.231919,-0.167145,-0.968291,0.803518,-0.189147,0.143017,283993986182137529410390315701837177851675154029368985789023581158521916097821364321133994780066107869888757100493192136484946875947706376777362441594173141286912.000000,0.002000,0.000000
157.000000,0.002000,0.070791,-0.285056,0.211762,0.957492,6.032523,-0.759027,-4.036911,13.591640,-10.343379,1536340890893901270090583638016.000000,0.002000,0.000000
158.000000,0.002000,-0.112085,-0.146329,0.734505,1.192115,0.209266,1.202956,1.833681,3.683744,-12.927698,79652325514682185091421241079858757666229546923900985785644216904941498165391544446265362310811457622452281652976299963079468964916695160433493630396986759226420754585478897939785499759893020672.000000,0.002000,0.000000
159.000000,0.002000,-1.250146,-0.540435,-0.544330,-0.658725,-0.229910,2.100720,5.327948,2.616785,2.109712,1539603950483731477711601080470916684931137536.000000,0.002000,0.000000
160.000000,0.002000,1.463863,-0.077864,0.855110,-2.299336,1.211119,-0.738641,-4.143260,0.645148,-2.421734,0.000000,0.002000,0.000000
161.000000,0.002000,0.430134,0.433805,-0.291836,1.961224,-1.197164,-2.311409,-11.299241,-8.661439,7.045860,30841142439818085438949006257573499573496430498804991330865520280604306806953363668601387651913683940576165121297980944060136298629536466845615045108836226758454428976799606612224134468028960946634122655831558793909198573045995788970182674011151687741639979310799604614941233905664.000000,0.002000,0.000000
162.000000,0.002000,0.450481,-1.744693,3.063230,-0.388935,-1.776090,0.680847,-0.180503,0.725189,-1.209979,24284440980627028416807078297545362081219790768432059649569042516468202821648384.000000,0.002000,0.000000
163.000000,0.002000,0.660293,2.077860,1.584321,-1.160883,-0.800403,-0.326130,-0.670758,-1.816410,-1.442790,15050621581672400050113285481288314269569962353184386742918556826730982740893950438715125515628118265515071648311185648844940434913262750274143677499111521984361565776732720694129128065816438162453621774515278995118942198541635478200850752831750144.000000,0.002000,0.000000
164.000000,0.002000,-0.537835,0.259593,0.335431,0.082698,2.436893,-0.360700,12.942506,-4.590805,-9.624292,615150647042881355415705112042515685006475677138944.000000,0.002000,0.000000
165.000000,0.002000,-0.531471,0.750757,-2.205885,-0.821415,-0.538307,-2.850884,0.650966,-0.792931,2.732194,0.000000,0.002000,0.000000
166.000000,0.002000,0.435270,-0.108534,0.624233,-2.108197,-2.490338,-3.012197,-7.865664,1.682626,-9.612958,0.000000,0.002000,0.000000
167.000000,0.002000,0.386427,0.227674,0.586682,-3.793400,-0.821742,0.489051,-10.311741,-3.326354,-9.076113,0.000000,0.002000,0.000000
168.000000,0.002000,0.152978,0.203795,-0.125396,2.248015,2.260040,-1.828176,-10.185477,-16.082524,3.189600,890784.601894,0.002000,0.000000
169.000000,0.002000,-0.739667,-1.091746,0.201366,-1.107578,-1.127929,-0.044855,2.733586,6.086678,0.261595,92585635213878526304928621434620286280072658784074887067019000012537488696500751542044690957036194150864256611130090283879808664302382215856561352123105369976903587586774138880.000000,0.002000,0.000000
170.000000,0.002000,-3.897237,1.103924,-0.160909,-1.337049,0.025489,0.243437,1.132556,-0.317180,0.028960,1815769179511.274658,0.002000,0.000000
171.000000,0.002000,-1.219135,0.763972,-0.950635,-0.450514,1.624905,-1.787162,3.615852,-1.967842,2.904487,111947435226705465848907240240082880775734672924117967504641172224191687742619541856395924275467536442512645898600956653362581824975807553886767377008006549358201637100781986004462556340417112232165376.000000,0.002000,0.000000
172.000000,0.002000,3.377963,2.117271,-0.745408,-0.529694,-0.930414,0.534130,-1.018530,-0.597255,0.150025,18605444347462514685563744142695178226265898797267958756630765802207947768235355760356001071798027880568550996180774180936470044638904701346302449625740071458901590016.000000,0.002000,0.000000
173.000000,0.002000,-0.057781,0.436818,-0.020785,-1.235392,-4.032061,0.233531,-0.237586,-14.119516,-7.083390,82301828138851179421957996541060818936164154735165374314691388131650752779144247488216906376331182275891607004234552134095095517962854945653419651939829818692322144670378119263916802255968058700605182488325082567997179113996384619945372981355803732267584201882833734598656.000000,0.002000,0.000000
174.000000,0.002000,1.333778,2.683832,-0.358738,-0.096225,1.473405,0.435278,-0.921553,-1.771165,0.253292,0.000000,0.002000,0.000000
175.000000,0.002000,0.704306,-0.243035,-0.502202,-2.636601,-3.070939,-0.365264,-9.675437,4.727814,6.361905,130238834640365065813542804502884175517088571961605983874986481450857242640978522106637759710546159520823188392868978408237962810037105709150789580580122807204239084879872.000000,0.002000,0.000000
176.000000,0.002000,-1.049517,2.121486,1.659719,0.497079,0.949617,-0.603644,0.775509,-1.543134,-1.277219,1160893602341632999424.000000,0.002000,0.000000
177.000000,0.002000,-1.158918,-5.271612,-4.715828,-0.564132,0.855447,-0.096060,0.060571,0.283254,0.249332,5782997881910040627935252150368936419956151835072341960834036704305394664975835588849841691473626248781935201737646571493306098132343384696290337490191537528158317299442722654912512.000000,0.002000,0.000000
178.000000,0.002000,-0.017358,-0.423624,-0.281547,2.388322,0.960587,0.240295,-0.386248,14.374578,8.092325,1917955157597036762992667805421633884174772546293472777278655489392791532769286024236163142888764640677550406409981335089836999792220457538224700616649323927154919038106809351507490942552705131052731962830905709716274741284664035323398511469288137448784742318080.000000,0.002000,0.000000
179.000000,0.002000,-0.130662,0.494121,-0.888401,-1.492739,-0.988298,0.230086,1.520564,-4.691503,10.347639,94619742401400100234345007754945974008848073012312258991022661590992246594689828099304129794046141977737267353205596615495451741135012893304405902825839087815764283144651732882168937359668867162623351684377267955598700687005489267393637769630038934306990281213169362796544.000000,0.002000,0.000000
180.000000,0.002000,-0.441411,0.036728,-0.199792,-0.216036,-1.850233,0.170827,17.079275,2.942381,5.381043,55459585592414279827539761355936381353830944075375365090115296510269125008903183590837008118427285994594260145985427423013047645738717757050125128988028768737199512690521672266837537882905889136967680.000000,0.002000,0.000000
181.000000,0.002000,-0.103154,-1.544568,-0.073431,-0.492496,0.840599,-0.949241,-0.093892,4.852364,-0.047771,2313617213486609086729899156348582848836901134066680622847091570796965133883416680231281167937828053779694174972132773597903640936931982294510827905828591396316362896459839589850845681508795974780877635484675059832848384.000000,0.002000,0.000000
182.000000,0.002000,-0.662504,-0.771151,-0.511438,-3.901283,-0.566719,0.459058,4.720568,6.371883,3.330378,768984199482473037712361395378821898911578619373448672334644712667320487359895870056805682272959352459131755773393293429668128932704546449977602933183305472550949990957056.000000,0.002000,0.000000
183.000000,0.002000,-0.057159,0.781755,0.982634,-1.324710,4.090175,-1.604789,0.721677,-4.550402,-6.695009,0.000000,0.002000,0.000000
184.000000,0.002000,0.466054,0.025107,-0.302804,1.908207,0.246612,2.528741,-13.314755,3.595823,8.754017,150350059629281161590699178661648431760704719123807451117926287102380531921052922113606058154825094535819577786368.000000,0.002000,0.000000
185.000000,0.002000,-0.773369,-0.472369,1.383551,-0.348628,0.924729,-0.792623,2.103467,1.348929,-4.338724,24924682031011485162793651721959636278894142628435705185154629632.000000,0.002000,0.000000
186.000000,0.002000,-1.865050,0.769012,-2.798285,0.804973,-1.318860,0.132755,0.827579,-0.343442,1.281833,4169895053348165259915712282205883763030996727502535964967254950344104489020430028811221715440625958453153852314548870481154826849224125773236633525289570240425654591501084454639876949266090038637172086513572062033619522304852415991035075067830062809088.000000,0.002000,0.000000
187.000000,0.002000,-1.149860,-1.765744,2.209911,-0.360859,0.472408,0.113213,0.273541,1.203210,-1.717027,0.000000,0.002000,0.000000
188.000000,0.002000,0.075943,0.736196,0.593502,0.871177,-2.285907,1.383162,-1.393154,-8.966863,-8.483590,100712175002512307641207670063421785345957708096644637328498297118913427021889806546712185667690350902722614262814620559477572661092238755548316310003715641151291360018906983710303939456028332946072105512741200163680688846083420413002805142199741894000471827485716743562567165673472.000000,0.002000,0.000000
189.000000,0.002000,0.650916,-2.944826,-0.538584,-0.989068,0.320631,0.406486,-0.369318,1.746245,0.267624,745683165936543989760.000000,0.002000,0.000000
190.000000,0.002000,0.457822,-0.171999,-0.036495,-2.468093,-0.646841,-2.502809,-13.920062,10.251482,1.697499,872951194252441070272628521419073419369039813732192699285504.000000,0.002000,0.000000
191.000000,0.002000,-0.279232,-0.334562,0.778414,-0.726330,0.829302,0.849010,3.666638,4.605331,-9.804179,21366596331168403776680837140026023215104.000000,0.002000,0.000000
192.000000,0.002000,-0.953617,0.310984,-0.495435,-0.699426,1.181023,-2.095358,8.823492,-2.428673,3.870757,10987268493243358227757041273155800410042299578734072416100528033214371717414557265511953398839603451770277437860479945066236037630880793758209187373015808101923535646810439680.000000,0.002000,0.000000
193.000000,0.002000,-0.062179,0.923483,-0.478668,-0.909397,-0.470782,-0.979147,1.294735,-9.039932,8.369120,4347861090483474406337687846912.000000,0.002000,0.000000
194.000000,0.002000,-1.667511,1.062680,1.148473,1.163913,-2.331828,-0.746096,2.307634,-1.352749,-1.573505,372336074645500788736.000000,0.002000,0.000000
195.000000,0.002000,-0.200094,-0.230305,1.136045,1.249156,-0.723901,1.331451,1.891737,2.016723,-6.464006,2200370018233726610006903598835586564200519901987462025209341565317250414428046580805116096887734781926901595255542948559198859302148309928539185616823498803249934132736695806207027875751497916408863028408344885768803980584810274294385557232137361424384.000000,0.002000,0.000000
196.000000,0.002000,0.707344,-0.159428,0.077108,-0.202030,-1.812820,1.375284,-13.141047,5.472371,-1.578100,142030777793435091776814490134255620938541452381409291374148558865254021506650611921685673707159712529331504567817596203825374640232554612539096295445542143252690615876996545636070653951557711272606226126090332087485595389860426578535388082426679738784176845346044627892386148646912.000000,0.002000,0.000000
197.000000,0.002000,-2.303263,-0.450660,5.139188,-0.483668,-0.709507,1.077029,0.248084,0.059363,-0.561195,100490222590183216.000000,0.002000,0.000000
198.000000,0.002000,0.051715,0.458096,-0.131890,0.200666,-0.793472,0.977507,-2.665357,-16.907920,8.538249,4961849258125996450629866747386002429046575672132594737179291406902125761354654029875066865520048812720093243300017910516406373469152636707998233079736544693553386693306374900809639336215838524141079094793054435460587405361413679807987712.000000,0.002000,0.000000
199.000000,0.002000,0.086787,-0.318412,-0.355521,0.736460,-1.077100,-2.824084,-0.441397,11.693221,8.124544,94653791440376771654461301844830695362986490079707274337074903074213294221125175751501583528696830216214647893488717121785297834762499491850168533208668179180410200715544346745716117831882602168803747945309731408625086611916802060154568143959875999062492180713215935643648.000000,0.002000,0.000000
200.000000,0.002000,0.064855,-0.168233,0.514858,-0.408897,1.921682,-1.581922,-2.113776,6.613474,-15.339249,69085888572678108599411294411902511304110300376560984983266789024417913673693589321855161019087792450551290940608309066219415224061740450124314912686718027492279885466230221541048582144.000000,0.002000,0.000000
201.000000,0.002000,2.361256,-1.299481,1.865364,-0.239390,0.070914,-0.233928,-1.165286,0.677005,-0.942248,380721807186007602419971609907126351294607044930345688233525695739187928036580775173270079227740459225322384711691954881532058480729406403390005689451840299806381904245290746964378386432.000000,0.002000,0.000000
202.000000,0.002000,0.543857,-1.585134,-0.655869,-0.660759,0.522399,0.417309,-1.354161,3.840160,1.261732,3116563522748727036723060658898864524588274674345742581917585287038807265462643820460987160254450310568242695736391784957543499127820293311064328586441901283717663213179171532860982244147200.000000,0.002000,0.000000
203.000000,0.002000,0.275324,0.880476,-0.480003,-0.285294,1.993684,1.064221,-2.899599,-9.157469,5.579677,8030852652053159626592737034240.000000,0.002000,0.000000
204.000000,0.002000,0.173988,0.511141,0.300233,-3.389992,2.684837,-0.225323,-3.635584,-13.159284,-8.213642,8347067739403630444526802876040363553283284839161461277857889510735370547210944582772541595581214564701576744586484530085948409509863390926886332994951848678868544159945574983383638050262491749280904325822184154524091784605987900355599333785453065142272.000000,0.002000,0.000000
205.000000,0.002000,-0.576931,-0.227340,0.460149,1.374813,2.531782,0.424870,9.340349,5.117636,-9.112117,2267750304810596029298783180981654625069775389630020646238939279833630022764502965630687755476561559552.000000,0.002000,0.000000
206.000000,0.002000,-0.272818,0.276995,0.116895,-0.489421,0.661965,0.410956,13.209782,-6.736619,-8.075345,85359835517429574317259325151253934615938734494386390931673660581090264418357060249384466373398818939400982415903337971623196672080191528673621810263016622201367951246685044952457088591577159811872740444430184523569667831489361964914982325860970460372518730053930044096512.000000,0.002000,0.000000
207.000000,0.002000,2.848041,-0.715178,0.000546,-1.867024,0.705378,-0.160257,-1.951048,0.543060,0.049209,5537534811321364134133275045718283556238475699495266644784929138879305110706974421007380062189852846912688724321400248781241568608881653413918310170164756970226398354211310263401074588964055944674998789770647240653888550592982333753736900390684268167168.000000,0.002000,0.000000
208.000000,0.002000,-0.244838,0.003888,-0.266652,-4.255607,2.347393,-0.686831,11.479930,3.442650,10.472003,1238943175629131625503910206661185615606314061018979005041059695134609567273909198896283580738678575940163476636720315441126841393900712773513000021525664274252278661313373903518712336939293214547990417717882522441310229765256825300479110003388825068113576393741172736.000000,0.002000,0.000000
209.000000,0.002000,0.091850,-0.015888,0.288664,1.581629,1.749314,-0.115063,-4.672786,8.966537,-19.086755,0.000000,0.002000,0.000000
210.000000,0.002000,0.677377,0.608107,-0.927787,-1.903617,0.784174,-1.376577,-4.716455,-3.277640,6.053471,89337102720194202569308725419849094996299231598461301560707591949936470759005059469541376.000000,0.002000,0.000000
211.000000,0.002000,0.348939,-0.172971,-0.222393,-1.105030,-0.011358,1.951165,-11.796230,7.861844,6.999131,0.000000,0.002000,0.000000
212.000000,0.002000,0.032677,0.135050,0.175182,0.813748,-1.713720,0.872777,-0.123671,-4.164796,-9.763312,14388114369359016920587380526195279724989374393876309190844770845461692773918615602619307087067570621905448447219397768624734208.000000,0.002000,0.000000
213.000000,0.002000,0.433217,0.062471,-0.679249,3.254934,-0.527831,0.322495,-8.152271,0.542070,11.716922,0.000000,0.002000,0.000000
214.000000,0.002000,-0.298209,-0.051972,-0.417206,3.925042,-3.806340,-1.498052,7.228032,3.610851,12.762235,11963409736776626744587988300217790160190761929261460612414499821802842793742239964163230287277246475687470944959778360562890580026953142513447094221019611066511206574456832000.000000,0.002000,0.000000
215.000000,0.002000,1.238356,-0.838750,0.707807,0.679043,-0.694667,-1.642001,-3.533765,2.616450,-2.186434,0.000000,0.002000,0.000000
216.000000,0.002000,-0.001144,0.107595,-0.261822,-0.143597,-5.148835,-1.525928,-1.581002,0.876258,15.177825,7147218506911056920576.000000,0.002000,0.000000
217.000000,0.002000,0.471814,-0.302354,-1.280500,-0.607961,1.553871,0.185791,-2.270714,1.941018,6.013480,3341898084662851919731513610024951455021545030533416417913975049927254510551181678563906299189952424699799215067583400245717356976069745249898164522625584816140164519103507242841895004839928205604751933440.000000,0.002000,0.000000
218.000000,0.002000,0.605988,-2.484246,-2.471532,-1.400784,0.030499,0.230894,-0.234097,1.037122,0.961375,0.000000,0.002000,0.000000
219.000000,0.002000,-0.044524,0.211877,-0.040454,0.053310,2.175087,2.215706,2.261053,-8.151293,-1.551357,279725760308771118106682026277227840192430222257457332046081026916342276036201807872.000000,0.002000,0.000000
220.000000,0.002000,0.900779,0.087300,-1.410923,-0.230674,0.205937,2.623122,-2.833371,-0.072640,4.455504,29301131596829773359245543636014823023365600246340953509875903336020173115591477999897984747557674200598012277351135303808184076768025366154367601129036854912720061950370377571954163319832576.000000,0.002000,0.000000
221.000000,0.002000,1.675793,-0.900866,-1.501936,0.003359,1.391238,0.240185,-1.818862,1.306460,1.474130,0.000000,0.002000,0.000000
222.000000,0.002000,-0.196261,0.012545,0.092458,0.423507,-0.824830,1.361488,13.644875,4.815500,-4.299930,50906089003245714184300761580578527879164146073606225670680945678657365238292194739165751086924233883365794744004508498479934634617876926675201592313491704145769156362765401776489027231882857311405908840381078075107314834250058461025815670324810728722622610312609864116675071180800.000000,0.002000,0.000000
223.000000,0.002000,0.294215,-0.438773,-1.212616,0.632900,-0.522974,-3.747249,-1.751048,2.707817,6.041572,0.000000,0.002000,0.000000
224.000000,0.002000,0.032585,-1.802710,1.692065,-0.340460,0.028007,2.094053,-0.011808,1.901036,-1.791438,4778917083325565328598800086142978159114689501426427785741864099806408449066130848330971666236568846393272294997227451877532693469062530998426863081866897817257037797959663616.000000,0.002000,0.000000
225.000000,0.002000,-0.462131,-0.786693,0.797736,-1.549892,0.247513,-1.099152,2.498598,5.184366,-4.858731,5886566494669954048959482690435802349415616979958502002783737700007872355631104.000000,0.002000,0.000000
226.000000,0.002000,0.124419,0.038797,-0.028481,-2.182509,3.820005,-0.665203,-7.353910,6.241689,5.275751,44164960578527639187031970697468770138591121803670572972604652282799335403302532976196151476172144795894664107450313071068973512325905326221584460847489908083367715506655048651411213973995080806296000918366421757077837225481592804713827665465835520.000000,0.002000,0.000000
227.000000,0.002000,0.413994,-0.518120,-0.508212,-0.262990,0.689017,0.370086,-5.796811,8.604797,6.785832,4301423520636492712445669768030384222483365215667533363470109261360067595573976364316597958056088284872018122921327548594794337809729266821994129582388137863437046718899683328.000000,0.002000,0.000000
228.000000,0.002000,-1.366191,-0.878392,-0.862582,-0.197682,0.307865,-2.906366,3.024815,2.156963,1.944858,0.000000,0.002000,0.000000
229.000000,0.002000,-2.993914,-0.570996,1.190081,-0.020115,-2.192709,1.513927,1.564861,0.316535,-0.635907,179680189993722601631853329348820992.000000,0.002000,0.000000
230.000000,0.002000,3.183063,1.708553,-1.825133,-0.228405,-0.538220,-0.430341,-0.946879,-0.463908,0.534719,0.000000,0.002000,0.000000
231.000000,0.002000,0.276726,0.466052,-0.173505,0.043053,3.649345,-3.004901,-7.578155,-15.151213,5.106759,722941263997696262503121015227285504.000000,0.002000,0.000000
232.000000,0.002000,1.218780,3.132483,0.061038,0.121951,0.477821,0.091159,-0.632665,-1.562313,-0.118888,26969621833534582713350231541679029463231777546282399180104202849217721955131992289830372677863258913025928081275697482743987195745537933540914899177866466465267782586668496541158735872.000000,0.002000,0.000000
233.000000,0.002000,0.170614,0.136459,0.061668,-2.227112,-4.065738,-0.788408,-9.563765,-1.752752,-2.667369,0.000000,0.002000,0.000000
234.000000,0.002000,0.583999,-2.268310,-0.005114,-0.572594,0.114002,1.316070,-0.664498,2.682777,-0.001642,19341657145157438193238331133934796201657069830455739722898538506055957001339545796072389437837901250932586432871854923661604473311608219076762987622870209410706405864798032299875631104.000000,0.002000,0.000000
235.000000,0.002000,-2.009212,0.444270,0.136066,0.751378,0.889892,-0.460183,3.595677,-0.715900,-0.202203,0.000000,0.002000,0.000000
236.000000,0.002000,-1.520060,-1.933032,1.193498,-1.550121,0.036774,-0.524700,1.155133,1.571482,-0.946359,4503126484930348801333194129408.000000,0.002000,0.000000
237.000000,0.002000,-0.512513,0.127434,0.257690,-1.262086,2.792934,1.696803,14.779156,-0.243796,-9.312786,3401551057284709094303711064489346919417012160436504141272809754149076550733452736669968954411783783607656787256465336511740808115441450988898643417083556318423370494372523949826458886602752.000000,0.002000,0.000000
238.000000,0.002000,0.264228,0.607244,-0.090622,0.467396,-2.484849,-0.130632,-5.961532,-14.328665,-0.455126,0.000000,0.002000,0.000000
239.000000,0.002000,-0.405586,-0.104383,0.222191,2.289496,-2.889365,-2.693814,10.119599,4.999431,-8.759555,0.000000,0.002000,0.000000
240.000000,0.002000,-0.081090,0.351440,0.059005,2.326455,2.139998,1.595122,2.737178,-12.406374,-5.539390,105976004731973964705318594315840980152890670224547827541605068355952700084263197471498463140669794405153298295419411630279814160297116870973514089127412407981819011162719703776648867613435619252358819588873404604357793467744042981164977388936757248.000000,0.002000,0.000000
241.000000,0.002000,-0.577516,-0.592828,0.028707,-0.658732,2.002961,-0.932463,7.586641,9.238130,-0.753479,630018415734853628716234136505542997036351370060554890342668913110721618873566077396970785332777614605649223247061046668059119552651525591694142880399593679679316258786385360343070927455939850505346173753841864119878978419723239367084234930281514698451706992006025348219142144.000000,0.002000,0.000000
242.000000,0.002000,-0.541567,0.040522,-1.439575,1.126963,-0.688350,2.942835,2.672043,-0.065822,5.430218,821255586313291059060435439232459530340470879668446153233046691714387121545623377146582083318435712451473053039987373380027625760528586417525071363843543528297725271517936178972121647640797604246136705979296926127374674723602432.000000,0.002000,0.000000
243.000000,0.002000,0.187188,0.050774,-0.239556,-2.357041,-1.213091,3.657966,-9.381642,2.160108,10.512420,87525741966351157272813878748436967148594316533719588313841822743407013283341761023598211038842621632735194173066579706200189826350384246978213474628278195375515288082598728835879090611714430650770090901797184147136920420352.000000,0.002000,0.000000
244.000000,0.002000,-0.344453,-0.264173,-0.312937,1.294271,-1.790158,-1.842013,10.492137,8.786790,9.895104,294316018267646071577542785838874624.000000,0.002000,0.000000
245.000000,0.002000,0.164134,4.798281,-10.011249,-0.803560,0.318407,-0.270873,-0.002761,-0.069827,0.147125,76193788351739033706409683740096847745991345153997920270622120540248856072151923911180552940896141905278537963948865042727739729498786151212178112683345368404185816498176.000000,0.002000,0.000000
246.000000,0.002000,0.208844,-1.798709,0.803078,-0.245643,-2.246404,0.655379,-0.432795,3.337012,-1.458681,0.000000,0.002000,0.000000
247.000000,0.002000,-0.569234,1.119467,1.736563,1.439532,1.697967,1.302917,0.957915,-1.611116,-2.744434,2380190532932580572075689391228091874964842516479909525649370310217206141960429192466532682516475327634994202679963317100524822685436919793099675487048593140266223144053222757634063020017585376425368119881348909955073255203175300028597263898761893950744950275286499328.000000,0.002000,0.000000
248.000000,0.002000,0.287835,-0.285411,-0.103398,-1.508910,2.713693,2.936687,-10.578414,12.406844,2.445159,2672043057019890753070023018246524369390674331653231093517814446775683097590475865495636463082754709204762624.000000,0.002000,0.000000
249.000000,0.002000,-0.040576,0.122690,0.242523,-1.305088,-0.377191,2.189039,4.674772,-2.973984,-15.700694,171846616587006257920989369336780626445171877590424813071795856026182483817794292591173121128489238295847765318025337800730211222562241064522379659521932641959936.000000,0.002000,0.000000
250.000000,0.002000,0.368057,-0.317056,-0.475125,-1.715681,3.308142,0.099557,-7.493991,8.117710,8.883336,0.000000,0.002000,0.000000
251.000000,0.002000,1.454526,1.621679,1.347279,-1.059218,0.462977,-0.792949,-1.526051,-1.592783,-1.460165,231049434820354484364295889212797127056913286128266863950383373694141753478778172829341201176639632331243520.000000,0.002000,0.000000
252.000000,0.002000,-0.234892,-0.652363,0.062012,0.977390,-1.311594,1.317393,4.485147,10.897843,-3.694992,0.000000,0.002000,0.000000
253.000000,0.002000,-0.344138,-0.023166,-0.169676,-2.153945,2.511337,1.490238,14.457102,6.233411,5.289570,82422264423109999433139834765906835719570416557599173169484132946301760376667784098010331876484732829939610884255373070834522625198757967871936884560398131396608.000000,0.002000,0.000000
254.000000,0.002000,1.515640,0.250310,-0.032192,0.508978,-1.382676,1.401506,-5.822912,-0.622056,0.099995,1129909912772485492736874575478250249942838073815178982224396249627851856830434359303529824256.000000,0.002000,0.000000
255.000000,0.002000,-0.190300,-0.267839,-0.605489,1.390193,-0.527421,1.801671,2.738562,7.948821,13.635691,551768356000167793673221120092237292463585224042318021443011499974526625758525764459425238778967314424383053161663944299483780651012151342624331192602916348057415075035399440872675547691465327602537464631895325847305273179821855211520.000000,0.002000,0.000000
256.000000,0.002000,0.780689,0.046906,-0.117967,3.595992,-1.269200,-1.028538,-14.147184,1.581749,1.199562,44318173031241967127065001934203910108745626361314062863627917039521867364684397420969763827281993635556657389720529970097129246283367810027139310113042288948340586390912682884797141418632147123927447473487872.000000,0.002000,0.000000
257.000000,0.002000,-0.062097,-0.457933,-0.549322,-1.373632,0.080770,1.156195,2.582420,11.346664,10.745505,0.000000,0.002000,0.000000
258.000000,0.002000,-0.175103,0.395420,-0.607990,-0.551367,-1.436924,1.142299,4.150410,-8.155135,12.446107,0.000000,0.002000,0.000000
259.000000,0.002000,0.339047,-0.103411,-0.374407,2.260524,4.013536,-1.266355,-9.374470,4.087677,12.465986,0.000000,0.002000,0.000000
260.000000,0.002000,0.373987,-1.027157,1.120498,-0.727931,-1.881549,-0.699177,-1.267418,3.523129,-3.527173,3521204475852277603386765832821275124877493634357846960888543771965453227054406920379091398510395004176384768421269975382810034174524298314813981358526712693221492013986956818205672542644608639732463697920.000000,0.002000,0.000000
261.000000,0.002000,-0.795043,-0.321439,-0.433946,-1.596980,1.986277,0.389717,8.773203,4.787567,4.715719,550398733412380076571477057074828813666074484467123365395809323461828458239477327488483482344861582639449202769018550469293698736464561437883698721578342583913273542495505481084151838295868984598097489331941252084106742368648092905332986869469358061953651873146430712016094680317952.000000,0.002000,0.000000
262.000000,0.002000,-0.931664,-0.127224,0.836534,-2.798597,1.370483,-0.437647,5.467756,0.930857,-5.126865,3185830.838080,0.002000,0.000000
263.000000,0.002000,-0.417424,0.754254,-1.092349,-1.264610,0.081672,-0.849643,2.170551,-3.662836,5.864595,405223701456335933678190594201229021902750492497928300449356491188604589660600900733450533249582203257217752167159942366307955654476102786880478409494377330434450589452431750671419498223199279663139985802211479165233636611297674002432.000000,0.002000,0.000000
264.000000,0.002000,-0.059146,0.133954,-0.136509,-1.000284,-5.721409,0.457781,5.779449,0.088768,3.586983,19997784282547903522413475578581213789435758321401003027816513536.000000,0.002000,0.000000
265.000000,0.002000,0.559427,-0.446666,0.500405,1.171223,-0.919696,-1.430121,-7.095355,6.605910,-6.894006,34375191279401040765076488325711525838848.000000,0.002000,0.000000
266.000000,0.002000,-1.282806,1.594526,0.152534,0.297239,0.056473,0.741856,2.553919,-2.878687,-0.350520,252734225966420807320986736642594755600590524641843908615844024164669794452134446599888139821246480251179074163678820748738682726158791898341525217146306074825092416969877869297664.000000,0.002000,0.000000
267.000000,0.002000,0.066045,0.365631,-0.278370,-5.458231,-1.358860,-0.819246,-3.810545,-13.591802,11.438740,0.000000,0.002000,0.000000
268.000000,0.002000,0.495450,-0.223185,-0.036626,1.355526,-3.320347,1.492727,-14.110016,9.338283,0.475467,6897969.395037,0.002000,0.000000
269.000000,0.002000,0.274773,0.080990,-0.036232,2.286179,-0.699106,-2.848732,-17.563526,5.267351,1.367013,59787887852839564078638878661455478311213781545039172177788993081529870578045256103440926809393993239002308633790275990745656873860969049841027500656748419983421634040089524044969889409269145223751850121360955569917014506077998284800.000000,0.002000,0.000000
270.000000,0.002000,1.446637,-0.467456,0.990536,1.044898,1.920325,0.851779,-3.382295,1.348059,-2.208182,0.000000,0.002000,0.000000
271.000000,0.002000,0.155222,-0.335837,-0.600788,0.630876,2.201836,0.115239,-3.485345,8.304256,9.205428,0.000000,0.002000,0.000000
272.000000,0.002000,-0.120777,-1.365999,1.331501,-0.789876,2.878322,0.172712,0.125560,2.811014,-2.589619,158234384281284465452429548196418507819414775680760471331706164917628362132191344886009449862724783189157182829026865161945733449917605752080257399032353949302382863852948985590967207206354714571288158197474853642718036769956252878743995218946505598876804945768212991898742102687744.000000,0.002000,0.000000
273.000000,0.002000,-0.901010,1.057817,-0.341741,1.681884,0.840042,-0.894445,4.330995,-4.491042,2.083046,0.000000,0.002000,0.000000
274.000000,0.002000,0.100880,0.009571,0.292350,1.073968,0.352276,0.332436,-5.822527,4.147879,-18.886631,6042263657304062044574851809117227006277618357398262335590164090495216982102336020055830469462525383299829007239017069852694596698505469596377655193991586900342171974998580017496064.000000,0.002000,0.000000
275.000000,0.002000,0.645865,-0.029547,-0.166714,3.070760,0.938903,1.053785,-14.607490,3.471107,3.202770,12581593020130532.000000,0.002000,0.000000
276.000000,0.002000,0.210202,-3.275251,0.552410,0.053419,-1.181278,0.542248,-0.140870,1.550802,-0.250244,175914242411726630273839862316741102272395636170179526497766377415150663254808978595187123566453356022687250555512389221060356761507443988425957539455562317749148727024415697405703105574877528064.000000,0.002000,0.000000
277.000000,0.002000,0.539381,0.410253,-0.374331,2.958943,-0.241136,-0.989763,-11.359256,-6.173563,8.000361,127882938841700634751470242110351114076133719798905412487278668281257138683823055313843836999932828605028923860175817202575054892793962051184159152475232498812851875058708847197141221580487768695117923920465388613140480.000000,0.002000,0.000000
278.000000,0.002000,-0.127434,-0.078563,-0.042541,-1.419236,-3.425848,2.357735,9.114586,9.317670,0.330555,5654321112882175189317299107556393557672376868230006787619190437525808369106944.000000,0.002000,0.000000
279.000000,0.002000,-0.492891,-0.434862,-0.847339,0.635687,0.615601,1.217942,3.972556,4.301162,7.298855,1321188064466809051179707209094534235188071074904319991629060046997486824765381705661638180188663714725541279578585946345857335255595073854850384028790049193032851890783860013405322379881995702376102805598833213440.000000,0.002000,0.000000
280.000000,0.002000,0.295913,0.040387,-0.121374,1.480719,-1.749736,-0.556346,-15.062229,4.148762,7.181689,277673966277023066083665556052949585347643220455630700265479410587527325718726751965321953990597254571687987430003588063826728964963948685462155532087890117925575201994800139909344526336.000000,0.002000,0.000000
281.000000,0.002000,-0.299101,-0.601225,0.538545,1.448877,-1.221624,2.161446,3.100373,9.162258,-7.658122,888443253094814480097224853056126976.000000,0.002000,0.000000
282.000000,0.002000,-2.334353,-0.264456,0.147002,-0.112009,-0.889486,-2.054075,2.914610,0.379674,-0.208555,0.000000,0.002000,0.000000
283.000000,0.002000,0.493489,-0.188228,-0.262796,-0.130617,-3.190524,-1.119300,-12.791590,6.397207,6.625825,0.000000,0.002000,0.000000
284.000000,0.002000,1.049616,3.219246,0.816702,-0.268377,1.688810,1.038919,-0.512388,-1.448931,-0.421352,0.000000,0.002000,0.000000
285.000000,0.002000,0.005245,0.739976,0.280634,0.400019,1.649798,0.670464,2.685573,-12.303606,-5.392820,7657575461719619497609321368966879554161704829112452283555649033491569366988855136472683693771244841193568054295393966740366351619080729734174103833670301575154480970163533958147770284315730327353924196170429895970987704320.000000,0.002000,0.000000
286.000000,0.002000,0.579348,1.160789,0.180846,-2.510954,1.518391,0.209306,-3.772365,-6.998924,-1.472850,3937123633608592788645222211880566413475745655082142161817399380729997453659793967422321668089142555473941471014921571799383530840265564149775216809539962613109724499257205161014742748874685204794657016047579627320674706775137269478228414986900507459584.000000,0.002000,0.000000
287.000000,0.002000,0.196258,0.294355,-0.131002,-0.324802,1.825565,1.583423,-9.705417,-11.765438,4.339092,1165045484037654116912049529840770004309401787238288883085029544396342381143547861920925347094361297330833957104897796037572281807491039083059337468642621679684244639580160.000000,0.002000,0.000000
288.000000,0.002000,-0.009256,0.039112,-0.238260,-0.702516,0.403420,0.355907,0.447072,4.418609,11.724184,2532547438775593167721262358482819660652253902717713458717652253997365211221026795450991586952692018911148089683519838034947044205280291881312720071608289965597272489461627851837229686940078991982854753352694314395762082657043035591077754456854961877221814518036783407302705152.000000,0.002000,0.000000
289.000000,0.002000,0.123653,0.015782,0.035715,-2.127518,-1.021458,4.176027,-7.792915,11.229237,-2.031835,183958070469688545832960339098656786076595367116828899760265755111233749082066521303261246783760393225007296092909970630314700384884826412903113405692729929030864940302497099052649548682314389766261120728024124739089370996557479406584438398723817472.000000,0.002000,0.000000
290.000000,0.002000,0.005136,0.008930,-0.366973,-1.211836,0.223345,2.932102,-0.061615,3.937908,15.001137,0.000000,0.002000,0.000000
291.000000,0.002000,0.906297,0.394711,-1.191697,2.659562,-1.023200,-1.045682,-3.624323,-1.312497,4.743570,2815863853451972342659750461143529784860207421119778729550504750493805825753088.000000,0.002000,0.000000
292.000000,0.002000,-0.252547,0.040421,-0.158846,1.581265,0.729490,-2.242657,9.233464,1.204499,10.462580,15123458067126248261086211323882214640696320554691168751119356551410986539383522261414087061885653759808787423656312201010065398462922237776581886451471223712574497163575762238378361832153789394333946809205630435328.000000,0.002000,0.000000
293.000000,0.002000,-0.434217,0.131302,0.220472,1.086015,-1.788603,-0.285430,15.352017,-0.018714,-10.712357,0.000000,0.002000,0.000000
294.000000,0.002000,0.063343,0.514270,0.462808,4.340954,-2.609908,0.208672,-0.636561,-12.258333,-12.287430,34666975743445600970452750618544333686937105985806772809008349754288917533994016711159748839491357988772278296971697113074221300273357221755774731851457228599883055027262796203144295897918773384341274083154147790017830749104345971403389867303950352199450624.000000,0.002000,0.000000
295.000000,0.002000,-0.351892,0.127060,-0.223407,-2.433818,0.367146,-0.267340,12.973065,-3.803077,7.850521,0.000000,0.002000,0.000000
296.000000,0.002000,-0.268811,0.635610,-0.439164,-1.918806,1.873627,2.394779,5.567577,-11.397400,8.290495,2378483050893287910688425634333818520491650417499743039733330684902608327677011218614218239735046111784106579859248425466133522832087823211554511439373522946956030924931642187402193457384091239641933535992536904750872907036485969006169864732382841249848165924864.000000,0.002000,0.000000
297.000000,0.002000,0.193300,0.247830,0.032203,1.756504,-1.219465,-1.538937,-6.706291,-12.492523,-1.411890,126832047252061676064469033361971738824923363460964222225754443132600833446394542798814447321508424528287340266488680406992929401820567252497885406307766367322278453916119514065793821855825047012876993895226719415949495258059789828096.000000,0.002000,0.000000
298.000000,0.002000,-0.289697,0.255518,-0.095776,-1.339193,4.296945,-1.455839,15.049770,-11.758279,2.286236,0.000000,0.002000,0.000000
299.000000,0.002000,1.648867,-2.086258,1.345068,-0.168345,1.542844,-0.182785,-1.047380,1.329677,-0.859329,1504480578215202023310599606016820939332980750526686662533148444052019906023808606154136748317596071227316633763069383651032554510105665447460439209234238722336887528333127469291703672964554585273720613634440717128466431190959994848621331419481551502617755684398170112.000000,0.002000,0.000000
300.000000,0.002000,1.575687,-0.775707,1.625465,0.985494,1.271243,2.023205,-1.768869,0.927841,-1.875057,132787167013422858579337890174223099514598103488387275819582764357228534212844607556285296692601349499307343027433941443945621387177385043135539762585091095246634749394679078499321261396477447470559350834950485120270444711008435096918952160869232844518392776645514012655616.000000,0.002000,0.000000
301.000000,0.002000,-1.471958,0.021676,0.776411,0.258809,0.586347,0.079980,4.430182,0.131441,-2.480606,11891675600349305371550100432292020118504049391245137201614888667302342922545067220641798344003804742052134949585394255762613234182124701263651449322615675012198822994779285746632938098788882229827404669267778073229260377963483482450777909542024683619506171412480.000000,0.002000,0.000000
302.000000,0.002000,0.767933,-0.250737,0.589249,0.124172,0.134577,-1.234794,-7.694178,3.619238,-6.165763,0.000000,0.002000,0.000000
303.000000,0.002000,1.836878,1.816819,-1.162571,-0.615705,0.561105,-1.061415,-1.492594,-1.404065,0.963378,79965106934494509133164335638588966210228818091644675440204400390109083524529819179238915167025659606202353356880122063680125430239430868974172361018682879895102218567680.000000,0.002000,0.000000
304.000000,0.002000,-0.251020,0.535393,0.556881,-0.884219,0.860619,1.269988,4.985448,-7.735712,-11.717221,98538896675694660726999002921853329801753094853604858134528.000000,0.002000,0.000000
305.000000,0.002000,-0.644116,-1.113090,0.237053,-2.043002,-1.111682,0.971020,2.705527,5.984192,-1.154870,0.000000,0.002000,0.000000
306.000000,0.002000,-0.850744,0.251814,0.432434,-0.169798,-0.315501,0.115426,9.269831,-1.627367,-5.359982,2979576246601601613111345227925477157596211943581105280928107561263418832809840051244416341261252756956084549369701957455791709549231596888813225562285914434338813647120640139271023244607488.000000,0.002000,0.000000
307.000000,0.002000,-0.120916,0.477535,0.412390,1.560078,1.082426,-2.090824,4.238041,-11.374200,-11.324082,1006005045850.669800,0.002000,0.000000
308.000000,0.002000,-1.288768,-2.356312,-0.519380,1.782724,1.233405,-0.019227,1.050147,1.948365,0.362338,0.000000,0.002000,0.000000
309.000000,0.002000,-0.401711,1.871692,-0.454164,-0.505901,-2.459647,0.304754,0.801794,-4.043656,1.228877,817711070984265838672372107437276123939780645699207186456690926982048423971389848419636726203642402301446872343658305650099594218799708723020256176489142500558492593146149085951159723154345240420668076839272829594233223361069056.000000,0.002000,0.000000
310.000000,0.002000,-0.424934,0.601974,0.127904,0.060509,-1.610773,-2.706961,9.644821,-12.215301,-4.144686,0.000000,0.002000,0.000000
311.000000,0.002000,1.100406,1.417330,-1.404557,-1.667326,-0.640773,0.413869,-1.664815,-1.963672,2.045241,6310576021544151038039127579457709030140909500965479785853464488003514414677158894965518575254665385754415169654995584318252934312220312939545928403184707835901851783301260637853744934243803691585413585597947757570908225536.000000,0.002000,0.000000
312.000000,0.002000,0.419408,0.379499,0.598548,0.007201,1.952372,4.575085,-7.060034,-5.572219,-10.411953,158289534698.923431,0.002000,0.000000
313.000000,0.002000,1.784048,1.080918,2.339938,0.478594,-1.059154,0.420148,-1.084279,-0.592273,-1.348040,32806496230550776693456376918396619772971095949312.000000,0.002000,0.000000
314.000000,0.002000,0.211333,0.540126,-1.038547,1.202597,-1.304219,-1.334208,-0.871680,-3.848441,8.254961,45796864282121375564333322079785135594840857094655082506390320812173341494434666576318131243366870989581565144001365671253720104277502863612762855415357726179342978872216888249523088588098729587731049214957398514517052549873893214830111186799820800.000000,0.002000,0.000000
315.000000,0.002000,1.614431,-1.841037,0.209168,-1.722194,1.003722,-0.265662,-1.654166,2.006427,-0.241267,44805641927084132385816271923709075451981486375396449276504676336140659917324288.000000,0.002000,0.000000
316.000000,0.002000,-0.475035,-0.127924,-0.137520,-0.028661,0.096038,-4.791631,15.287360,6.858802,4.107136,673127142743481081486423881349331359766028029632452953808984967887172896904824490791967591737007237759251202640154781220314447629435150463521987079368069746770823698443801428771343575611639871954403000538834217043538256498317239531596015818867824286882594816.000000,0.002000,0.000000
317.000000,0.002000,-1.068132,0.746956,0.478570,-2.073971,2.023735,-0.599914,5.540481,-3.135613,-2.409861,5059876.877638,0.002000,0.000000
318.000000,0.002000,0.081206,-0.592708,0.283404,-1.110637,-2.310505,-1.040539,-1.766700,12.113487,-5.212830,0.000000,0.002000,0.000000
319.000000,0.002000,0.013066,0.234828,0.573208,-0.754035,-0.364844,-0.781110,-0.089696,-4.232113,-16.894533,13896801283811333210822174237441927413760.000000,0.002000,0.000000
320.000000,0.002000,0.972567,-3.709896,1.645937,-0.364281,0.015543,-0.850333,-0.246324,0.940046,-0.429998,10126301673365113692013027492220179244668002992935403520.000000,0.002000,0.000000
321.000000,0.002000,-0.633143,0.088497,-0.002231,-0.626276,1.578904,0.705721,15.705622,-0.042020,-1.659711,3503510461673597968079762109089245558315800605153762186508724959167151094320859078798863072243162977589019341361582626159533076524725886869801016289789200594255216640.000000,0.002000,0.000000
322.000000,0.002000,0.637286,0.534078,-0.242604,0.018659,-2.796325,-0.248466,-11.637558,-8.349451,3.564918,8216675568897540955993229972371624629578698948316495872.000000,0.002000,0.000000
323.000000,0.002000,-0.231668,0.676550,-0.235056,1.170269,-0.229556,3.297940,5.108636,-12.645551,5.070225,3005462840291647013636058234650876956906579837036859814223270837021410754613175113132847996115257131008.000000,0.002000,0.000000
324.000000,0.002000,-0.225778,-0.008441,0.336754,-3.092344,-0.167686,0.290576,8.929254,3.242137,-15.024974,348408825958760952931131170245833080038956965187915726460243545627716994273122711665927593715008722560252355222744028042241096865683405505858869423877588834041968382246156256887478232475957973342501248372192496600283403059818183356343021629790126292986757120.000000,0.002000,0.000000
325.000000,0.002000,-0.594710,-1.921344,-2.451097,0.515975,1.396953,-1.618617,0.258508,1.234271,1.440665,58927898899849018464221035040191880972358680013604151420926754060589308646831847171192850106332083126272.000000,0.002000,0.000000
326.000000,0.002000,-0.484631,-0.513254,-1.611798,0.889737,-0.877676,1.973769,1.345103,1.932191,5.076226,1165280690172594586826119425233568673602833117580715005837312.000000,0.002000,0.000000
327.000000,0.002000,0.115160,-0.048492,0.069788,-1.164627,-0.441211,-1.656299,-5.908439,9.526106,-0.531713,0.000000,0.002000,0.000000
328.000000,0.002000,0.312496,-0.140744,0.418826,-0.537412,0.421792,-0.121315,-8.422134,7.213652,-12.568208,287466478426483653046175602455193585818542425724590107148711104414036616564672530909256902212350481220691575003865802224082201503145617022324011619682274382970880.000000,0.002000,0.000000
329.000000,0.002000,0.302096,0.274355,-0.065096,-0.793330,1.155766,-0.581945,-14.035324,-9.995076,-0.671469,531964978898796373347213416334917423892082427346637759505270180920025699884676565735351255040.000000,0.002000,0.000000
330.000000,0.002000,-0.093443,0.382549,-0.066913,1.584570,4.007095,-1.915728,7.005070,-13.007424,3.274937,80922362678341826658597427581014327745678479134334982526495845864606500782771550494207599111782980416933831467808449076320477153577993172739102525573606804708096640811008.000000,0.002000,0.000000
331.000000,0.002000,-0.095250,0.264434,-0.010990,1.573793,-1.370997,-2.873999,3.246321,-12.995741,-1.123953,22164144837597793158053025368571997326772040266502375070658437170077290840645751581554288840009055349240742725208494787978182230724258096337411774049318332268544.000000,0.002000,0.000000
332.000000,0.002000,-0.596578,0.028185,0.501769,0.024889,1.136180,0.264344,9.384445,0.666063,-8.936608,124956730802789324425507909460380355096989335765032021947860900631057044684088630673670144.000000,0.002000,0.000000
333.000000,0.002000,0.778742,0.047417,0.521821,0.047750,0.788373,-3.613183,-8.133063,0.359093,-6.739411,0.000000,0.002000,0.000000
334.000000,0.002000,-0.257531,0.641121,0.423667,0.266162,-1.145054,-4.023570,6.801791,-10.647874,-8.214791,186134955242557208036314634516982357884148696946876418613036643546864018792715700072324726717680723612467799785472.000000,0.002000,0.000000
335.000000,0.002000,0.121803,0.302118,-0.129727,-0.450544,-0.989318,0.106504,-5.420343,-14.066888,6.973638,44036802502249200640701937453015617434265964114199793396304602881329683580389392019769070232910952855508792955094616946066093688974658958929217219914599865440661961039221734433895747064795063707967833326351048966891811504293318776284558528232816640.000000,0.002000,0.000000
336.000000,0.002000,-0.109789,-0.285905,0.767249,0.766719,0.818723,1.838994,1.178712,5.277633,-11.712701,9589811909872513360561083133908124817041380678242409710253445664954640959059289145894407857214164614982050910399294951106019328.000000,0.002000,0.000000
337.000000,0.002000,0.116882,-0.146878,0.296798,-0.814869,-2.246327,-2.182931,-6.353472,11.962967,-12.513192,4489639652032059220190411358208.000000,0.002000,0.000000
338.000000,0.002000,1.341919,1.940752,-2.109859,0.828453,-0.305400,1.676510,-0.806770,-1.108874,1.235971,3051075983730369402284611207168.000000,0.002000,0.000000
339.000000,0.002000,-0.364729,-0.311755,0.014371,2.356722,-2.213825,0.282183,11.937609,13.100893,-3.500752,2543359485249085635499207781297794774790224511973373772813524060128504234305111997935031008089645080913327987470301054467082399136451594127021241319101877628181151785567050737206717071753216.000000,0.002000,0.000000
340.000000,0.002000,2.569698,-0.137388,0.048931,0.161077,1.379761,0.696656,-2.467511,-0.023223,-0.093927,1844211000156722785187336240430939393326691641432828247552565867847735941268477975764760211597415742552598369735519213349009089130939331566944024608920264190759971814110019152816805138117475434496.000000,0.002000,0.000000
341.000000,0.002000,0.018982,-0.325442,0.048581,-1.003462,1.925630,-0.273949,0.053229,16.848654,-3.389195,813437670923179404926044904712116503762486731352119297640611293446606178570476235658409103752603709093947016883524975873600414899112264295280429358489133961612685878185668089246820126337271465168079778285616312583154429845307392.000000,0.002000,0.000000
342.000000,0.002000,1.069947,-1.419615,-1.423216,-1.687800,2.162219,-0.029365,-1.733316,1.999862,1.753445,4489513885456996842270357454848.000000,0.002000,0.000000
343.000000,0.002000,0.273278,-0.582518,0.113837,-2.643366,-0.672095,1.741851,-4.272674,12.664019,-2.704674,1070601738933530777421510329127198358853987937396423635549686650529597119098783408208762640233339871464631144465543734937541402021282703117336772700583656899708450566878032013394324614057431290076926261276752113437769728.000000,0.002000,0.000000
344.000000,0.002000,-0.093320,-0.271110,0.183777,-1.776372,1.972915,-1.245323,3.197715,12.957026,-4.592964,409324452305229162316858591576186839316831897825438517259274697279988839344062350035652596896215599748181456326414569507527066912910606493954093984397703900840909921394808651931906519155999054239323684296939752603870065072052386136064.000000,0.002000,0.000000
345.000000,0.002000,-0.917614,-0.465456,0.735732,1.086990,-0.490196,0.003652,5.149666,2.749260,-4.754891,1905462213974098406427571125657260168822554254956413152674627317814111913220570122595322719383377149952.000000,0.002000,0.000000
346.000000,0.002000,-1.710502,-0.837373,-1.478069,0.951772,-0.980819,1.146054,1.908767,1.062144,1.658713,4489678366292973271029427208192.000000,0.002000,0.000000
347.000000,0.002000,0.195232,-1.100448,0.285504,-0.532612,0.333655,-3.068355,-1.226129,7.492030,-2.107843,1618383385935709650834884623640083589979619039317449118955635161734325605733255802605683251456593546320946185774083887675819565530281772199942854888762536349639669786359884626470098679609326652841648044186231706424505145076685804841099552913003489787904.000000,0.002000,0.000000
348.000000,0.002000,0.189075,0.402255,-0.789924,0.160950,0.522791,-1.769376,-1.986310,-5.079169,11.409971,6466705816781122142873759861166892079127448079660932863466457170159832955890220504682331365713562132560141617639883276832825753318672973676793701059603062243093747770435963581841403597296319486014807063443608208422654074726738641951801513467288468733692313862144.000000,0.002000,0.000000
349.000000,0.002000,-0.902838,0.110160,-0.442660,2.043370,2.097904,-0.994547,10.699359,-0.158149,4.635186,0.000000,0.002000,0.000000
350.000000,0.002000,-0.653250,-0.196627,-0.671253,1.701426,2.331932,-1.523745,7.151496,2.103316,7.533957,37525300226114541705019534489040354309848651055161793077391718784929931458510848.000000,0.002000,0.000000
351.000000,0.002000,1.367084,1.903494,-0.332937,-0.178174,-0.812289,1.021799,-1.846970,-2.334112,0.229270,967258288208643725397873487662552033645352518667232078233300036834687103448911357379577843315409341186815037100517983518720.000000,0.002000,0.000000
352.000000,0.002000,-0.762362,-1.898577,-0.093027,0.892070,-1.414875,-2.674397,1.178694,3.214363,0.096989,6813910655996208171508285358570815381255434665955078609448168689015022237515776.000000,0.002000,0.000000
353.000000,0.002000,-2.047170,-0.783484,-0.976067,-0.742321,0.784497,-0.229595,2.387343,0.915213,1.035620,849497145597742366818095849959395599283841260114769925996299571988033539298425470152665004647360642481818185604529434964901190103765897307675784723116118914754871212888405714152668894359182092971392308543078575297335912671893823711184518599067471372284662457266373694691892353040384.000000,0.002000,0.000000
354.000000,0.002000,0.386856,-0.100722,0.428774,-1.198902,0.650077,-1.725644,-10.752781,4.593649,-11.742724,0.000000,0.002000,0.000000
355.000000,0.002000,0.047044,0.178622,0.158249,0.396224,-0.308080,1.072300,0.858906,-6.862846,-8.916604,5948360542133766199764745075456055939339929786631332812289765877053762515668328643214870701359546103921214691451432651928703781666963146044207610542493055033629951945759797240431151599475974222893290197049717639674202430339187528393498000571236352.000000,0.002000,0.000000
356.000000,0.002000,0.066929,-0.122950,-0.422332,-0.752113,-1.537771,-0.450708,1.886436,11.470358,14.512796,2162282384914370042192655502014541563505039146771205886618460078739625607631753330051258969292656574667423744.000000,0.002000,0.000000
357.000000,0.002000,0.975216,2.444449,1.051586,0.632602,1.271477,-0.261490,-0.805757,-1.924927,-0.927554,256925847681280900970647606401390287807022050162152323144401516407237077503642852426069773618221614850607239874794539623800716594469121544419354111695933646307328.000000,0.002000,0.000000
358.000000,0.002000,0.230854,0.611869,1.009440,2.496342,-1.291779,0.420004,-1.361942,-3.986300,-8.236793,1538680091067121240014280644425217930709751434353852244085299363161986236867627232846752725032871508842764614225778014433286490590191240499725926408443452510187679520119450664662561717899022860108914540069844462986067968.000000,0.002000,0.000000
359.000000,0.002000,-1.001392,0.222945,-0.761926,-0.284606,1.651663,1.056982,6.993805,-1.515859,4.213396,4489639567585581084273341890560.000000,0.002000,0.000000
360.000000,0.002000,-0.861024,-0.400237,0.169880,-0.758942,-3.907014,1.463231,8.880090,5.794513,-2.390865,354260629153479596704042779809557352934935814557799709573912134483334154969246118778118254915729103695640404695324717962633533606324923892200364255333444256113772262427769492320467210845185638400.000000,0.002000,0.000000
361.000000,0.002000,-0.069694,0.378867,-0.209903,-0.852478,-2.393597,0.585041,3.177585,-13.661421,9.637297,2395870.829846,0.002000,0.000000
362.000000,0.002000,0.260386,-0.153911,0.330574,-0.204435,-2.774500,0.471047,-10.343540,10.187343,-13.452054,6854961772021220781210620206709296830518349843145522077370228193365430817666090118195980533760.000000,0.002000,0.000000
363.000000,0.002000,-0.157694,0.233300,-0.028850,-2.792361,-2.669892,2.562607,10.417975,-9.305107,1.968489,0.000000,0.002000,0.000000
364.000000,0.002000,0.136223,-0.514393,-0.572081,-1.583510,0.416874,-0.517797,-2.465708,10.827689,8.015495,43861416297858134796139709815760021432605536680102528107040978212965289412287773370499411273204769207954864581128992169584947476679794225489408564370173142295686248582093554577884335004586609284116281823872202140329320333249724571694215845098239358652913643683840.000000,0.002000,0.000000
365.000000,0.002000,1.812966,-0.000486,3.988008,-0.031097,0.092204,-0.737741,-0.400455,-0.016342,-0.899683,2893008753938177233134322877058534678265644922832958645377455727120532740719010411503901645546626833333513037936741595401190415064300883088270133924597162606349994076535846372114432.000000,0.002000,0.000000
366.000000,0.002000,0.379922,0.015141,0.052539,1.251559,1.933732,-1.474495,-12.283413,6.156619,3.439509,0.000000,0.002000,0.000000
367.000000,0.002000,-0.848204,0.084042,-0.060334,2.054574,0.163817,-1.577166,14.519074,-0.414585,1.082008,4489586422811658366384370352128.000000,0.002000,0.000000
368.000000,0.002000,-1.669792,0.181581,1.406432,-0.114607,2.062362,-0.899022,2.195008,-0.061509,-2.034025,133167126348244650644907440805408715866255032996726472193430766440963589702567997994479652108524649466512702838621853153554133713943052918042179997269833807306899903529794489768349352243738626113689842357085068924434444513787247462534323406440260481134761954602805930468887538696192.000000,0.002000,0.000000
369.000000,0.002000,-0.107478,0.161647,-0.245023,0.600763,0.950633,1.421143,4.676608,-1.677944,8.918349,128661179483355083147393288581641148141471602911376357891784644691088541471322356060258304.000000,0.002000,0.000000
370.000000,0.002000,0.092919,0.631098,0.543893,-0.135813,-2.048806,0.882924,-1.944708,-9.627794,-9.958990,2834401165164854738616900350586693115351500710757479673224105744079478673375232.000000,0.002000,0.000000
371.000000,0.002000,0.130146,1.049928,1.021804,-0.253422,1.649917,1.486879,-0.571248,-4.420840,-4.756217,0.000000,0.002000,0.000000
372.000000,0.002000,-1.905390,-1.004822,4.423239,0.081309,-0.176529,-0.067620,0.297562,0.176741,-0.718649,254142282011170918096485327930794072089758861340628646472791278562299830151815214440899128184400939612168115240828600402126066170525691716511240804075545426362799703163212745557779669412172657732271353306803479525160050518742620176384.000000,0.002000,0.000000
373.000000,0.002000,-0.377908,0.482168,0.483786,-2.204703,-1.142328,-3.574204,7.541190,-7.409612,-9.498151,953332932064653474290631272702725829170403913510986413584048448877107883787165316087372026354859078284904427231079510586474598677895589712811993087296010489906106348000747200403342125694976.000000,0.002000,0.000000
374.000000,0.002000,0.254280,0.026080,0.409693,3.784410,-3.279816,-1.117912,-8.900676,2.872459,-16.233855,48396671941841808157800175547475613530299602285861486053285953299031687669495430363964951670841043111475977571184288845148288487952198050576889519430163261391080316677338929885504759865991238265689305998987573698190325801542414748307404151506415294524838596900458086410011501658112.000000,0.002000,0.000000
375.000000,0.002000,0.340503,1.767086,-1.480694,1.200954,-1.431507,0.672428,-0.472725,-2.306422,2.020447,664323797993404599015272368644761721812305711579005198957140268748808733982483236312355165354577672254113565846978880140015009524169455042499133552608666613263066825864494046707350737349259558912.000000,0.002000,0.000000
376.000000,0.002000,0.248182,-0.169690,-0.054321,0.252976,0.793269,1.157307,-9.569808,14.452015,1.255291,46282832083613726476218160231842529583267898420261948943199386579847027237867367517256497539007380931144297529867623464877212145569645247570651590863246530175097990830944085009787804008091784324434426259163011273911591854676552491306341716740538368.000000,0.002000,0.000000
377.000000,0.002000,1.147250,1.781408,-2.170937,0.369396,1.137969,0.380732,-0.721641,-1.105905,1.436043,559289614706653714457534518401830824382957934604278664115020892128422367979220030509580494847080017215461265257109342002211765392984205150568613517331214438280742762451659829536559025375190270509073315384748484115309796846196190126025456728684753723139661480935292928.000000,0.002000,0.000000
378.000000,0.002000,-0.243955,-0.551635,-1.416937,-0.291964,-0.957907,-1.018921,0.658093,2.320576,5.289877,0.000000,0.002000,0.000000
379.000000,0.002000,-0.040685,-0.062882,-0.085169,-2.734066,-0.891850,-0.688800,2.527173,11.580056,1.506628,2140611833524196123182217635111761590452481138499359231442944.000000,0.002000,0.000000
380.000000,0.002000,-0.200799,-0.168673,-0.014328,-3.047880,-0.933512,-2.066625,8.642570,12.198213,-0.839635,292668265103769117734382956943899901454353846667487717773258074584922564562261675949179111444966558098666120943967689877180851915934995094096427365143825745302289066599371221673783066624.000000,0.002000,0.000000
381.000000,0.002000,-3.661287,2.420950,0.550428,0.807778,-0.284142,-0.263119,0.844941,-0.551345,-0.117872,39076377402690424.000000,0.002000,0.000000
382.000000,0.002000,0.598025,0.270116,0.006351,-2.330869,2.243223,-1.867508,-14.284317,-7.028566,-0.590312,58267714950778944370012268410992471310336.000000,0.002000,0.000000
383.000000,0.002000,-0.242998,-0.265237,-0.132876,-0.301058,-0.463572,-2.084197,9.037493,12.442958,4.558354,0.000000,0.002000,0.000000
384.000000,0.002000,-0.060943,-0.235074,-0.181763,-2.895663,-2.701867,0.953924,0.798550,12.889642,8.733215,0.000000,0.002000,0.000000
385.000000,0.002000,-0.448697,0.081064,-0.105246,-2.581900,-1.637319,1.059302,19.128865,0.581111,5.568033,0.000000,0.002000,0.000000
386.000000,0.002000,0.903969,-0.049744,0.142060,0.111686,-0.390451,-0.778020,-10.851421,2.251079,-2.043290,263311070182819021600193440356135548879340803907502444580597571474211235749099995136.000000,0.002000,0.000000
387.000000,0.002000,0.997741,-1.354303,-0.309887,2.378689,-1.407222,-1.118217,-2.591165,3.747427,0.777886,1382071054786142394405328267574366883204695982835424509159397458893610286071423417382966121838978500121440334766641816264450299898145406147870747577457915873256798910854791707395875348796939802259126150163833343835111424.000000,0.002000,0.000000
388.000000,0.002000,-0.427559,-0.486773,-0.083750,-2.561987,-2.255486,-0.963602,8.587007,11.969391,1.052960,0.000000,0.002000,0.000000
389.000000,0.002000,0.629689,-0.385065,-0.114594,-2.121734,-0.320418,-3.853369,-10.670182,8.362766,1.273421,276171172830565976947292018377010913268733315984565246463327111659873117651674857472.000000,0.002000,0.000000
390.000000,0.002000,-0.818214,0.199372,-0.828219,0.140402,0.717100,-0.085304,5.376841,0.638184,7.037166,37627282437035123310906220343768715911684871025269026692543724766117860483101368198477141929758858414949683915769036168779731565940928433353741676386607517663232.000000,0.002000,0.000000
391.000000,0.002000,-0.626478,0.927345,1.225917,-0.251710,0.337264,0.863250,2.214573,-2.730965,-3.960381,7614339471593954279762014909774713832822323831325864849752077432389453362039128029705486492106042516911271600284454023185269453261839118133193897489091672173638593009769506703745945229679773008860991717376.000000,0.002000,0.000000
392.000000,0.002000,-0.196760,-0.472689,0.110076,-3.386517,0.770193,1.548541,3.873602,16.407943,-3.466631,1135059663827848207214780334408204288.000000,0.002000,0.000000
393.000000,0.002000,-0.485235,-0.228227,0.146336,1.632357,1.208655,1.139965,12.496260,9.707205,-5.211274,55704298085207893568948416402219243405312.000000,0.002000,0.000000
394.000000,0.002000,-0.467868,0.042779,0.105553,-3.102060,2.660102,-0.061536,17.878742,2.627456,-4.514878,6248744744316904911240312188932047623464994742365238738925059895086208298899029402141130380117242366148337465613515808420570136709486015072350783361708262439112971895123040196305467682471830614292065499924326822542263189504.000000,0.002000,0.000000
395.000000,0.002000,0.068387,-0.260772,0.976067,-0.476494,-0.283038,-1.165738,-0.870973,2.997057,-9.457523,1296355452274854214063335609445908480.000000,0.002000,0.000000
396.000000,0.002000,0.231356,0.152149,0.148558,1.778723,0.553703,0.814537,-14.699936,-4.309067,-4.663532,734823511489557649700006296143592193376047405909844551064700277261274333211202777480219487593401285884162214931431352387735273932836641970084132889539151633341618252597936070057172022425293533127057384463461264921771187170768503390476882372111581723196231882956842648253497344.000000,0.002000,0.000000
397.000000,0.002000,0.621919,-0.069892,-0.528832,-0.125820,-1.547725,-1.202704,-10.481856,2.468209,8.510917,0.000000,0.002000,0.000000
398.000000,0.002000,-1.130042,0.256792,-0.227700,-3.648858,0.498242,-0.765112,8.601795,-1.388210,1.438473,0.000000,0.002000,0.000000
399.000000,0.002000,-1.573991,0.036060,0.435686,-2.352137,1.124933,1.022583,4.963400,0.051122,-1.422259,72350243151351544869554336747080137070817920248062738684917406157942120470806108154322034987012052968963356261854004782504011745114612082091753731286169325996033116250098833903854858485043773022646847510937600.000000,0.002000,0.000000
400.000000,0.002000,-1.230503,-1.312618,0.190520,-2.083994,-0.129682,-0.838736,2.530740,3.102930,-0.462957,1410093021981813593859487288442473701728577787277637450987159907083239005745262903974185764492376784463215279907081863031791328897410114221963354024405033000048780376014848.000000,0.002000,0.000000
401.000000,0.002000,-3.176341,3.884631,-0.387369,0.113154,0.329283,-0.291015,0.508974,-0.540391,0.063958,17878407036843239846159133274033686595901405816086844089556106027227050050249842818276227786031418213056909755323213921294534361083047549640157969192751008677613273088.000000,0.002000,0.000000
402.000000,0.002000,0.185780,-0.289195,-0.606229,1.357145,-3.591437,0.116055,-9.565681,5.165409,9.150539,65853919557385476352146276322071305787102155099967389249380169023982692563466321679764865209136087135080133678304559814364102656.000000,0.002000,0.000000
403.000000,0.002000,3.322036,0.505010,-0.816454,0.362777,0.653872,-0.920988,-1.514878,-0.159043,0.351760,845957065994657682309499399556912183505381882185716879321751455172636354856863052815240511482287643158487728130097152.000000,0.002000,0.000000
404.000000,0.002000,-0.434506,-0.364553,1.542190,0.872954,0.636337,-0.383867,1.261381,1.259019,-4.733453,0.000000,0.002000,0.000000
405.000000,0.002000,0.185473,0.021716,0.144403,0.821667,0.486279,-0.632643,-9.334461,6.479741,-3.461175,1374585614781279201384945565060137356346488765725405294515459218261211205104355542784283914808422447875555078657015808.000000,0.002000,0.000000
406.000000,0.002000,-0.160919,0.112036,0.270641,0.063751,1.162005,0.307489,8.189375,-4.286903,-9.911647,2380157200671083742532939884064575999500524408638866814989026272181049982786422150518334176416337450422806491278459773925998605385300002380802678548472179869909177674611279355355074062848621518589096895014430514587709365345068817985589179830489514943417372088201117696.000000,0.002000,0.000000
407.000000,0.002000,0.490471,0.062171,0.488229,-1.765795,0.228366,-1.408287,-11.033320,1.127287,-11.093659,967258288208031930055060904106686823949888896371600712929309419508367854150827216928535487815887047597735804853378164457472.000000,0.002000,0.000000
408.000000,0.002000,0.213321,0.085238,0.082082,2.178876,-4.863022,0.548404,-9.372903,3.528255,-1.538516,0.000000,0.002000,0.000000
409.000000,0.002000,0.441063,-0.608260,-0.283735,-0.404747,-0.722161,0.027892,-6.533493,10.441916,3.978686,851374388018784064941257913638112280657954215029401613498198092402795982414530799318122092964807276682177152573635712504770361941467827578659985916896130051518557383286938259235883270089157815539856947511065510960780115387235200741574061059526826652223039411931054080.000000,0.002000,0.000000
410.000000,0.002000,-0.269752,0.006059,-1.835708,-0.432156,-1.432266,0.004682,0.739962,0.139909,4.475677,12546196183622884.000000,0.002000,0.000000
411.000000,0.002000,-1.075947,-0.983617,-0.859167,1.614360,1.157223,-0.612006,2.959079,2.929511,2.372820,6784453925640801478444991905792.000000,0.002000,0.000000
412.000000,0.002000,-2.270991,2.559332,2.045204,0.285587,-1.339500,-0.309229,0.703418,-0.770299,-0.633362,23700789257327209070509535349073301174092268997042735121658179034367186245036110873572944023580766642546945047676291114997611076506546481709663565958713049545021527247346655982998578308609278065931965560949083450216506458112.000000,0.002000,0.000000
413.000000,0.002000,-0.065589,0.660678,0.023272,1.336597,0.071978,0.132165,2.804248,-16.835796,-0.616292,44522099632579756574969418092528019451454784125645617689830857463737112749001304662492682541514267836275177509743008534536383284777073688441714641481423523445750092519004967338473564626009198350253190798363881769942734103982589897423239653042946048.000000,0.002000,0.000000
414.000000,0.002000,2.856630,-0.742362,1.634389,-0.634613,1.307561,-0.147934,-1.304873,0.335320,-0.777427,3231319632444717200316545123793452049332427940255533308633820992239526465244140453068373013795997636299287034406285932597165482544955189774772973629555815901955261742287959381868150769694657397613410080146916900864.000000,0.002000,0.000000
415.000000,0.002000,0.143432,0.312701,0.078857,2.978531,-1.735101,3.715532,-7.416215,-13.773222,-3.191135,147377381007557580159414679944959262134845381206484057488382786323972622484030762878803926186291232833050391641863340415294779671174453025959962039874261523454355667222431753268056946028234481529585469295252147502491691204511441732823272886081906284852238229574778880.000000,0.002000,0.000000
416.000000,0.002000,0.863098,1.003529,-0.204149,0.053314,-0.996503,1.108602,-5.090094,-4.994816,1.321599,58324592705628966685799328197695952564155259210814588319128485912999729069049968415111611932691124710831996261744901557595841834403620855696100132810344653991674126446522546022031748101640367769924132715017532682118266617856.000000,0.002000,0.000000
417.000000,0.002000,-0.117919,-1.473709,0.752183,-0.060188,1.987666,-1.931553,0.244295,4.141125,-2.023613,2912235727182756219837702495374110782796165405885514030446952453396548339069043264976941566561418858833114492263464960.000000,0.002000,0.000000
418.000000,0.002000,-0.219583,0.073734,0.947121,-0.268193,1.086092,2.455376,2.276188,0.773261,-10.698181,1942135282935500531640675446234115217793470358547133504684032.000000,0.002000,0.000000
419.000000,0.002000,-0.614612,-1.084484,-0.838990,-0.944410,-0.348344,3.945209,2.151239,4.345175,2.985293,619682880192060917343227365182066213231638844310876627663209001566375301758538743808.000000,0.002000,0.000000
420.000000,0.002000,-1.656433,1.265370,1.158732,0.710900,-0.889982,-1.172479,2.108681,-1.544682,-1.531047,133681124276155279645757869910629573921351438635070338710308445203361640912463265138252934730533287172818001388579835664939189625943703974523532615081292750377938162995519302599426664678107508927113260270682427881186866902658338829620751941103476944506699889953456958393433574080512.000000,0.002000,0.000000
421.000000,0.002000,0.299024,0.093990,0.287315,2.296362,0.041797,0.369766,-13.119046,-2.102991,-15.771438,294229658934410874774417044850868224.000000,0.002000,0.000000
422.000000,0.002000,-0.499460,-1.131545,0.242035,1.587068,3.194441,-0.923784,2.452509,6.463201,-1.228942,11418019437802718.000000,0.002000,0.000000
423.000000,0.002000,-2.083349,-5.402080,4.388469,-0.006224,0.685513,-0.501723,0.103403,0.275076,-0.222607,42423676036486152335955896910050602214399663632278408979677279488644618948958751306022912.000000,0.002000,0.000000
424.000000,0.002000,-2.740822,2.823960,-1.974858,-0.020209,0.767750,0.328213,0.640116,-0.648290,0.465924,464542831628677405468456825474625010318437527480949276897812894474832602654280144000625645541808877790742350725268873710878318005253603397281198955270386039513886434287391509383330314490497466368.000000,0.002000,0.000000
425.000000,0.002000,-0.445992,0.448925,-0.914589,-0.827400,0.456772,1.994579,2.166043,-1.230487,6.515065,0.000000,0.002000,0.000000
426.000000,0.002000,-0.764781,0.700304,0.997787,0.126424,-0.555268,1.167743,3.549351,-2.854962,-4.696335,24330993546043768791968784280236560940025901015016836998537514784376482182509570314731520.000000,0.002000,0.000000
427.000000,0.002000,-0.630011,0.562702,0.007749,4.129275,1.476702,0.993672,11.919499,-8.637006,-0.320608,18202819318670052771237831579979703118896655036386504892214926087467310940336956017268022515268013887013632635005452401715067138152725302368620809131367054031619742613028330735017431787180163288006656.000000,0.002000,0.000000
428.000000,0.002000,-0.481510,0.824899,-0.350127,1.209780,-1.125762,-2.767045,6.131321,-8.695605,4.298489,718487841623835857490181775547171688745980785049519915202913988226848915456.000000,0.002000,0.000000
429.000000,0.002000,0.055464,-0.503754,0.021342,-2.919819,-2.128084,1.179548,-2.334501,15.219010,-1.903569,1183125381055007045142701002070858168110581036086705803794118229869547504852870689668311513780254581005798383769108806796019477305334953961654664161464363617355621339632928836417215360776797891581169369088.000000,0.002000,0.000000
430.000000,0.002000,-1.247714,0.731525,1.167210,0.553110,-0.064648,-2.393630,2.823000,-1.495194,-2.673557,2604457529007761464102681583060446705185292899438745869785087774212575074654365668569413372226878841102472802921154431575152902735030006074380340097653874416202011877613414730497125683732791215328547482144625537687390156333257992571667871479101527967557797199768190976.000000,0.002000,0.000000
431.000000,0.002000,0.316613,0.034125,-0.419631,0.751122,1.820916,-0.298291,-9.296205,1.850765,11.563200,3386920083202043321481907920787988551212563937141143803707613373359592923289710701169640585853991801448473982113171313648670986409544356488696365818829937884115501056.000000,0.002000,0.000000
432.000000,0.002000,0.858681,-1.257912,0.078095,0.328006,-1.855804,0.371104,-2.811437,4.492689,-0.302520,253184808797634985984.000000,0.002000,0.000000
433.000000,0.002000,-0.029775,-0.242904,0.063948,-0.206853,2.107690,-0.690950,2.456350,14.395548,-5.863078,24140441489581960035911105586257208735462712198670929878986284644405513411980424780972032.000000,0.002000,0.000000
434.000000,0.002000,0.504473,2.173106,1.617152,2.291438,-0.192763,-1.008076,-0.399673,-1.852109,-1.409520,48015654481931559887001392078478849794060940351432599983844991202394819688340716457498888723477228765160147115103423861409313738743156402478050551095208056825430969045257027584.000000,0.002000,0.000000
435.000000,0.002000,0.186296,0.788715,0.019731,1.465140,1.084883,-2.859214,-4.883655,-14.465002,-0.971301,83146678965950272413524765823102397921530540117904038789385811417288223524305984785842944627815577515626731083371895673797846357029276838603792014746116160255868553382035534875278199388706725722849280.000000,0.002000,0.000000
436.000000,0.002000,-1.128456,-0.052730,-0.228780,-1.337353,-1.788034,1.668315,8.870515,0.613979,1.677601,0.000000,0.002000,0.000000
437.000000,0.002000,-0.359963,0.190782,0.534221,-0.261029,-0.130258,-0.717234,8.232368,-2.014034,-12.338217,32410058104129758110922599489181187985848265844851596718578329612855544558601499954755128938953956064698428677372656500291505303045517910435343791368320151715840.000000,0.002000,0.000000
438.000000,0.002000,0.109229,0.148442,0.251533,0.282313,-0.452230,-2.298074,-3.085056,-1.987000,-14.548671,15888624185437914.000000,0.002000,0.000000
439.000000,0.002000,-0.356469,0.550774,-0.069896,2.542066,-0.444682,1.849303,9.680736,-12.853764,1.753392,2280920801857847411980812398255732194583612318651025686409079015819922669709655486854573810380559089664.000000,0.002000,0.000000
440.000000,0.002000,0.211518,0.111947,-0.375047,3.143092,1.520287,1.980546,-10.017041,0.707596,15.715652,1480076877976192518011770356946829827533724595914464619026666987208466962692253181840090551202959063733221798936877186550339606170622446971794527245260559268879201132288451528364543048484539858944.000000,0.002000,0.000000
441.000000,0.002000,-0.399521,-0.358706,-0.534069,-0.859226,-2.059910,0.240930,6.080504,8.150265,9.291015,256206695020714064503764677381766772941067197027522652930048.000000,0.002000,0.000000
442.000000,0.002000,0.308433,0.269593,-0.435924,-0.328776,2.591997,0.419801,-9.768763,-6.220416,13.994592,106138485930251054353204208676943698573154468897861558099182045202760391698825733086078212470343251131539955634305703804987663259807027432998432669699481122071922826523867980749574289453408787738229949374931794680607702463998997207700536237387594516844773376.000000,0.002000,0.000000
443.000000,0.002000,-0.056225,0.109820,-0.203005,-2.900070,-5.075185,-0.005832,4.889190,1.876953,13.168039,0.000000,0.002000,0.000000
444.000000,0.002000,0.277421,0.406267,-0.170226,0.242272,-0.290242,0.418205,-10.045290,-14.274248,5.808293,1209894166817408787724919686134659235029724351189865234565551982026949197550635539093306879629280056799663132528805961399245852829315031736242671902861701521130129851532766358482512871390174952348832045469794856977039360.000000,0.002000,0.000000
445.000000,0.002000,0.457357,0.346403,0.101329,1.094926,-0.150340,2.150580,-11.997675,-9.200585,-7.674884,0.000000,0.002000,0.000000
446.000000,0.002000,0.556982,0.286974,1.787523,0.416620,0.547639,-0.475528,-1.249301,-0.395975,-3.973087,0.000000,0.002000,0.000000
447.000000,0.002000,-0.840770,-0.096371,0.378426,-0.129464,0.325515,0.957126,9.031735,1.677817,-4.193308,21888432668882858762822408470528.000000,0.002000,0.000000
448.000000,0.002000,0.057900,-0.045011,0.653153,3.174883,-3.144620,-1.231947,-1.543260,2.767123,-15.389984,2105108166100840408339789958771563194340122787104060998746778941680649730939296540402532440416185719568184335335066073686741940437625754593177098082588816987592750275830809583228564371115225823845490942935070223833520345390593158345910582101522906271810649378600779776.000000,0.002000,0.000000
449.000000,0.002000,-0.420014,0.033823,-0.230018,1.539706,1.933262,-0.114943,15.047126,3.532017,8.043516,18269163602406360883275669715368568834443493138067487682258494833478454818147733420114251307302259662693024871565730278016340969047443185345870862782634030977124439749750559266090087143958829365323134756391703962900067791661212354456368329235097062409615822561985561624576.000000,0.002000,0.000000
450.000000,0.002000,-0.052665,0.319128,-0.350398,-2.641573,4.441278,-0.720622,3.070313,-9.876543,17.196313,1721484865092536525151962647822122666558488576.000000,0.002000,0.000000
451.000000,0.002000,-2.568761,-2.421631,4.302664,-0.308250,1.594244,-0.021797,0.281799,0.280935,-0.488076,85384308948609354054004701015737534739827597596467252204664547667151505885362638877878442237309416776849869971470081031511668249059476952938925361147929618624168093335302313644430612389085659453847262304393084925334544679176200709985652033804304384.000000,0.002000,0.000000
452.000000,0.002000,-3.372906,-2.485859,0.259695,-1.379583,0.077612,0.399313,0.862280,0.652434,-0.061312,11684725254800892675333344460800.000000,0.002000,0.000000
453.000000,0.002000,1.496016,-0.389619,1.753052,1.296037,-0.426832,0.348626,-1.845132,0.569211,-2.172240,3459623539130233039370461455493669499113209698864069096471321580029877553394620452653487374000783232740290148228340821085212610534574993933604671480804358316556143589079801829531926933591538603715267902377389521154853271018405888.000000,0.002000,0.000000
454.000000,0.002000,-0.084328,-0.020760,0.063897,-1.881895,2.877420,3.081869,4.573734,6.126715,-4.303037,116997746398484856245849668080265262945169209602197868951037379422638164129088474753618084554593882914954405103749018883113029374794713011421725239935156465848538352104399285697721820573612572231920594362986617930514432.000000,0.002000,0.000000
455.000000,0.002000,0.427946,0.493347,-0.035620,-1.511944,-4.073327,2.401828,-10.938341,-13.930545,0.874633,1037357563463633339041322281343375359073381795128617176058304010182364044796717463544948424554161763950269128255656571088884924457516769082913179627478280083138176279853060395141012675220346646050548290902816875657193332946760473915910317408256.000000,0.002000,0.000000
456.000000,0.002000,-0.070235,-0.180160,0.070609,2.332373,-0.410347,-0.734423,3.635345,13.946274,-5.237977,23255270528979616766839030433098542838698207076286285750424887161104727291836624386654208.000000,0.002000,0.000000
457.000000,0.002000,0.513155,0.819606,1.096701,-0.506143,-0.563157,-2.472295,-2.971544,-2.877124,-4.349393,4776732701688224495575305083443815028726929978696878343321350260598451639494654554936156479543731255210773865650069661465496799424777186518832890228767060917326142039919962019797363075822300041575863019881671015602847424870883926858530816.000000,0.002000,0.000000
458.000000,0.002000,0.142212,-0.273814,0.525885,0.738982,2.893707,1.510599,-2.719563,7.088139,-12.514338,57921081048901648572496372428499539839363042401521503971031074412133316387002566285445004793776060353793962469390801020412493824.000000,0.002000,0.000000
459.000000,0.002000,-0.749829,0.516539,0.461999,-0.801340,1.518868,-3.140356,8.708042,-4.954976,-5.697142,3215706279898506552191908265014448397678718191104056600250473387017413256001764112149582654868876881197925571252924045261287694221029961222764564123590025794045726622778601283688789653996255548887919321991558164986858739419479271775414513923906122097747637136847374391208574976.000000,0.002000,0.000000
460.000000,0.002000,0.220309,-0.103522,0.108208,1.247482,1.577825,1.171988,-11.760035,9.564683,-6.129728,242380687193818423063632474835477606536772958329500183799788755077790625733002886414860889009827341269723614764113091100672.000000,0.002000,0.000000
461.000000,0.002000,-0.524223,0.311076,0.271631,1.863664,0.197130,3.952577,12.841383,-6.956139,-7.433924,109986379198755037376810679516434407333471944628522372830694377150719960706209105558964793435446673384556365664528359335720541439970072354843536227692503787936954138884757583981221705879553731025977547700568064.000000,0.002000,0.000000
462.000000,0.002000,-0.826330,0.395332,-0.062689,2.809321,-0.525688,2.108677,11.877932,-4.970372,0.757798,0.000000,0.002000,0.000000
463.000000,0.002000,0.366291,0.181115,0.649584,1.749285,-1.086690,0.507862,-6.128576,-1.196101,-13.181063,38483010040575714366153296930092007873027299372059959022358587285131628550052625082482688.000000,0.002000,0.000000
464.000000,0.002000,0.278616,-0.397961,0.348358,-3.262231,-1.059867,0.288690,-7.109013,11.576700,-9.012910,4157259910238973683695999258400555450171867973627538503596814947581952.000000,0.002000,0.000000
465.000000,0.002000,0.014759,0.138762,-0.583401,0.010105,5.118170,-1.209409,-0.530895,-2.720694,16.518578,1068655004207948864815398193831470360398108067160614734239506843914598104657909246942514336470158242332341289099990744099097364415906214596994011649092054746929923829867933098235397451829907292160.000000,0.002000,0.000000
466.000000,0.002000,-0.052769,0.665187,2.907003,1.040539,-0.851537,0.612603,0.021574,-0.370427,-1.946047,7982054917871244454015755033843292653544734865646241644245325982580132732531466659235449507936847217392283455153428501710370701676271912707822082973275439119811653255307454223128010272135168450910971156631233657303181563273251571777015693979366849511424.000000,0.002000,0.000000
467.000000,0.002000,0.168296,0.063276,-0.115256,-0.278787,0.635698,-1.697789,-7.529711,5.124675,4.903506,163148633539859808308927302703625582043195654388230504805358466504693320351889250139800632377863997206771666413098277019113310851663178496220082092533048993305658608888533810832369014800863557427148004022304999095189833516127032098184295514856488960.000000,0.002000,0.000000
468.000000,0.002000,2.827815,-0.961110,1.419098,1.336643,-0.002975,-0.097669,-1.366817,0.513529,-0.694924,5727231308942111929319338066346549253816797535863915006656984172242940354083777469371130267163376800158674783368642560.000000,0.002000,0.000000
469.000000,0.002000,0.094912,-0.094944,0.372887,2.176905,0.196349,-0.782035,-4.586482,6.164011,-15.362343,115817334864484472900360938367439358540330645180580716609536.000000,0.002000,0.000000
470.000000,0.002000,-2.449240,-3.017879,0.310277,-0.330133,1.095383,-0.106804,0.737959,0.941238,-0.098838,0.000000,0.002000,0.000000
471.000000,0.002000,0.186929,-0.448319,-0.372087,-2.228277,1.785378,3.226931,-4.941511,11.993326,7.499351,18382318703477929121830751413849762781860390664407455585701924400436794602106640860560669479004224457840746723290276994414465403241976150644813207897862120790525852544356927572053247999620078841403730687223052369920.000000,0.002000,0.000000
472.000000,0.002000,1.129904,-0.803711,1.107942,0.961658,0.929194,2.697680,-2.596124,2.081691,-2.633672,670574697729787511226984820890999554301542556513652065712326080802130175796173384998872880185690452489426942247024696075211237001169429424109167247722405674340234027011305072827194070450180014397023203921839133197429551307368620777840549220497221484544.000000,0.002000,0.000000
473.000000,0.002000,-14.348733,0.825862,10.356298,-1.376192,-0.303622,0.549341,0.051589,-0.002778,-0.037335,32895848833433589310216513345131757722847158778981559781089416713095354576277103102387347661763285522598404600892217393250566144.000000,0.002000,0.000000
474.000000,0.002000,0.692335,0.665892,-0.070988,0.194764,-0.818282,2.617251,-8.914961,-7.892722,0.550174,0.000000,0.002000,0.000000
475.000000,0.002000,0.072123,0.577112,0.387781,3.260919,1.307226,1.577623,-2.553921,-13.477025,-11.384580,23199282026650055955938023343150874236121857935228874820990009344.000000,0.002000,0.000000
476.000000,0.002000,0.917581,-0.233908,1.482281,-0.704776,1.752004,-1.267909,-2.315362,0.776741,-3.702410,7649269739382357926899115722632527367222535008443869315354638959061335779274543264575997546208864239616.000000,0.002000,0.000000
477.000000,0.002000,0.214006,0.397396,0.297089,-2.839849,-1.142303,1.376016,-7.338203,-12.274988,-10.935026,687895797985099755013346192050726178700858899269151790592943300135010615225721601817620991527496207787214156647628800.000000,0.002000,0.000000
478.000000,0.002000,-0.395145,3.198275,-1.377512,-0.288216,-2.189678,0.971901,0.195570,-1.413445,0.604607,407410638140581674882881570188471978089649548023203366821958953768315379241896309599472773857848237935894428667310469548962883091290475452938728473724627398898937696902059657246600921382893725304119463947105917172973568.000000,0.002000,0.000000
479.000000,0.002000,-0.000904,0.446056,0.427598,-2.485695,2.098016,-0.474859,3.190769,-11.671140,-12.874265,2515884874387916778649252513511324226472331535589292725170792707391488.000000,0.002000,0.000000
480.000000,0.002000,-0.930559,-1.772204,-0.674455,-1.424528,-1.309086,0.110547,1.297897,2.842345,0.960515,113953855911675490293932407333701409165901029279055212216615434240986524637750906561478547047583494780983621587706890059134920842837301875689067305268151491061661034366158557302428732763849957035546313532716929315735413930525499539088513608250818560.000000,0.002000,0.000000
481.000000,0.002000,-1.419862,-0.688542,0.073596,1.634682,-0.446963,1.046971,4.715237,2.534480,-0.309107,15347845799662210.000000,0.002000,0.000000
482.000000,0.002000,-0.833162,-0.458020,-1.267265,-0.750503,0.969962,-2.031352,2.898046,1.865672,4.346390,0.000000,0.002000,0.000000
483.000000,0.002000,13.419393,-4.833870,-2.233556,0.666214,-0.248859,-0.037282,-0.088404,0.032358,0.014791,758865924864916077031762560563056968524764928292762489461577182111828315466121396451258492673589248.000000,0.002000,0.000000
484.000000,0.002000,0.226038,0.161264,0.164812,-1.321758,3.683213,-0.934092,-9.913877,-7.513206,-10.520357,5478487375129423167552639592117123532929288932522840669865705582024764908636557345867699074958828714930835054091304960.000000,0.002000,0.000000
485.000000,0.002000,0.097266,-0.123614,0.173427,0.957091,-0.020051,-0.628129,-4.350216,15.645377,-8.530109,104539533901915504.000000,0.002000,0.000000
486.000000,0.002000,-0.511586,-0.482064,0.371376,-1.632051,-2.062772,-3.478740,7.578122,7.743281,-5.700355,1114386630439010338030968164095763219965853308264933793924312593313309400779604570635591134515937318765327244412916958845446461135699266797380601017464826510468802239660422766132690565753134835109042585600.000000,0.002000,0.000000
