# 
#                 columns are tag, mass, x, y, z, vx, vy, vz, ax, ay, az, EK, EU, E
#                 Time=2.000000
# 
1.000000,0.002000,-1.614837,0.682080,0.645753,-1.223894,1.665448,2.135285,3.633630,-1.663935,-1.445288,79.551589,-162.893717,-83.342127
2.000000,0.002000,-1.295635,1.507174,-3.461294,-1.823093,-0.942852,-0.085092,0.406693,-0.470277,1.087684,0.000000,0.000000,0.000000
3.000000,0.002000,-0.822662,0.892450,-0.361271,1.958469,-1.269069,0.349574,5.971002,-5.335559,2.027945,0.000000,0.000000,0.000000
4.000000,0.002000,0.298915,1.125722,0.393986,-0.432940,0.539422,-2.084881,-2.096854,-7.219028,-2.555193,0.000000,0.000000,0.000000
5.000000,0.002000,0.337586,0.153375,-0.331166,0.395699,-0.284153,2.103883,-12.420419,-4.057581,12.750722,0.000000,0.000000,0.000000
6.000000,0.002000,-0.365926,-0.509030,-0.157717,2.314776,-0.309593,2.178479,8.931508,12.422850,3.384585,0.000000,0.000000,0.000000
7.000000,0.002000,-0.079502,-0.216705,1.020635,-0.012998,-2.984322,3.141595,0.783474,1.240124,-9.102401,0.002000,0.029855,0.000000
8.000000,0.002000,0.344735,0.277961,0.241170,1.795785,0.517160,3.941784,-9.699828,-8.672132,-7.373088,0.002000,-0.026678,0.000000
9.000000,0.002000,-0.711437,0.461864,0.036053,-3.950216,2.699712,0.917443,10.852118,-7.942573,-1.809172,0.002000,-1.614837,0.000000
10.000000,0.002000,2.221429,-0.209538,-1.739424,1.409398,0.530574,-0.400564,-1.827416,0.174165,1.484240,0.002000,-1.295635,0.000000
11.000000,0.002000,0.109097,-0.019766,0.334491,1.504088,3.513246,-1.133104,-5.021640,0.228311,-15.312005,0.002000,-0.822662,0.000000
12.000000,0.002000,2.112653,1.672739,0.062113,1.015505,1.302989,0.163298,-1.984042,-1.504847,-0.055298,0.002000,0.298915,0.000000
13.000000,0.002000,0.576446,0.786748,0.181887,-2.033316,0.114760,2.401464,-6.207128,-9.007920,-2.706205,0.002000,0.337586,0.000000
14.000000,0.002000,-1.617439,0.130422,1.565634,-0.503874,-0.587243,-0.412010,2.281656,-0.177011,-2.409292,0.002000,-0.365926,0.000000
15.000000,0.002000,-0.832651,2.102922,0.085526,1.480411,-1.843224,0.398687,1.116562,-2.982730,-0.074911,0.002000,-0.079502,0.000000
16.000000,0.002000,0.495825,-1.177953,-1.756934,0.043615,-2.034557,-0.548460,-0.629808,1.761404,2.757757,0.002000,0.344735,0.000000
17.000000,0.002000,-0.822802,0.751308,-0.029553,0.961570,0.003372,0.464969,6.866956,-6.394295,0.125587,0.002000,-0.711437,0.000000
18.000000,0.002000,-0.593089,-0.694149,-0.053981,-1.887427,-1.144451,1.348118,7.604762,8.682397,0.870055,0.002000,2.221429,0.000000
19.000000,0.002000,-0.048268,0.189684,0.184203,0.385817,0.175773,0.851156,1.955724,-12.377283,-12.616950,0.002000,0.109097,0.000000
20.000000,0.002000,0.038112,-0.381750,-0.095317,2.075054,1.161188,1.170547,-2.413580,15.626446,5.603291,0.002000,2.112653,0.000000
21.000000,0.002000,0.485454,-0.060514,0.052018,-0.726215,-1.863316,-2.713820,-16.985754,4.309138,-4.215657,0.002000,0.576446,0.000000
22.000000,0.002000,0.693337,-0.526230,0.205511,-2.840076,1.590721,-1.012596,-9.080331,7.106810,-3.021221,0.002000,-1.617439,0.000000
23.000000,0.002000,0.612013,-1.303710,-0.697851,-2.255863,0.014496,-1.859853,-1.908107,4.153080,1.983141,0.002000,-0.832651,0.000000
24.000000,0.002000,0.390795,-0.204936,0.014746,-0.753198,3.276101,0.452310,-14.570903,9.930790,-1.337764,0.002000,0.495825,0.000000
25.000000,0.002000,0.208354,0.668429,0.327272,-1.874333,-0.302471,-1.552504,-3.981812,-12.086535,-6.451174,0.002000,-0.822802,0.000000
26.000000,0.002000,1.123257,-0.657523,-1.464746,-0.929290,-0.795545,-0.403647,-2.256849,1.354118,2.902495,0.002000,-0.593089,0.000000
27.000000,0.002000,-0.228174,-0.613191,0.216273,-0.648701,-0.261552,-1.088850,6.111779,14.073868,-4.178187,0.002000,-0.048268,0.000000
28.000000,0.002000,0.145394,0.611420,0.143789,-1.401452,-2.629054,1.123467,-2.605615,-14.406329,-3.569689,0.002000,0.038112,0.000000
29.000000,0.002000,-2.222175,-2.154245,0.516471,-1.759409,-1.576156,1.049732,1.400725,1.347663,-0.310440,0.002000,0.485454,0.000000
30.000000,0.002000,-0.228785,-0.235497,-0.227803,1.750298,0.806924,4.688030,8.752732,10.229016,9.540560,0.002000,0.693337,0.000000
31.000000,0.002000,-0.588959,-0.113121,0.071467,-1.293512,2.101697,0.326310,17.948436,0.643142,-3.775903,0.002000,0.612013,0.000000
32.000000,0.002000,0.286867,-0.128518,0.057478,0.312687,2.169666,2.157781,-12.529401,11.140920,0.015389,0.002000,0.390795,0.000000
33.000000,0.002000,-0.359740,0.699334,-0.768134,-0.489677,-0.021443,-1.318245,2.734014,-6.923401,6.492314,0.002000,0.208354,0.000000
34.000000,0.002000,-1.175976,-0.220450,-1.061312,1.231886,1.594830,-0.061984,3.747021,0.853390,3.160305,0.002000,1.123257,0.000000
35.000000,0.002000,-0.721230,-1.261048,2.206721,-1.085953,-0.503609,0.903315,0.696321,1.109106,-2.179627,0.002000,-0.228174,0.000000
36.000000,0.002000,-0.952945,-1.452428,2.132749,0.320237,-1.144781,1.049132,0.866899,1.320517,-1.906683,0.002000,0.145394,0.000000
37.000000,0.002000,-2.121216,-2.157485,0.761720,-1.194159,-1.465658,1.471349,1.340044,1.367235,-0.524747,0.002000,-2.222175,0.000000
38.000000,0.002000,-0.494933,-0.385512,0.228637,3.909934,1.385540,1.333061,10.446889,9.185532,-4.626862,0.002000,-0.228785,0.000000
39.000000,0.002000,-0.109979,0.379482,-0.438305,-0.739924,1.015977,2.197730,0.868027,-12.646762,15.610036,0.002000,-0.588959,0.000000
40.000000,0.002000,1.059045,-0.508845,0.568154,-1.584721,1.424164,0.234608,-5.885677,2.851603,-3.157704,0.002000,0.286867,0.000000
41.000000,0.002000,-0.261038,-0.143447,0.824666,-1.275868,1.020560,2.280061,3.118567,1.511098,-11.478822,0.002000,-0.359740,0.000000
42.000000,0.002000,-0.171775,-0.167748,0.502814,-2.932386,3.469159,-3.136087,4.847134,5.399061,-17.155034,0.002000,-1.175976,0.000000
43.000000,0.002000,-1.648441,-0.605956,1.235140,-1.169525,1.537687,1.272526,2.613288,1.072954,-1.905969,0.002000,-0.721230,0.000000
44.000000,0.002000,-0.394827,-0.055873,0.380783,0.348304,-2.403171,1.562370,11.026350,0.697311,-13.169964,0.002000,-0.952945,0.000000
45.000000,0.002000,0.365597,0.037920,0.246100,0.474247,-0.869256,-3.589794,-15.581948,-1.202472,-10.176640,0.002000,-2.121216,0.000000
46.000000,0.002000,0.457037,-0.195167,0.343358,1.409946,0.736190,-1.092544,-13.105292,5.195321,-10.088735,0.002000,-0.494933,0.000000
47.000000,0.002000,-1.366188,0.222854,0.889116,0.891291,-0.698521,-1.220723,4.123627,-0.709409,-2.768128,0.002000,-0.109979,0.000000
48.000000,0.002000,0.216469,-0.524146,-0.177210,1.691339,-1.337668,0.488916,-7.099948,17.684404,0.677817,0.002000,1.059045,0.000000
49.000000,0.002000,-2.189818,-0.740867,0.159018,-2.541089,-0.664104,-0.171473,3.100269,1.087446,-0.303780,0.002000,-0.261038,0.000000
50.000000,0.002000,0.713581,0.052377,0.426658,1.149272,1.540284,1.930835,-10.743727,0.509812,-5.812302,0.002000,-0.171775,0.000000
51.000000,0.002000,-0.561888,0.823623,-0.381505,0.549475,-1.881988,0.880516,3.195536,-5.596679,2.877926,0.002000,-1.648441,0.000000
52.000000,0.002000,0.325429,-0.019974,0.697913,-0.902703,-0.359235,1.897742,-4.159684,1.203487,-11.804241,0.002000,-0.394827,0.000000
53.000000,0.002000,0.254955,-0.789128,-0.596141,0.093605,-1.755853,-1.235893,-2.233751,8.254109,5.381068,0.002000,0.365597,0.000000
54.000000,0.002000,0.904222,0.543661,0.942164,-1.809755,-1.173958,0.842718,-4.109462,-2.274851,-4.270767,0.002000,0.457037,0.000000
55.000000,0.002000,-0.470104,0.088430,-0.023592,-2.012524,0.637227,-2.387585,19.301075,-4.155637,2.600308,0.002000,-1.366188,0.000000
56.000000,0.002000,-0.155522,0.493189,-0.706000,-0.481921,0.001367,1.981682,1.568493,-6.996792,9.952126,0.002000,0.216469,0.000000
57.000000,0.002000,-0.933876,0.032636,-0.452056,-1.399139,3.379405,2.318136,9.062621,0.075570,4.667930,0.002000,-2.189818,0.000000
58.000000,0.002000,-0.682819,-2.002844,-0.699951,-0.487113,-1.617377,-1.301472,0.998921,2.969981,0.859508,0.002000,0.713581,0.000000
59.000000,0.002000,0.423871,-0.264308,-0.195887,-0.161421,0.584610,-3.341864,-14.454823,6.669092,0.506635,0.002000,-0.561888,0.000000
60.000000,0.002000,-0.230093,0.093458,-0.164104,1.507862,0.574653,-0.309239,10.691029,-6.394197,8.991778,0.002000,0.325429,0.000000
61.000000,0.002000,-0.580417,0.503335,0.443129,1.673510,1.217923,0.027588,7.997103,-6.426397,-6.299314,0.002000,0.254955,0.000000
62.000000,0.002000,-0.370946,-0.304529,2.819193,-1.416958,-0.043081,1.935454,0.324793,0.235376,-2.281455,0.002000,0.904222,0.000000
63.000000,0.002000,-0.333532,0.119092,-0.220854,-1.905032,0.577555,-1.002852,15.421769,-6.147754,9.797575,0.002000,-0.470104,0.000000
64.000000,0.002000,0.478061,0.684822,0.405080,-0.936542,2.493658,0.138012,-5.763221,-8.009118,-5.119432,0.002000,-0.155522,0.000000
65.000000,0.002000,0.440185,-0.747149,0.600614,1.449784,2.309387,-0.183003,-4.283478,6.153742,-5.458140,0.002000,-0.933876,0.000000
66.000000,0.002000,-0.026226,0.205930,0.277769,-4.895724,0.179709,-1.542971,0.603102,-4.543827,-16.374894,0.002000,-0.682819,0.000000
67.000000,0.002000,-0.460975,-0.389179,0.108549,-2.303898,-4.557793,1.585689,11.621492,11.455689,-3.180546,0.002000,0.423871,0.000000
68.000000,0.002000,-0.739139,1.530717,-0.732292,0.093847,0.585448,1.428741,1.680943,-3.462485,1.475968,0.002000,-0.230093,0.000000
69.000000,0.002000,-0.495103,0.912849,-0.113273,2.905090,1.547532,2.743719,4.860464,-8.739619,1.109854,0.002000,-0.580417,0.000000
70.000000,0.002000,-0.809603,0.480687,-0.058957,1.070559,-2.157204,2.121698,10.634186,-6.161515,0.735743,0.002000,-0.370946,0.000000
71.000000,0.002000,-0.255164,-0.530843,0.232550,-2.583207,-1.922138,-2.363471,6.556206,12.412687,-3.343106,0.002000,-0.333532,0.000000
72.000000,0.002000,-0.096443,-0.350515,0.382108,0.867392,-0.820435,4.259308,5.010904,7.125347,-15.933235,0.002000,0.478061,0.000000
73.000000,0.002000,-0.496347,0.343977,-1.091380,-2.249800,2.203225,-2.185815,2.171182,-2.632077,7.304907,0.002000,0.440185,0.000000
74.000000,0.002000,-0.028023,-0.200554,-0.098392,0.147246,-3.346365,-2.181065,-1.470401,13.630870,7.701054,0.002000,-0.026226,0.000000
75.000000,0.002000,-2.347862,0.193700,0.986878,-1.855094,0.529232,-0.498299,2.600643,-0.140419,-1.084614,0.002000,-0.460975,0.000000
76.000000,0.002000,0.703820,-0.420024,-0.324871,1.241519,-1.227376,-1.157376,-9.895025,5.889147,4.642342,0.002000,-0.739139,0.000000
77.000000,0.002000,-0.804353,-0.300129,0.094793,1.655479,0.863874,1.002329,11.679458,5.465808,-1.226451,0.002000,-0.495103,0.000000
78.000000,0.002000,0.520456,0.711520,0.229037,0.386688,0.271203,-1.686944,-6.441870,-9.013519,-3.284295,0.002000,-0.809603,0.000000
79.000000,0.002000,-0.620327,-0.694092,-0.404965,1.626080,-0.828230,-1.439347,6.642984,7.363120,3.590692,0.002000,-0.255164,0.000000
80.000000,0.002000,0.916434,1.064167,-0.797779,-0.420671,3.308138,-1.123552,-3.105203,-3.369812,2.445861,0.002000,-0.096443,0.000000
81.000000,0.002000,-0.266014,-0.165491,-0.014912,-0.802378,-0.195288,-0.056801,15.557523,11.771917,2.053062,0.002000,-0.496347,0.000000
82.000000,0.002000,0.587557,0.445011,-1.211057,-1.773565,-1.324940,-0.253555,-2.507316,-1.799184,5.606187,0.002000,-0.028023,0.000000
83.000000,0.002000,0.625620,0.708180,-0.738404,1.430408,0.032458,2.283808,-4.330087,-4.722153,4.791991,0.002000,-2.347862,0.000000
84.000000,0.002000,2.205552,0.769263,0.175176,0.213952,0.529879,-0.379364,-2.894283,-1.164176,-0.427682,0.002000,0.703820,0.000000
85.000000,0.002000,0.761035,-0.915593,1.091899,-0.146119,-0.663743,2.401311,-2.344050,2.880037,-3.311662,0.002000,-0.804353,0.000000
86.000000,0.002000,-0.366124,0.661381,-0.646638,-0.762749,0.640123,2.338432,3.957125,-7.200315,6.417465,0.002000,0.520456,0.000000
87.000000,0.002000,-0.557644,-0.531106,-0.666916,-0.289516,-2.150452,-1.262910,5.302116,5.625036,6.409541,0.002000,-0.620327,0.000000
88.000000,0.002000,0.295945,0.156813,0.076548,0.799627,-3.935648,0.846163,-11.182926,-2.977538,-6.823561,0.002000,0.916434,0.000000
89.000000,0.002000,0.275368,-2.324881,-0.683952,-0.981336,-0.770827,0.066489,-0.378360,2.749159,0.852566,0.002000,-0.266014,0.000000
90.000000,0.002000,0.009205,0.066890,-0.136065,-0.997989,0.974014,1.003921,2.064180,1.295615,5.703786,0.002000,0.587557,0.000000
91.000000,0.002000,-0.056996,1.439258,-0.725758,-1.985629,-0.225906,-3.323621,0.368907,-4.555407,2.391299,0.002000,0.625620,0.000000
92.000000,0.002000,0.480731,-0.728143,-0.539861,-0.304052,0.356424,0.083224,-4.641542,7.430077,5.087474,0.002000,2.205552,0.000000
93.000000,0.002000,1.722568,-1.445555,0.730253,1.630837,-1.098874,-1.103002,-2.095005,1.840864,-0.969964,0.002000,0.761035,0.000000
94.000000,0.002000,-1.225206,0.582929,0.278513,-1.962189,1.927224,2.425191,5.742916,-2.796262,-1.260917,0.002000,-0.366124,0.000000
95.000000,0.002000,-0.064310,-0.961470,-0.244353,-0.429701,2.883642,0.655557,0.765825,9.789694,2.752291,0.002000,-0.557644,0.000000
96.000000,0.002000,0.581668,-0.328959,0.796009,0.986851,0.050108,0.811079,-5.265225,3.311951,-7.338650,0.002000,0.295945,0.000000
97.000000,0.002000,-0.659594,-0.146527,-0.020354,2.209621,-1.952977,1.168228,15.828936,4.381930,1.063890,0.002000,0.275368,0.000000
98.000000,0.002000,0.299178,-1.508012,1.491432,0.264788,-1.621865,2.173464,-0.495301,2.354961,-2.309522,0.002000,0.009205,0.000000
99.000000,0.002000,-0.049653,0.294167,0.199965,-0.432696,-0.274754,1.536471,2.811850,-12.532211,-11.163964,0.002000,-0.056996,0.000000
100.000000,0.002000,-0.211714,0.183692,-0.051269,-2.056990,3.542035,-1.642365,12.813763,-12.454355,4.999272,0.002000,0.480731,0.000000
101.000000,0.002000,0.222645,0.693416,-0.785887,1.912943,-0.527459,-1.391941,-1.966247,-5.925726,6.971383,0.002000,1.722568,0.000000
102.000000,0.002000,0.461400,-0.490716,0.279369,1.718700,-0.310044,-2.289988,-8.415035,9.973605,-5.764513,0.002000,-1.225206,0.000000
103.000000,0.002000,0.437299,2.322690,-1.690396,-0.187381,1.222669,-0.869344,-0.300849,-1.827107,1.363664,0.002000,-0.064310,0.000000
104.000000,0.002000,0.089797,-0.107301,-0.361828,1.605418,-3.070403,2.118506,-5.045230,5.383531,16.556997,0.002000,0.581668,0.000000
105.000000,0.002000,0.478064,0.877319,-0.732314,-2.789537,-1.149848,-1.942148,-3.186719,-5.485127,4.258631,0.002000,-0.659594,0.000000
106.000000,0.002000,0.205821,0.206044,-0.034192,0.374146,1.411049,1.024406,-9.790486,-10.336578,3.850287,0.002000,0.299178,0.000000
107.000000,0.002000,0.107744,0.349884,-0.285570,-1.458217,-1.274978,-0.320260,-9.258897,-10.153457,13.102518,0.002000,-0.049653,0.000000
108.000000,0.002000,-0.817658,-0.112269,-0.768560,-1.001591,-0.522414,-0.787872,6.403552,1.041409,6.299535,0.002000,-0.211714,0.000000
109.000000,0.002000,-0.122444,-0.344229,0.347860,-3.007257,0.076472,-1.301174,5.381351,12.784652,-11.461761,0.002000,0.222645,0.000000
110.000000,0.002000,0.633901,-0.040383,0.854570,-3.435588,0.841294,-2.398759,-6.228462,0.809121,-7.789537,0.002000,0.461400,0.000000
111.000000,0.002000,-0.537609,0.218155,-0.028832,-2.427865,-1.798814,1.827740,14.533013,-6.529147,0.758953,0.002000,0.437299,0.000000
112.000000,0.002000,2.801304,1.235602,0.541339,1.314334,-0.124633,0.552844,-1.829723,-0.802266,-0.360762,0.002000,0.089797,0.000000
113.000000,0.002000,-2.387235,-3.018257,-3.504889,0.430822,-1.284248,-0.684614,0.338956,0.429124,0.498281,0.002000,0.478064,0.000000
114.000000,0.002000,-0.042535,1.010002,0.798745,-1.562131,-0.462403,0.769736,0.290890,-6.001920,-4.382439,0.002000,0.205821,0.000000
115.000000,0.002000,0.601618,0.191393,0.285475,1.205516,-0.274310,0.684479,-12.648625,-2.831519,-5.893322,0.002000,0.107744,0.000000
116.000000,0.002000,0.047615,0.035982,-0.023558,-0.062181,1.611484,-0.823836,-2.215717,-0.822682,-2.909723,0.002000,-0.817658,0.000000
117.000000,0.002000,-0.548962,0.133357,-0.050487,1.807222,1.289595,-2.351309,16.504759,-4.564207,0.369998,0.002000,-0.122444,0.000000
118.000000,0.002000,0.032318,0.799406,0.694852,1.053375,-0.883283,0.302957,-0.482228,-7.214529,-6.285506,0.002000,0.633901,0.000000
119.000000,0.002000,1.383091,1.561913,0.299526,-0.384675,0.056117,-0.844687,-2.297235,-2.518517,-0.429755,0.002000,-0.537609,0.000000
120.000000,0.002000,-0.072810,-0.169769,0.207263,-1.703581,-2.571252,-1.602591,2.519919,10.551761,-13.924762,0.002000,2.801304,0.000000
121.000000,0.002000,-0.609420,-0.369253,-0.400704,-0.652257,-1.658121,0.478145,8.285523,5.654066,6.055944,0.002000,-2.387235,0.000000
122.000000,0.002000,0.172292,0.155218,-0.008151,-0.570988,0.600223,-1.275743,-9.237855,-7.673340,0.433369,0.002000,-0.042535,0.000000
123.000000,0.002000,-0.967666,1.380392,-0.941873,-0.195713,-0.684650,-0.099529,1.857038,-2.671174,2.058319,0.002000,0.601618,0.000000
124.000000,0.002000,0.267103,-0.172523,-0.375757,0.081852,0.189844,3.747301,-10.447332,4.667100,12.526139,0.002000,0.047615,0.000000
125.000000,0.002000,0.010600,-0.038780,0.697544,-1.626754,0.339404,3.305918,-0.631004,0.299359,-14.255401,0.002000,-0.548962,0.000000
126.000000,0.002000,-0.311781,-1.242273,0.234966,-0.278746,-3.357900,-1.805248,1.594228,6.739327,-1.464690,0.002000,0.032318,0.000000
127.000000,0.002000,1.830698,-0.638640,-0.886348,0.627773,0.649503,-1.978156,-3.006798,1.064983,1.383490,0.002000,1.383091,0.000000
128.000000,0.002000,-0.059766,-0.410130,-0.081242,-0.322822,5.838895,1.858792,1.761541,19.893465,3.638200,0.002000,-0.072810,0.000000
129.000000,0.002000,-1.248626,0.982493,0.558349,0.423287,-1.321116,-0.683760,3.431813,-2.822640,-1.555671,0.002000,-0.609420,0.000000
130.000000,0.002000,0.725439,0.531338,0.471497,-2.971305,0.232245,-1.177080,-6.576408,-6.611565,-5.557313,0.002000,0.172292,0.000000
131.000000,0.002000,-0.558548,0.041875,0.627072,0.364666,-1.446563,0.699353,8.139770,0.292669,-11.728081,0.002000,-0.967666,0.000000
132.000000,0.002000,0.047422,-0.761617,0.440295,2.573464,-0.058323,1.476600,-2.761659,10.391809,-5.418450,0.002000,0.267103,0.000000
133.000000,0.002000,1.791389,-1.253338,-0.251782,2.200679,0.067115,1.304162,-2.684926,1.749366,0.245425,0.002000,0.010600,0.000000
134.000000,0.002000,-1.519603,0.960668,-0.880340,-1.253358,0.627344,-2.277419,2.790516,-1.855468,1.773780,0.002000,-0.311781,0.000000
135.000000,0.002000,-0.807489,-2.440013,0.607425,-0.182667,-1.685806,-0.445966,0.842618,2.308756,-0.731267,0.002000,1.830698,0.000000
136.000000,0.002000,-0.308629,-0.412052,0.326980,0.675830,2.118899,-0.354866,7.868193,9.910450,-8.278069,0.002000,-0.059766,0.000000
137.000000,0.002000,0.331833,0.673150,0.039569,-0.971360,-1.580059,2.072803,-6.309115,-12.669743,-1.160826,0.002000,-1.248626,0.000000
138.000000,0.002000,-0.149283,-2.045134,-0.315339,0.995549,-0.604593,-0.203279,0.212959,3.423685,0.398084,0.002000,0.725439,0.000000
139.000000,0.002000,1.363275,-0.258485,-0.002129,0.708348,-1.174804,-0.233018,-5.514154,0.627983,0.345153,0.002000,-0.558548,0.000000
140.000000,0.002000,-1.122438,-1.281427,1.155625,-0.211461,0.896995,2.225442,1.960851,2.457127,-1.993445,0.002000,0.047422,0.000000
141.000000,0.002000,-0.001426,-1.568854,0.723606,1.149231,-3.236129,-0.609544,-0.051393,4.208337,-1.953203,0.002000,1.791389,0.000000
142.000000,0.002000,-0.193628,0.338854,-0.012625,1.725525,-3.190661,0.053434,8.913782,-13.635333,-2.868824,0.002000,-1.519603,0.000000
143.000000,0.002000,0.069482,3.201381,0.783113,0.345971,2.304580,0.608824,-0.038321,-1.762147,-0.431078,0.002000,-0.807489,0.000000
144.000000,0.002000,0.013013,-0.433775,0.554615,0.396910,-2.076113,0.263306,0.564370,8.361655,-11.668499,0.002000,-0.308629,0.000000
145.000000,0.002000,-0.433007,-0.279431,0.432863,-1.954488,0.366840,-2.486406,8.604092,7.689606,-11.131376,0.002000,0.331833,0.000000
146.000000,0.002000,0.037575,-0.119942,-0.409060,-0.108434,1.569590,1.956113,-3.609910,4.144727,17.441995,0.002000,-0.149283,0.000000
147.000000,0.002000,-0.276902,0.643319,0.402980,-1.923664,-0.133282,0.564459,4.865632,-10.768006,-6.509237,0.002000,1.363275,0.000000
148.000000,0.002000,0.885305,1.263164,-1.589082,-0.274688,0.840300,-0.891506,-1.456906,-1.938650,2.398537,0.002000,-1.122438,0.000000
149.000000,0.002000,0.391710,0.001362,-0.184535,0.116036,0.508778,-1.801210,-18.005202,0.520403,8.349556,0.002000,-0.001426,0.000000
150.000000,0.002000,0.626423,0.463783,0.017876,-1.240075,1.064829,-2.026707,-11.769350,-8.242178,-0.072028,0.002000,-0.193628,0.000000
151.000000,0.002000,0.037475,-1.484205,-0.886065,-0.832148,0.940322,0.562585,-0.505507,3.976846,2.677621,0.002000,0.069482,0.000000
152.000000,0.002000,0.265436,-0.340161,0.855590,-1.469522,3.026244,0.018621,-3.096288,3.886580,-9.031816,0.002000,0.013013,0.000000
153.000000,0.002000,1.824407,0.188968,0.938501,-0.277473,-1.245404,0.051781,-2.918913,-0.159970,-1.931387,0.002000,-0.433007,0.000000
154.000000,0.002000,-0.458783,0.013966,-0.832753,0.248123,0.563458,0.975213,5.117698,0.176820,11.036200,0.002000,0.037575,0.000000
155.000000,0.002000,0.153602,0.083337,-0.024663,1.449471,0.049451,1.395441,-11.227680,-4.335416,0.837375,0.002000,-0.276902,0.000000
156.000000,0.002000,-1.927630,0.213103,-1.739992,-0.443843,-0.445473,-2.639663,2.077806,-0.228946,1.830908,0.002000,0.885305,0.000000
157.000000,0.002000,2.433155,1.337154,1.798889,1.079572,1.049936,0.736877,-1.333084,-0.721610,-0.966072,0.002000,0.391710,0.000000
158.000000,0.002000,-0.012087,0.072346,-0.212200,-4.012916,-1.103440,-0.686385,-0.624325,-2.482948,13.895083,0.002000,0.626423,0.000000
159.000000,0.002000,0.129793,0.132400,1.150061,2.331712,0.967134,-1.593217,-0.787786,-0.575652,-8.259110,0.002000,0.037475,0.000000
160.000000,0.002000,1.638756,-0.009374,1.293372,-0.405504,0.777378,0.307012,-2.744828,0.110031,-2.207970,0.002000,0.265436,0.000000
161.000000,0.002000,0.095180,-0.754789,-0.302345,-1.474953,-1.958389,0.984413,-1.795045,11.420669,5.348135,0.002000,1.824407,0.000000
162.000000,0.002000,-0.150758,-1.266786,1.131448,-1.303598,-3.360274,-0.509803,0.363922,3.474794,-3.103237,0.002000,-0.458783,0.000000
163.000000,0.002000,-0.432581,-1.422328,-1.019146,0.793406,-2.012965,-1.808288,1.037219,3.384439,2.488262,0.002000,0.153602,0.000000
164.000000,0.002000,0.347413,-0.247599,-0.351519,-0.526912,-2.259871,0.333038,-10.814728,4.995781,10.582427,0.002000,-1.927630,0.000000
165.000000,0.002000,-0.681454,-3.042830,-0.468396,-0.161893,-2.432974,0.678063,0.379813,1.938709,0.341970,0.002000,2.433155,0.000000
166.000000,0.002000,0.242973,-1.538516,0.759153,-0.519278,0.042475,-1.225703,-0.747731,4.084331,-2.052616,0.002000,-0.012087,0.000000
167.000000,0.002000,-0.579647,-0.097680,0.117776,1.031512,0.625388,-4.185751,15.398994,3.353338,-4.555677,0.002000,0.129793,0.000000
168.000000,0.002000,0.036865,0.332391,-0.225750,0.135072,-0.721930,-0.169592,-1.368258,-13.853198,10.033118,0.002000,1.638756,0.000000
169.000000,0.002000,0.141237,-0.107351,0.811078,-0.955702,-0.035661,-3.462905,-1.811080,1.822788,-11.944115,0.002000,0.095180,0.000000
170.000000,0.002000,0.552503,1.930648,-1.739375,-0.131062,1.506816,-1.213112,-0.579237,-1.887929,1.670084,0.002000,-0.150758,0.000000
171.000000,0.002000,-1.968709,-0.164647,-0.369915,-1.835427,0.898041,-1.430605,3.674335,0.201332,0.707382,0.002000,-0.432581,0.000000
172.000000,0.002000,1.759217,-1.089453,1.273859,0.844181,-1.793372,1.678401,-2.068892,1.328666,-1.500869,0.002000,0.347413,0.000000
173.000000,0.002000,-0.458328,-0.119480,-0.007247,3.248055,-2.114532,-0.680149,16.014846,7.408021,0.488877,0.002000,-0.681454,0.000000
174.000000,0.002000,-0.922085,-1.600900,0.438434,0.144026,-2.811844,-0.205026,2.006865,3.369135,-1.111264,0.002000,0.242973,0.000000
175.000000,0.002000,-0.643573,-1.502095,-0.473890,-2.015209,0.184283,1.021336,1.729562,4.185608,1.328128,0.002000,-0.579647,0.000000
176.000000,0.002000,-1.016057,-1.808650,0.944056,-0.733988,0.531688,1.161141,1.327109,2.784525,-1.505635,0.002000,0.036865,0.000000
177.000000,0.002000,1.559510,-0.734465,1.279777,1.416696,-3.248845,-0.411608,-2.590937,1.238787,-1.982766,0.002000,0.141237,0.000000
178.000000,0.002000,0.309467,0.074225,-0.325670,-1.153050,2.285552,0.780643,-11.853946,-1.458293,11.498096,0.002000,0.552503,0.000000
179.000000,0.002000,-0.083315,-0.514092,0.823809,1.347346,0.906475,-0.474762,0.746038,5.552322,-8.821740,0.002000,-1.968709,0.000000
180.000000,0.002000,0.026764,0.317210,-0.121442,-1.591338,2.308811,-2.476723,-1.665481,-16.395137,7.514476,0.002000,1.759217,0.000000
181.000000,0.002000,0.485278,-0.279023,1.354409,-0.423812,-1.044989,-1.604063,-2.074088,1.249133,-5.394966,0.002000,-0.458328,0.000000
182.000000,0.002000,-0.732248,-0.769415,-0.451750,-1.265119,3.068601,2.267880,5.837495,6.046837,3.396472,0.002000,-0.922085,0.000000
183.000000,0.002000,-0.561436,0.967270,-1.666819,-0.141378,-1.041362,-3.356717,0.967745,-1.814508,3.136040,0.002000,-0.643573,0.000000
184.000000,0.002000,0.426341,-0.255442,-0.796452,1.348679,-0.154598,1.034346,-5.182518,2.511100,7.875401,0.002000,-1.016057,0.000000
185.000000,0.002000,0.023088,0.591600,-0.369529,1.695990,-3.556557,0.779412,-0.527726,-11.954242,8.852174,0.002000,1.559510,0.000000
186.000000,0.002000,0.136812,0.618660,0.858854,-2.760653,2.065504,-2.777797,-1.212833,-5.272114,-7.756419,0.002000,0.309467,0.000000
187.000000,0.002000,0.972558,-0.328509,-0.986315,2.339227,-2.042550,-1.602859,-4.126341,1.318514,4.266335,0.002000,-0.083315,0.000000
188.000000,0.002000,-0.099475,0.764261,0.035516,0.261400,1.037787,3.254658,2.506762,-15.013934,-3.714153,0.002000,0.026764,0.000000
189.000000,0.002000,-0.567546,3.576272,0.174088,0.734447,-0.061949,-0.340638,0.231370,-1.495740,-0.069779,0.002000,0.485278,0.000000
190.000000,0.002000,0.206567,0.507937,0.253101,1.658798,-0.568674,0.861100,-5.536133,-15.110745,-7.810173,0.002000,-0.732248,0.000000
191.000000,0.002000,-0.093456,0.115285,0.036174,2.194264,3.589386,-2.328705,4.005228,-7.585869,-4.338989,0.002000,-0.561436,0.000000
192.000000,0.002000,-0.090603,0.348252,-0.358022,3.718058,-1.579526,2.441771,2.477698,-12.248871,11.573979,0.002000,0.426341,0.000000
193.000000,0.002000,-0.166660,0.611260,0.192638,-0.660384,-0.708979,-0.555102,3.672802,-15.208583,-5.370296,0.002000,0.023088,0.000000
194.000000,0.002000,-2.229406,-0.492262,1.295262,-1.511025,-1.639991,0.889946,2.226782,0.581911,-1.350442,0.002000,0.136812,0.000000
195.000000,0.002000,-0.143455,0.332141,-0.757262,-2.024638,-0.407233,2.905973,1.597319,-4.619372,12.052055,0.002000,0.972558,0.000000
196.000000,0.002000,0.346390,-0.261394,-0.027371,-2.877360,-1.301664,1.881254,-16.057073,10.658263,0.972415,0.002000,-0.099475,0.000000
197.000000,0.002000,0.052661,-5.753282,-0.804054,0.240900,-0.581450,-0.641487,-0.006538,0.583275,0.080506,0.002000,-0.567546,0.000000
198.000000,0.002000,-0.097415,-0.104987,-0.173659,2.763318,0.019185,-2.980214,2.131259,10.309306,11.771930,0.002000,0.206567,0.000000
199.000000,0.002000,-0.186278,-0.230361,0.295639,1.177245,-1.244878,-3.469249,7.521082,7.284194,-11.996958,0.002000,-0.093456,0.000000
200.000000,0.002000,0.023271,0.383463,-0.031702,-1.697363,-1.562209,-3.221956,-1.055334,-17.678585,1.231258,0.002000,-0.090603,0.000000
201.000000,0.002000,1.876558,-0.767986,1.623309,1.354583,-0.586402,1.314145,-1.883563,0.803716,-1.578160,0.002000,-0.166660,0.000000
202.000000,0.002000,1.257575,2.040515,0.456560,0.808698,0.388203,-0.022172,-1.586223,-2.322504,-0.649226,0.002000,-2.229406,0.000000
203.000000,0.002000,0.128361,-0.268409,-0.508117,0.956415,2.506816,-3.221851,-4.370566,7.054592,14.656953,0.002000,-0.143455,0.000000
204.000000,0.002000,-0.662878,-0.553060,-0.704472,2.658899,-1.241793,0.483971,5.432998,4.922601,5.532761,0.002000,0.346390,0.000000
205.000000,0.002000,0.381752,0.500507,-0.205676,-0.468838,-3.332973,-2.276089,-9.104750,-11.594226,4.989327,0.002000,0.052661,0.000000
206.000000,0.002000,0.405033,-0.081695,0.358956,1.003243,0.993885,0.250002,-12.897127,2.609684,-11.310296,0.002000,-0.097415,0.000000
207.000000,0.002000,-2.257988,1.720965,-0.994823,-1.656348,1.066527,-0.597892,1.634100,-1.221605,0.705199,0.002000,-0.186278,0.000000
208.000000,0.002000,-0.410823,0.670409,0.515409,0.650023,0.673022,1.316022,4.680036,-7.553665,-6.051558,0.002000,0.023271,0.000000
209.000000,0.002000,-0.405709,-0.096731,-0.330059,-0.190654,-1.903903,1.400468,13.434281,4.060730,11.675787,0.002000,1.876558,0.000000
210.000000,0.002000,0.897271,-0.266209,0.630593,0.420909,1.019053,-2.582389,-6.895165,2.066965,-5.281967,0.002000,1.257575,0.000000
211.000000,0.002000,0.287482,-0.432980,0.158651,-1.256290,-0.162822,0.446285,-9.078477,11.969453,-5.635699,0.002000,0.128361,0.000000
212.000000,0.002000,-0.143621,-0.189633,0.261508,0.116479,-0.262640,-0.860393,4.718560,11.627601,-12.351605,0.002000,-0.662878,0.000000
213.000000,0.002000,0.331041,-0.142494,-0.211507,0.901487,-1.950774,3.526903,-13.349770,4.412570,9.612908,0.002000,0.381752,0.000000
214.000000,0.002000,0.771043,-1.721407,-1.673441,1.216820,-1.004777,-0.082449,-0.902563,2.064653,1.882119,0.002000,0.405033,0.000000
215.000000,0.002000,1.178283,-1.091600,0.644979,0.116654,-0.280617,-1.797974,-3.121413,2.825776,-1.819661,0.002000,-2.257988,0.000000
216.000000,0.002000,0.025287,-0.461213,0.184814,0.205629,-1.796680,3.758968,-1.106827,16.679358,-6.493579,0.002000,-0.410823,0.000000
217.000000,0.002000,0.427352,0.631739,-1.546598,-0.755079,0.853195,1.136129,-1.289019,-1.687413,4.283735,0.002000,-0.405709,0.000000
218.000000,0.002000,0.793635,-1.373636,-1.272007,-1.593075,-2.121207,-1.677995,-1.303915,2.576459,1.881940,0.002000,0.897271,0.000000
219.000000,0.002000,0.085364,0.113564,0.095700,-1.796886,-1.552186,1.880317,-6.267676,-8.928156,-7.240471,0.002000,0.287482,0.000000
220.000000,0.002000,-0.330310,0.206466,1.809566,-0.681849,-0.270619,-0.712867,0.677030,-0.537447,-4.261383,0.002000,-0.143621,0.000000
221.000000,0.002000,0.500940,-0.648747,-0.587320,0.147208,4.214061,0.673867,-5.100994,6.615488,5.796682,0.002000,0.331041,0.000000
222.000000,0.002000,0.067157,-0.183481,-0.293309,-2.243405,1.283735,-0.224252,-4.507340,10.376646,16.983731,0.002000,0.771043,0.000000
223.000000,0.002000,0.096263,-0.516173,0.509907,1.457614,-4.696674,1.463062,-4.200510,10.674188,-11.070170,0.002000,1.178283,0.000000
224.000000,0.002000,-0.330939,2.203182,-0.186471,0.040504,1.797138,-1.835201,0.516146,-3.155962,0.235633,0.002000,0.025287,0.000000
225.000000,0.002000,-0.172658,-0.541921,0.498434,-2.335031,1.677732,-2.827938,2.601732,10.360406,-10.619795,0.002000,0.427352,0.000000
226.000000,0.002000,-0.641636,0.093844,-0.411821,-0.541136,-0.569479,-0.016595,11.608333,-1.620888,8.628311,0.002000,0.793635,0.000000
227.000000,0.002000,0.393594,0.738565,0.372644,-1.547585,-1.055906,-0.020094,-5.441912,-8.611307,-4.186507,0.002000,0.085364,0.000000
228.000000,0.002000,-0.319052,0.021854,-1.300931,2.506753,2.340227,-1.295305,1.498338,0.046069,6.594133,0.002000,-0.330310,0.000000
229.000000,0.002000,2.951861,-3.730270,1.776198,1.477401,0.280885,-0.585870,-0.442521,0.561292,-0.271375,0.002000,0.500940,0.000000
230.000000,0.002000,0.082053,-1.489429,-2.245011,-0.628452,-1.941775,-1.731136,-0.125394,1.416773,2.052455,0.002000,0.067157,0.000000
231.000000,0.002000,0.486148,0.193694,0.000181,-3.663736,0.399506,-2.932731,-16.528080,-5.824766,-1.041698,0.002000,0.096263,0.000000
232.000000,0.002000,1.216735,0.873817,-0.698508,-1.141702,-0.642226,0.780390,-3.692174,-2.689345,2.000411,0.002000,-0.330939,0.000000
233.000000,0.002000,0.105549,0.491385,0.276750,-0.974149,-2.700730,-0.211933,-3.268028,-15.447643,-7.510474,0.002000,-0.172658,0.000000
234.000000,0.002000,0.375331,1.572780,-1.663300,0.676220,-0.628819,-1.221895,-0.505726,-2.006627,2.205477,0.002000,-0.641636,0.000000
235.000000,0.002000,-0.642313,-1.284597,0.487928,-0.261062,1.767748,-0.324627,2.512434,4.835812,-1.994572,0.002000,0.393594,0.000000
236.000000,0.002000,-1.045279,1.382472,-1.664453,0.879022,1.711780,-1.198407,1.345258,-1.747248,2.011994,0.002000,-0.319052,0.000000
237.000000,0.002000,-0.270228,-0.608475,-0.091901,-3.123180,-0.498372,2.046764,7.533884,10.842819,-0.628955,0.002000,2.951861,0.000000
238.000000,0.002000,-0.187536,0.679611,0.240637,1.683006,2.190555,0.281319,3.381860,-13.132472,-5.009998,0.002000,0.082053,0.000000
239.000000,0.002000,0.421707,-0.474074,-0.344943,0.338519,3.971194,0.036804,-9.417419,10.219713,7.094066,0.002000,0.486148,0.000000
240.000000,0.002000,-0.546951,-0.122984,-0.069411,0.500353,2.074903,-0.814493,16.707541,4.566009,1.946543,0.002000,1.216735,0.000000
241.000000,0.002000,-0.081957,0.858755,-0.293016,1.811764,1.132108,-0.379282,1.200824,-11.227048,3.075087,0.002000,0.105549,0.000000
242.000000,0.002000,-0.075635,2.705453,-0.455114,-0.167753,1.177539,-0.600732,0.093754,-2.433066,0.454784,0.002000,0.375331,0.000000
243.000000,0.002000,-0.272745,0.565953,0.232545,1.247042,-2.100146,-1.165375,6.181802,-12.719122,-5.704264,0.002000,-0.642313,0.000000
244.000000,0.002000,-0.519718,-0.126115,0.033014,0.527492,-2.203070,-2.511034,16.348976,4.524098,-1.374890,0.002000,-1.045279,0.000000
245.000000,0.002000,3.991079,-0.267703,-1.310982,0.786085,0.916065,-2.284042,-1.052593,0.070978,0.345535,0.002000,-0.270228,0.000000
246.000000,0.002000,0.239945,-0.033806,0.095419,4.879590,-2.469366,3.357351,-9.506622,0.331689,-2.428198,0.002000,-0.187536,0.000000
247.000000,0.002000,0.678438,0.704768,0.448526,3.499916,-0.178423,-2.349205,-5.986615,-6.370210,-4.316626,0.002000,0.421707,0.000000
248.000000,0.002000,-0.031268,-0.093431,-0.465024,1.335575,-1.559603,3.460842,-0.952576,5.338867,17.532502,0.002000,-0.546951,0.000000
249.000000,0.002000,-0.256693,-0.068974,0.146273,1.176949,-0.895013,-0.723976,12.839232,4.362330,-10.629926,0.002000,-0.081957,0.000000
250.000000,0.002000,0.269222,-0.536299,-0.773832,0.124482,0.218891,-2.472174,-2.220579,5.587293,8.310774,0.002000,-0.075635,0.000000
251.000000,0.002000,-1.519562,-0.237583,-1.293480,-1.456835,-1.924352,-1.396300,2.843065,0.433701,2.447184,0.002000,-0.272745,0.000000
252.000000,0.002000,0.108843,0.749203,-0.450881,-2.014898,-1.234481,0.195416,-2.486256,-12.907182,6.074541,0.002000,-0.519718,0.000000
253.000000,0.002000,0.529459,-0.090739,-0.013999,-0.216815,-2.309898,0.057762,-12.402157,6.952979,-0.522376,0.002000,3.991079,0.000000
254.000000,0.002000,-0.944891,-0.854101,0.679611,-1.386998,1.452356,-1.121615,4.017337,3.742165,-2.922334,0.002000,0.239945,0.000000
255.000000,0.002000,-0.513919,0.284444,-0.294333,-1.387999,-1.760685,-2.605972,11.847615,-5.603901,7.027531,0.002000,0.678438,0.000000
256.000000,0.002000,0.637239,-0.571360,-0.241244,-2.861871,1.348026,0.698971,-8.544640,8.143357,3.497461,0.002000,-0.031268,0.000000
257.000000,0.002000,-0.088626,-0.545997,-0.410527,-1.810743,2.021252,2.084917,1.464380,12.698018,9.636223,0.002000,-0.256693,0.000000
258.000000,0.002000,0.182260,-0.376806,0.196158,1.193397,-0.156315,0.985334,-7.364411,15.540799,-8.483159,0.002000,0.269222,0.000000
259.000000,0.002000,-0.547159,-0.396595,0.427204,2.554948,-1.304573,-2.463490,9.666007,7.452841,-7.449733,0.002000,-1.519562,0.000000
260.000000,0.002000,0.321374,-1.168819,1.390259,-0.564689,-1.662925,-0.649402,-0.731114,2.792965,-3.183130,0.002000,0.108843,0.000000
261.000000,0.002000,0.170055,0.812156,0.257039,2.098144,-2.850773,-0.617173,-1.873623,-10.758478,-7.323246,0.002000,0.529459,0.000000
262.000000,0.002000,-1.488773,-0.224327,1.096315,-1.512993,1.148530,-0.683574,3.230891,0.454438,-2.372240,0.002000,-0.944891,0.000000
263.000000,0.002000,-0.708509,-0.088331,-0.574808,-2.205227,-0.969287,0.169812,9.298235,-0.136387,6.555099,0.002000,-0.513919,0.000000
264.000000,0.002000,-0.588440,0.862604,-0.393219,1.112995,-2.403367,0.434060,7.338358,-11.631026,0.918540,0.002000,0.637239,0.000000
265.000000,0.002000,0.144033,0.144599,0.699591,0.705817,-2.212963,-1.585943,-2.486920,-2.922549,-14.072819,0.002000,-0.088626,0.000000
266.000000,0.002000,1.399925,-1.490719,0.155933,-0.254092,-0.130111,-0.752051,-2.092321,2.717626,-0.493762,0.002000,0.182260,0.000000
267.000000,0.002000,-1.242013,0.308967,-1.078369,0.257296,-0.740551,1.314679,3.492638,-1.101928,3.213629,0.002000,-0.547159,0.000000
268.000000,0.002000,-0.138907,-0.623473,0.279473,-1.253586,2.376673,-0.243029,2.095907,14.234810,-7.163359,0.002000,0.321374,0.000000
269.000000,0.002000,0.160156,0.096380,0.058221,3.095428,-0.024687,-2.020198,-12.145315,-7.333286,-6.191389,0.002000,0.170055,0.000000
270.000000,0.002000,-1.382795,-0.590550,-1.183586,-0.291792,-2.360764,-0.353592,3.058673,1.198399,2.597013,0.002000,-1.488773,0.000000
271.000000,0.002000,0.249487,0.212552,-0.280422,-0.190351,3.514998,0.493775,-13.844047,-10.247601,14.212100,0.002000,-0.708509,0.000000
272.000000,0.002000,0.407624,-0.788341,-0.749323,0.371115,-3.763824,1.733370,-2.876063,6.186090,5.162940,0.002000,-0.588440,0.000000
273.000000,0.002000,-0.716687,0.277373,0.010555,3.252077,1.530601,-1.790070,15.675321,-3.430840,-0.243516,0.002000,0.144033,0.000000
274.000000,0.002000,0.032894,0.133453,0.194956,-0.097956,0.481087,-1.286475,-1.086302,-8.183171,-14.031405,0.002000,1.399925,0.000000
275.000000,0.002000,0.323627,-0.590705,-0.794693,1.325712,-0.262036,-0.405603,-2.698131,5.265894,7.852042,0.002000,-1.242013,0.000000
276.000000,0.002000,-0.079823,-1.603368,-2.329453,-0.038471,-1.341640,-1.300866,0.061226,1.394584,1.902508,0.002000,-0.138907,0.000000
277.000000,0.002000,0.016901,-0.317125,0.139978,-2.569646,3.264074,-1.212361,-2.469548,17.890536,-8.795485,0.002000,0.160156,0.000000
278.000000,0.002000,-0.153969,0.071875,0.043275,3.254595,-0.567366,-0.577210,7.068021,0.191863,-5.184822,0.002000,-1.382795,0.000000
279.000000,0.002000,0.090952,0.545489,-0.110385,-0.022148,-2.876798,1.598567,-5.404670,-16.183748,2.774092,0.002000,0.249487,0.000000
280.000000,0.002000,0.064096,0.122463,0.169017,1.855295,0.936759,0.253807,-6.156609,-6.532427,-11.665179,0.002000,0.407624,0.000000
281.000000,0.002000,0.551859,0.378801,-0.005651,1.220845,2.693151,-2.680132,-13.737967,-8.977228,1.145659,0.002000,-0.716687,0.000000
282.000000,0.002000,-1.136670,-0.880618,-1.527566,1.783356,-0.388203,-1.728763,1.951387,1.504670,2.569870,0.002000,0.032894,0.000000
283.000000,0.002000,-0.240505,0.257214,0.254570,3.372837,1.786744,-0.360120,9.540165,-9.145630,-11.294254,0.002000,0.323627,0.000000
284.000000,0.002000,-1.844526,0.815753,1.613941,-2.494510,-0.383667,1.490935,1.741737,-0.624955,-1.599688,0.002000,-0.079823,0.000000
285.000000,0.002000,0.488636,0.344852,0.559956,1.178285,0.138442,0.761535,-7.463862,-5.379670,-9.635211,0.002000,0.016901,0.000000
286.000000,0.002000,-0.564039,-0.997239,-0.293063,2.533015,-1.950672,-0.216705,4.031892,6.847008,1.603361,0.002000,-0.153969,0.000000
287.000000,0.002000,0.040982,0.153800,-0.066943,-1.643938,-1.435463,3.547831,-5.157339,-0.838129,3.735255,0.002000,0.090952,0.000000
288.000000,0.002000,0.067982,0.036806,-0.155343,-0.800086,1.448345,-2.019892,-5.928372,1.414990,12.401719,0.002000,0.064096,0.000000
289.000000,0.002000,0.082433,-0.109906,-0.021224,-2.022323,-2.970841,1.243109,-4.676195,4.047134,-1.239413,0.002000,0.551859,0.000000
290.000000,0.002000,0.119092,0.381190,-0.505429,0.624382,1.438620,-1.518173,-3.253081,-7.649530,13.749176,0.002000,-1.136670,0.000000
291.000000,0.002000,-0.006988,1.264707,-1.866819,1.041169,0.451293,-1.820515,-0.105917,-1.838190,2.733521,0.002000,-0.240505,0.000000
292.000000,0.002000,-0.433489,-0.490195,0.108696,-1.236782,0.347291,-1.624908,10.005444,11.698356,-2.135857,0.002000,-1.844526,0.000000
293.000000,0.002000,-0.062385,-0.063856,0.016266,1.524882,-2.935309,-0.194392,-1.736363,4.680912,-2.061882,0.002000,0.488636,0.000000
294.000000,0.002000,-0.000755,-1.564798,-1.423483,-1.087226,0.753892,-0.540727,-0.110956,2.491508,2.275284,0.002000,-0.564039,0.000000
295.000000,0.002000,0.235502,0.124739,0.389694,0.255859,-0.027080,-2.153404,-7.358685,-3.683560,-14.406262,0.002000,0.040982,0.000000
296.000000,0.002000,0.172548,-0.361381,0.576002,2.413512,-1.798722,-1.618544,-5.878347,8.555969,-12.915074,0.002000,0.067982,0.000000
297.000000,0.002000,-0.020940,0.467337,-0.330224,0.839381,0.220446,-2.257121,1.287499,-12.615063,10.286858,0.002000,0.082433,0.000000
298.000000,0.002000,1.127689,0.890257,-0.208189,0.006445,-1.149198,0.302867,-4.695357,-3.616683,0.882782,0.002000,0.119092,0.000000
299.000000,0.002000,-1.746071,0.521504,-1.077121,1.631848,-1.785694,1.005928,2.911342,-0.886374,1.872787,0.002000,-0.006988,0.000000
300.000000,0.002000,-2.620503,1.355681,-2.423764,0.344577,-1.341033,-0.345832,0.933034,-0.485096,0.859242,0.002000,-0.433489,0.000000
301.000000,0.002000,0.723648,-0.238398,-0.842568,-2.235589,-0.164899,1.719881,-5.714634,1.689914,6.599109,0.002000,-0.062385,0.000000
302.000000,0.002000,0.812346,-0.448637,-0.020820,1.906654,-0.461185,-1.680318,-10.275702,6.031112,0.148432,0.002000,-0.000755,0.000000
303.000000,0.002000,-0.981757,0.353631,-0.853061,-3.394125,-1.423866,-0.206458,5.301877,-1.880382,4.454413,0.002000,0.235502,0.000000
304.000000,0.002000,0.377264,0.613708,0.188288,-2.687048,-1.090643,0.792068,-7.038071,-12.921864,-4.043638,0.002000,0.172548,0.000000
305.000000,0.002000,0.982434,2.065906,-0.100695,0.560922,-0.530558,-0.455980,-1.314628,-2.816380,0.246796,0.002000,-0.020940,0.000000
306.000000,0.002000,-0.701417,0.241571,-0.151308,0.160553,0.329251,-0.079911,15.771471,-3.814651,3.747946,0.002000,1.127689,0.000000
307.000000,0.002000,0.002570,0.565078,0.430310,0.891933,1.965866,-1.782182,0.555963,-10.835436,-9.453069,0.002000,-1.746071,0.000000
308.000000,0.002000,1.362924,-2.264878,-1.069701,1.821828,-0.971021,-0.723756,-1.119851,1.861555,0.842541,0.002000,-2.620503,0.000000
309.000000,0.002000,2.050439,-1.668989,0.989949,1.343198,-0.146396,0.495580,-1.667406,1.433249,-0.843632,0.002000,0.723648,0.000000
310.000000,0.002000,-0.500267,0.280408,-0.723720,1.259196,-1.525290,-1.123245,5.995391,-3.008439,8.635937,0.002000,0.812346,0.000000
311.000000,0.002000,-1.460458,-1.235268,1.316993,-0.321478,-1.496739,1.618213,1.979379,1.727571,-1.680887,0.002000,-0.981757,0.000000
312.000000,0.002000,-0.523489,0.344335,2.405771,-0.904854,-0.044590,0.508116,0.612731,-0.365496,-2.775196,0.002000,0.377264,0.000000
313.000000,0.002000,-1.167079,-1.846147,-1.287413,-1.390892,-0.085447,-1.398922,1.244741,2.162577,1.366339,0.002000,0.982434,0.000000
314.000000,0.002000,-0.181594,0.771924,-0.637767,0.784397,-0.010889,-1.892696,1.970128,-8.009445,6.546229,0.002000,-0.701417,0.000000
315.000000,0.002000,1.519363,3.238586,0.112801,0.029901,-1.079752,0.041533,-0.663309,-1.399089,-0.036873,0.002000,0.002570,0.000000
316.000000,0.002000,0.966144,0.314837,0.466925,-2.459243,-0.573621,1.200833,-7.875688,-2.568223,-3.919282,0.002000,1.362924,0.000000
317.000000,0.002000,0.384643,-0.581364,0.262489,-0.003584,-1.943336,2.933103,-7.316024,10.338907,-4.061688,0.002000,2.050439,0.000000
318.000000,0.002000,0.195510,-0.112546,0.989799,-0.469385,-1.820234,-0.243454,0.676451,3.180233,-11.665554,0.002000,-0.500267,0.000000
319.000000,0.002000,0.119955,0.023994,-0.318260,3.809572,0.730730,0.287726,-6.991623,2.345707,15.863179,0.002000,-1.460458,0.000000
320.000000,0.002000,-0.188029,-2.173132,-1.060864,-0.703801,-1.498133,-2.216475,0.168218,2.631911,1.314584,0.002000,-0.523489,0.000000
321.000000,0.002000,-0.277013,-0.611426,0.237522,-0.813385,0.251562,0.644728,6.438522,13.290771,-4.750300,0.002000,-1.167079,0.000000
322.000000,0.002000,-0.294371,0.537062,0.075021,2.634912,0.460000,-0.609040,8.395346,-14.372951,-2.451799,0.002000,-0.181594,0.000000
323.000000,0.002000,0.020310,-0.181844,0.188616,0.298072,-0.657392,-4.645555,-1.636640,10.159571,-13.632909,0.002000,1.519363,0.000000
324.000000,0.002000,0.492725,0.178360,-0.231578,0.477650,-1.061185,2.074499,-13.139962,-1.775598,9.185411,0.002000,0.966144,0.000000
325.000000,0.002000,-0.785739,-2.540283,-0.141320,0.188963,-0.061930,-2.610166,0.764278,2.463005,0.166875,0.002000,0.384643,0.000000
326.000000,0.002000,-0.886620,1.752706,-0.958936,-0.768312,0.292604,-1.320208,1.455262,-2.746859,1.480807,0.002000,0.195510,0.000000
327.000000,0.002000,0.090579,-0.103834,-0.000632,-0.782159,0.847980,-1.316897,-8.158087,1.878363,-4.514338,0.002000,0.119955,0.000000
328.000000,0.002000,0.636435,-0.055965,0.087844,0.188231,-0.608814,1.871560,-14.773963,1.200414,-2.577726,0.002000,-0.188029,0.000000
329.000000,0.002000,-0.161012,0.108301,-0.057706,-2.546289,-1.155211,1.717096,12.163882,-9.918502,4.373240,0.002000,-0.277013,0.000000
330.000000,0.002000,0.745041,-0.507949,-0.394841,-0.852187,-1.015125,0.440741,-8.220794,5.743072,4.516727,0.002000,-0.294371,0.000000
331.000000,0.002000,0.363508,0.015526,-0.167492,1.713991,-0.299125,0.624478,-13.139691,-0.683132,6.346070,0.002000,0.020310,0.000000
332.000000,0.002000,-0.290920,-0.507916,0.319061,0.114954,0.508123,0.604142,6.214899,13.585234,-8.822827,0.002000,0.492725,0.000000
333.000000,0.002000,0.361061,0.075005,-1.457362,-1.905670,-0.069903,0.147430,-1.422332,-0.162237,5.500739,0.002000,-0.785739,0.000000
334.000000,0.002000,0.212404,-0.281202,-0.300703,3.176446,-3.076406,0.840692,-8.493592,8.681917,9.386643,0.002000,-0.886620,0.000000
335.000000,0.002000,-0.262537,0.216056,0.425923,-0.460906,0.117769,0.051932,9.694567,-7.033659,-12.503967,0.002000,0.090579,0.000000
336.000000,0.002000,-0.518196,-0.666906,0.222863,0.943621,0.450584,1.917267,7.376045,9.117803,-3.068818,0.002000,0.636435,0.000000
337.000000,0.002000,0.038470,-0.443685,0.584989,-0.756822,-1.583260,-1.783680,-1.494483,8.396234,-12.552839,0.002000,-0.161012,0.000000
338.000000,0.002000,-0.080408,0.839177,-1.726221,2.302246,1.889780,-1.097682,0.055840,-1.391157,3.701821,0.002000,0.745041,0.000000
339.000000,0.002000,-0.145649,0.472442,-0.264228,-2.988706,-0.929556,0.193415,5.049148,-14.314964,8.003671,0.002000,0.363508,0.000000
340.000000,0.002000,0.878190,0.012349,0.018819,0.373569,4.029441,2.297675,-12.496288,-0.184976,-0.100846,0.002000,-0.290920,0.000000
341.000000,0.002000,-0.040908,0.149242,-0.016845,2.210655,-0.458531,-3.201400,-1.550768,-5.455502,-0.750517,0.002000,0.361061,0.000000
342.000000,0.002000,0.751237,-1.222661,-1.801129,-0.021963,0.008563,-2.581620,-1.021626,1.615355,2.498981,0.002000,0.212404,0.000000
343.000000,0.002000,-0.604958,0.698739,0.239600,1.414447,1.779732,-1.619917,8.113525,-7.789383,-3.487867,0.002000,-0.262537,0.000000
344.000000,0.002000,-0.289491,-0.101476,-0.013250,-2.554793,0.833879,-1.296336,16.527846,8.673561,0.565892,0.002000,-0.518196,0.000000
345.000000,0.002000,-0.204022,-0.135452,0.171377,5.117088,-0.328393,1.363434,12.721235,7.485290,-11.768653,0.002000,0.038470,0.000000
346.000000,0.002000,-0.096615,-1.128350,0.192618,2.025146,-2.119994,2.628163,0.473080,8.196907,-1.433934,0.002000,-0.080408,0.000000
347.000000,0.002000,0.055331,0.549641,1.536809,0.378527,-2.204715,0.381738,-0.158001,-1.807777,-4.631075,0.002000,-0.145649,0.000000
348.000000,0.002000,-0.253966,-0.330124,-0.164221,-2.300791,-2.785473,0.002186,9.753562,12.634068,4.166110,0.002000,0.878190,0.000000
349.000000,0.002000,0.017239,-0.678957,0.710252,-2.317730,-0.156112,-1.532257,-0.298667,7.254679,-7.825094,0.002000,-0.040908,0.000000
350.000000,0.002000,-0.212899,0.197939,-0.629907,3.172503,1.728447,1.636120,4.238998,-3.737980,14.194041,0.002000,0.751237,0.000000
351.000000,0.002000,-0.183196,-0.536391,1.474105,-0.773004,-0.461808,-1.292288,0.711887,1.841480,-5.041418,0.002000,-0.604958,0.000000
352.000000,0.002000,-0.630769,2.043212,2.456920,-0.813807,-1.824853,0.240740,0.364208,-1.135813,-1.406307,0.002000,-0.289491,0.000000
353.000000,0.002000,-0.710720,-2.016440,-0.799620,-1.425804,-0.834696,-0.924305,1.055105,2.880022,1.262936,0.002000,-0.204022,0.000000
354.000000,0.002000,0.194707,0.273373,0.358682,-1.027805,0.089796,-2.166503,-6.036892,-6.704868,-15.268037,0.002000,-0.096615,0.000000
355.000000,0.002000,-0.210437,0.005360,-0.026367,-0.413069,0.181012,0.316439,9.570760,-1.314169,-1.611215,0.002000,0.055331,0.000000
356.000000,0.002000,0.310024,0.269791,0.309670,1.225560,0.338495,-1.313257,-9.561384,-4.919727,-12.242801,0.002000,-0.253966,0.000000
357.000000,0.002000,0.784751,1.917150,1.277297,0.488468,1.237367,-0.282667,-1.046214,-2.213556,-1.502791,0.002000,0.017239,0.000000
358.000000,0.002000,0.031408,-0.657245,-0.860145,-3.014559,1.577758,-0.761060,1.068400,3.421654,7.427200,0.002000,-0.212899,0.000000
359.000000,0.002000,0.160730,0.703750,0.519021,1.898181,-2.771127,0.232624,-4.186341,-11.909877,-7.739933,0.002000,-0.183196,0.000000
360.000000,0.002000,-1.889469,0.933991,-0.375835,-2.037600,-0.701648,0.307444,3.144202,-1.527987,0.630204,0.002000,-0.630769,0.000000
361.000000,0.002000,0.104069,-0.039612,0.054463,0.510508,0.492377,-1.991817,-9.341848,4.274665,-3.312808,0.002000,-0.710720,0.000000
362.000000,0.002000,0.487443,0.321003,0.403476,0.494896,-2.448382,0.877809,-9.955422,-6.055766,-8.566509,0.002000,0.194707,0.000000
363.000000,0.002000,-0.050262,-0.113114,0.144496,2.470721,1.878649,-3.667723,0.856317,4.644537,-16.691136,0.002000,-0.210437,0.000000
364.000000,0.002000,0.163860,0.596711,0.188494,2.697702,1.304085,1.094618,-3.864335,-13.980923,-5.617500,0.002000,0.310024,0.000000
365.000000,0.002000,0.894487,0.714927,-3.103813,0.203689,0.384310,-1.911834,-0.505228,-0.380197,1.674034,0.002000,0.784751,0.000000
366.000000,0.002000,-0.174473,0.142908,0.164831,-0.072734,-1.139994,1.297660,7.954011,-9.640383,-9.965890,0.002000,0.031408,0.000000
367.000000,0.002000,0.869472,0.147760,0.265673,1.131747,-0.406027,1.937632,-11.275891,-1.543815,-3.652485,0.002000,0.160730,0.000000
368.000000,0.002000,-1.286691,0.534439,0.859762,-0.829169,2.816967,-0.833793,3.753779,-1.507199,-2.781374,0.002000,-1.889469,0.000000
369.000000,0.002000,-0.299964,-0.116619,0.275449,-1.637212,-1.398725,-0.943960,12.181669,6.991457,-12.423028,0.002000,0.104069,0.000000
370.000000,0.002000,-0.212492,-0.725235,0.361868,-0.153802,-0.563424,-2.465808,3.001962,10.666843,-5.509284,0.002000,0.487443,0.000000
371.000000,0.002000,0.719058,-0.920197,-0.346734,-0.879374,1.978646,0.972592,-4.613070,6.186484,2.139656,0.002000,-0.050262,0.000000
372.000000,0.002000,0.236099,-0.421912,-0.373813,2.571393,-2.441157,-4.394159,-6.703548,8.457864,11.065122,0.002000,0.163860,0.000000
373.000000,0.002000,1.060325,0.125011,1.398846,-1.160859,0.666259,1.325772,-2.763672,-0.239037,-3.512516,0.002000,0.894487,0.000000
374.000000,0.002000,-1.477733,1.176874,0.266296,0.373023,0.447554,1.446569,2.486749,-2.417199,-0.461807,0.002000,-0.174473,0.000000
375.000000,0.002000,1.103866,-0.622395,0.025533,1.199244,-2.828757,1.766725,-6.365214,3.762081,-0.290408,0.002000,0.869472,0.000000
376.000000,0.002000,0.007694,0.439376,-0.148359,-0.727230,0.979150,-0.807927,-1.361588,-21.845399,9.529663,0.002000,-1.286691,0.000000
377.000000,0.002000,-0.145023,0.502981,0.986669,-1.482449,-1.541971,3.560643,0.945708,-3.893527,-7.968042,0.002000,-0.299964,0.000000
378.000000,0.002000,0.399197,-2.171760,0.572492,0.061979,0.002104,0.419661,-0.617035,3.066952,-0.856853,0.002000,-0.212492,0.000000
379.000000,0.002000,0.054755,-0.067774,-0.045332,-0.291128,1.220436,-0.471960,-3.950519,-1.543176,1.162061,0.002000,0.719058,0.000000
380.000000,0.002000,-0.130197,-0.226073,-0.453936,-0.833847,1.329130,-2.986242,4.913490,7.955453,13.348266,0.002000,0.236099,0.000000
381.000000,0.002000,1.698165,0.456405,-1.087687,2.639590,0.047471,-1.357881,-3.004482,-0.822836,1.944751,0.002000,1.060325,0.000000
382.000000,0.002000,0.376967,-0.334991,0.223624,1.742930,2.785186,-1.647935,-11.024721,9.872880,-5.689521,0.002000,-1.477733,0.000000
383.000000,0.002000,0.328263,0.070207,0.264289,-2.162386,-0.757884,1.235135,-12.163540,-3.067266,-8.961575,0.002000,1.103866,0.000000
384.000000,0.002000,-0.086256,-0.905240,-0.635621,0.116779,-0.538776,0.771166,0.625130,7.335855,5.081187,0.002000,0.007694,0.000000
385.000000,0.002000,0.467564,0.610287,-0.454526,-0.344540,-0.733940,-0.121232,-6.602144,-7.493218,6.688214,0.002000,-0.145023,0.000000
386.000000,0.002000,0.694665,-0.471634,-0.021515,-1.838042,0.800919,-0.462516,-10.490369,7.446339,0.161852,0.002000,0.399197,0.000000
387.000000,0.002000,-1.724237,-0.003179,1.097985,-2.067500,-1.067678,1.637119,3.025754,0.025998,-2.197541,0.002000,0.054755,0.000000
388.000000,0.002000,-0.169366,-0.126750,-0.090223,-2.564746,0.195738,-4.294377,8.267808,8.068623,5.924734,0.002000,-0.130197,0.000000
389.000000,0.002000,-0.188843,0.941879,1.208458,1.833516,-1.142572,0.775833,0.692838,-3.099728,-4.383549,0.002000,1.698165,0.000000
390.000000,0.002000,-0.706058,-0.681975,-0.370785,-0.348994,-0.052054,-1.379097,7.086101,6.400976,3.175062,0.002000,0.376967,0.000000
391.000000,0.002000,0.002316,0.052529,-0.104504,-1.862248,5.200043,-0.986529,0.621805,2.385488,5.597910,0.002000,0.328263,0.000000
392.000000,0.002000,0.625465,-0.467311,-0.124926,-1.450574,-2.395787,0.369255,-11.749774,8.056553,1.576383,0.002000,-0.086256,0.000000
393.000000,0.002000,-0.497621,-0.463462,0.378196,1.089434,1.421489,1.117469,8.401607,8.818982,-6.202037,0.002000,0.467564,0.000000
394.000000,0.002000,0.681608,-0.388893,-0.245284,-1.597329,-1.130117,0.363404,-10.837389,6.067664,3.929663,0.002000,0.694665,0.000000
395.000000,0.002000,-0.087522,0.544046,-0.884766,0.213669,1.585873,-1.275930,-0.077769,-5.575612,7.515845,0.002000,-1.724237,0.000000
396.000000,0.002000,-0.053837,-0.020820,0.216279,0.785822,2.924970,0.864370,7.743755,0.757916,-14.433949,0.002000,-0.169366,0.000000
397.000000,0.002000,-0.196087,-0.456409,-0.235566,-0.514361,2.609206,1.850379,5.813825,13.874449,7.100891,0.002000,-0.188843,0.000000
398.000000,0.002000,-2.349276,-0.022550,0.606991,-0.451915,-0.005677,0.040391,2.978966,0.146021,-0.836707,0.002000,-0.706058,0.000000
399.000000,0.002000,-2.161111,0.507053,1.147638,-0.669196,0.931374,0.683119,2.038885,-1.504298,-1.194557,0.002000,0.002316,0.000000
400.000000,0.002000,1.747370,-0.410199,1.130192,0.159714,-1.887210,1.013644,-2.875879,0.699906,-1.853657,0.002000,0.625465,0.000000
401.000000,0.002000,2.288645,0.351245,-1.956681,1.919224,-0.354671,-1.241450,-1.459217,-0.124475,1.323908,0.002000,-0.497621,0.000000
402.000000,0.002000,-0.121749,-0.122619,0.737965,-0.963118,2.468399,-1.106067,2.120294,1.475614,-13.410884,0.002000,0.681608,0.000000
403.000000,0.002000,-1.037872,0.179344,-0.270152,-3.875899,-0.703454,1.363018,9.080384,-1.596193,2.197109,0.002000,-0.087522,0.000000
404.000000,0.002000,-1.100816,-0.445141,1.412721,0.959278,0.517220,0.023286,2.486308,0.948240,-3.346415,0.002000,-0.053837,0.000000
405.000000,0.002000,0.053670,0.221936,-0.236410,-1.170764,-1.072685,-2.339692,-1.561634,-12.458960,13.009417,0.002000,-0.196087,0.000000
406.000000,0.002000,0.011267,0.318821,0.081279,-1.546887,0.679437,-1.833742,-0.542904,-18.245590,-4.744968,0.002000,-2.349276,0.000000
407.000000,0.002000,0.051855,0.217904,0.087201,-2.341473,-3.063423,0.018798,-0.021903,-12.744616,-5.163781,0.002000,-2.161111,0.000000
408.000000,0.002000,-0.791515,-0.179856,-0.294621,2.335740,2.696648,0.549386,11.471739,3.077943,4.899240,0.002000,1.747370,0.000000
409.000000,0.002000,-0.648756,-0.081806,0.168965,0.162150,1.104544,0.656250,16.022987,1.684326,-3.994390,0.002000,2.288645,0.000000
410.000000,0.002000,-0.724351,-1.445779,-0.950570,-0.232717,-1.446896,0.665314,1.282462,3.034142,2.168090,0.002000,-0.121749,0.000000
411.000000,0.002000,0.143801,-0.367925,-1.590799,1.229227,1.056215,0.505830,-0.456883,0.822606,4.686012,0.002000,-1.037872,0.000000
412.000000,0.002000,-2.039647,-1.375532,1.567051,-0.935484,-1.752835,0.620204,1.508463,1.154347,-1.244871,0.002000,-1.100816,0.000000
413.000000,0.002000,0.359640,-0.108852,-0.163492,0.536776,-0.665635,0.932033,-7.076782,3.290968,7.959065,0.002000,0.053670,0.000000
414.000000,0.002000,0.179525,-0.747476,-0.138237,4.467667,-0.180395,2.384607,-2.862446,12.455999,2.722288,0.002000,0.011267,0.000000
415.000000,0.002000,0.035399,-0.560438,0.495917,-1.160888,-2.974708,0.563080,-0.129660,11.382378,-9.169248,0.002000,0.051855,0.000000
416.000000,0.002000,0.036446,-0.219067,0.327430,-3.656364,-2.752187,-0.802721,-2.845892,9.033564,-15.995320,0.002000,-0.791515,0.000000
417.000000,0.002000,0.487263,1.443169,2.178241,0.340962,0.453045,1.595433,-0.464510,-1.389512,-2.194449,0.002000,-0.648756,0.000000
418.000000,0.002000,-0.258779,-0.571302,0.778631,0.957556,2.536091,-1.273514,2.446081,6.025586,-8.225970,0.002000,-0.724351,0.000000
419.000000,0.002000,0.410801,1.064807,1.550398,2.003364,2.981715,-0.374809,-0.945422,-2.072302,-3.303813,0.002000,0.143801,0.000000
420.000000,0.002000,-1.996480,0.196596,-1.290216,-0.134759,-0.213695,-0.703413,2.405361,-0.127257,1.645433,0.002000,-2.039647,0.000000
421.000000,0.002000,0.011422,0.343876,-0.414912,-0.336294,-0.234917,-2.807042,-0.605416,-10.719840,14.236185,0.002000,0.359640,0.000000
422.000000,0.002000,-2.455746,-1.217901,0.401785,-0.751295,-0.604485,0.387809,2.217198,1.011412,-0.381771,0.002000,0.179525,0.000000
423.000000,0.002000,0.111500,-2.631839,1.923121,-0.452037,-2.101138,1.634212,-0.093981,1.469781,-1.066349,0.002000,0.035399,0.000000
424.000000,0.002000,0.343220,-1.518019,-0.287611,-1.880304,2.742973,-1.086784,-1.208942,5.043636,0.928325,0.002000,0.036446,0.000000
425.000000,0.002000,-0.031204,-0.066631,-1.049628,-1.721876,0.759523,-0.311683,0.261474,1.099788,9.368679,0.002000,0.487263,0.000000
426.000000,0.002000,-0.495046,0.376538,-0.774489,-0.149911,0.403167,2.508722,5.388492,-4.633091,7.543229,0.002000,-0.258779,0.000000
427.000000,0.002000,-1.483924,-0.205179,-0.441833,0.221929,2.031207,0.380566,5.233171,0.745625,1.681995,0.002000,0.410801,0.000000
428.000000,0.002000,0.263526,-0.216380,-0.620867,1.607369,-2.992729,1.062373,-5.682285,3.886471,14.305447,0.002000,-1.996480,0.000000
429.000000,0.002000,-0.568468,0.785768,0.024565,0.947719,1.876722,-0.564464,6.631404,-8.769374,0.219884,0.002000,0.011422,0.000000
430.000000,0.002000,2.012470,-1.262879,-1.070198,1.618097,-1.203909,-0.081922,-2.043973,1.356849,1.145085,0.002000,-2.455746,0.000000
431.000000,0.002000,-0.418825,-0.249406,0.387770,0.607748,-1.467634,-0.517592,9.867266,7.132162,-9.267699,0.002000,0.111500,0.000000
432.000000,0.002000,0.079724,-1.424272,0.851240,-0.597477,1.222083,-0.506796,-0.388326,4.174891,-2.475371,0.002000,0.343220,0.000000
433.000000,0.002000,0.219369,0.209606,0.202468,-0.158236,0.401139,-0.637587,-11.024561,-8.092827,-8.205756,0.002000,-0.031204,0.000000
434.000000,0.002000,-1.890562,1.708027,2.202425,1.578810,1.252430,0.436666,0.961588,-0.878388,-1.135386,0.002000,-0.495046,0.000000
435.000000,0.002000,-0.105972,0.463869,0.363002,0.868085,1.335213,-2.670430,3.602760,-12.372572,-10.702548,0.002000,-1.483924,0.000000
436.000000,0.002000,-0.749493,0.213853,-0.667759,-0.378852,-1.840916,2.506330,7.492495,-1.710721,6.488032,0.002000,0.263526,0.000000
437.000000,0.002000,-0.156029,0.124062,-0.268761,2.105688,-1.551241,2.960583,6.088381,-4.182552,14.822436,0.002000,-0.568468,0.000000
438.000000,0.002000,-0.242819,-0.227818,-0.359270,1.051943,0.481196,-0.046787,8.817396,7.144416,12.821999,0.002000,2.012470,0.000000
439.000000,0.002000,0.091626,-0.420526,-0.290311,-1.782730,-0.219196,-2.848680,-3.478255,12.242989,9.720871,0.002000,-0.418825,0.000000
440.000000,0.002000,0.303022,0.012601,0.218208,-3.763774,-0.747263,1.298026,-14.739028,-1.836453,-10.859937,0.002000,0.079724,0.000000
441.000000,0.002000,0.491909,0.162852,0.709114,-0.474749,1.597684,-1.340468,-6.415497,-2.368078,-9.695086,0.002000,0.219369,0.000000
442.000000,0.002000,-0.128415,-0.272541,0.044461,0.915711,-2.044381,-3.362506,4.902557,22.050094,-5.153770,0.002000,-1.890562,0.000000
443.000000,0.002000,-0.246488,-0.555051,0.049101,2.578965,3.163859,1.507856,6.825180,14.396936,-0.766990,0.002000,-0.105972,0.000000
444.000000,0.002000,0.116600,-0.433843,-0.156026,-0.437786,2.383602,-0.680635,-3.784989,15.897334,4.178113,0.002000,-0.749493,0.000000
445.000000,0.002000,-0.003608,0.195937,-0.415913,1.417069,-0.095616,1.107369,2.763032,-10.650035,14.492939,0.002000,-0.156029,0.000000
446.000000,0.002000,0.080841,-0.015015,-1.139982,-0.893225,-0.741143,2.661344,-0.924121,0.245819,8.136577,0.002000,-0.242819,0.000000
447.000000,0.002000,-0.358447,0.573810,0.137100,1.702196,-2.298600,0.152502,7.637095,-12.704165,-3.549296,0.002000,0.091626,0.000000
448.000000,0.002000,-1.215071,0.900826,-0.440731,-1.035633,0.579435,1.622146,4.038265,-3.045626,1.542131,0.002000,0.303022,0.000000
449.000000,0.002000,0.011475,0.243125,0.051575,3.057992,-0.651970,2.788586,0.190217,-14.605727,-3.323062,0.002000,0.491909,0.000000
450.000000,0.002000,0.194662,0.403922,-1.257890,-1.146222,0.231718,1.852461,-1.023499,-1.623737,6.010631,0.002000,-0.128415,0.000000
451.000000,0.002000,1.953241,-1.027432,-2.508861,0.453520,-2.648618,0.133374,-1.021600,0.520630,1.312134,0.002000,-0.246488,0.000000
452.000000,0.002000,-2.264946,0.858313,0.802395,-1.571135,2.230926,0.963019,2.438822,-1.049184,-0.956017,0.002000,0.116600,0.000000
453.000000,0.002000,2.247086,-0.654658,1.221472,1.347669,-0.533090,-0.084068,-2.156495,0.691656,-1.268661,0.002000,-0.003608,0.000000
454.000000,0.002000,0.399591,0.426367,-0.218949,-1.108154,-2.864403,-1.386277,-9.819240,-10.655639,6.368362,0.002000,0.080841,0.000000
455.000000,0.002000,-0.191887,-1.970072,0.723722,-0.464286,0.243890,-0.596562,0.334812,3.159353,-1.221076,0.002000,-0.358447,0.000000
456.000000,0.002000,0.020325,-0.319773,0.298724,1.744962,-0.273564,-0.598892,-1.395782,12.748199,-12.238501,0.002000,-1.215071,0.000000
457.000000,0.002000,-0.735869,-1.640528,-0.200032,0.453727,0.836966,0.642973,1.685556,4.044134,0.405802,0.002000,0.011475,0.000000
458.000000,0.002000,-0.082348,-0.581610,-0.170921,0.139353,-2.135433,2.406371,1.796869,16.194961,4.623019,0.002000,0.194662,0.000000
459.000000,0.002000,0.135063,0.186373,-1.020309,2.584979,-1.994830,-0.569052,-1.144186,-1.442702,9.612347,0.002000,1.953241,0.000000
460.000000,0.002000,-0.167956,0.175738,-0.067630,-1.661662,0.820549,-0.529214,9.439546,-12.126845,5.453970,0.002000,-2.264946,0.000000
461.000000,0.002000,0.983385,-0.215329,-0.209053,-1.697640,-0.455384,-2.059356,-10.358775,1.741846,2.189478,0.002000,2.247086,0.000000
462.000000,0.002000,-0.200612,0.336910,0.459057,3.814425,-1.846700,-1.171296,6.123668,-8.629645,-14.264704,0.002000,0.399591,0.000000
463.000000,0.002000,0.097119,0.600609,0.613898,1.166311,-0.661398,1.298059,-1.349584,-7.876624,-9.007215,0.002000,-0.191887,0.000000
464.000000,0.002000,-0.669855,-0.366486,0.179514,-1.835688,1.577465,-1.588190,10.539769,5.421849,-2.186186,0.002000,0.020325,0.000000
465.000000,0.002000,0.060330,0.497625,-0.323926,0.328909,4.367429,2.476474,-1.890111,-13.650102,9.172301,0.002000,-0.735869,0.000000
466.000000,0.002000,1.502835,-1.555082,-0.431865,0.491577,-1.184407,-2.026330,-2.083311,2.318421,0.761134,0.002000,-0.082348,0.000000
467.000000,0.002000,-0.335677,-0.152123,-0.277829,2.115465,-0.354744,0.257815,12.907125,7.156520,7.809714,0.002000,0.135063,0.000000
468.000000,0.002000,-1.300204,0.478289,-0.538549,-3.479738,0.104067,0.455696,5.061493,-1.886230,2.043158,0.002000,-0.167956,0.000000
469.000000,0.002000,-0.176737,-0.070381,0.161211,1.827146,-2.160700,1.997484,9.433750,3.246808,-14.545700,0.002000,0.983385,0.000000
470.000000,0.002000,-1.115516,-0.693783,0.109809,-3.987166,0.494931,0.133211,6.121043,4.150232,-0.330419,0.002000,-0.200612,0.000000
471.000000,0.002000,0.894305,0.580032,-1.285354,-0.497169,-1.411206,0.423953,-3.467257,-1.888970,3.988707,0.002000,0.097119,0.000000
472.000000,0.002000,-0.049272,0.875042,0.870290,-2.501614,2.913495,-0.984179,0.707231,-5.206125,-5.844650,0.002000,-0.669855,0.000000
473.000000,0.002000,-0.355013,2.343658,2.926478,-2.419029,0.460482,2.134658,0.127861,-0.861876,-1.097735,0.002000,0.060330,0.000000
474.000000,0.002000,0.211767,0.430900,-0.598381,2.990564,1.355978,1.458017,-4.365306,-7.454977,11.333666,0.002000,1.502835,0.000000
475.000000,0.002000,-0.193652,-0.877857,-0.514609,-1.360016,0.380275,-0.108902,1.520520,8.562559,4.488769,0.002000,-0.335677,0.000000
476.000000,0.002000,0.453879,-2.079884,0.521276,0.707000,-0.363730,1.082741,-0.815388,3.004956,-0.706984,0.002000,-1.300204,0.000000
477.000000,0.002000,0.299800,0.373062,0.324734,-1.566172,0.086942,2.849918,-9.104382,-10.834801,-9.549537,0.002000,-0.176737,0.000000
478.000000,0.002000,1.193718,2.557281,-1.167955,0.446788,2.443719,-1.113767,-0.805906,-1.706440,0.802107,0.002000,-1.115516,0.000000
479.000000,0.002000,0.127824,-0.439616,-0.572852,2.333837,-1.351692,1.483184,-2.603643,9.629361,11.386748,0.002000,0.894305,0.000000
480.000000,0.002000,-0.972439,-2.200622,-1.037055,-1.190381,-0.954011,0.219610,0.943480,2.218826,1.059153,0.002000,-0.049272,0.000000
481.000000,0.002000,-1.371469,-1.201858,0.587043,0.885839,-0.736323,1.031865,2.134225,2.995903,-1.101413,0.002000,-0.355013,0.000000
482.000000,0.002000,0.118460,1.847347,-1.147039,0.568641,0.804767,0.595397,-0.312609,-2.764067,1.830429,0.002000,0.211767,0.000000
483.000000,0.002000,3.261951,-1.101758,-0.976157,2.752817,-0.984608,-0.526761,-1.389983,0.463852,0.417743,0.002000,-0.193652,0.000000
484.000000,0.002000,-0.065873,-0.542067,0.098873,1.192197,1.174684,0.964844,1.550378,16.085122,-2.482522,0.002000,0.453879,0.000000
485.000000,0.002000,0.073945,0.151041,-0.018386,-0.977492,-0.976670,0.138183,-4.148700,-7.483063,-0.532249,0.002000,0.299800,0.000000
486.000000,0.002000,-1.051143,-1.221791,-0.078264,-0.113957,-0.448733,-2.368827,3.456127,3.965215,0.218958,0.002000,1.193718,0.000000
487.000000,0.002000,0.510153,2.223572,0.832678,-0.462381,1.333864,2.090487,-0.563102,-2.652431,-1.078500,0.002000,0.127824,0.000000
488.000000,0.002000,0.122630,0.051461,1.079204,2.354471,-1.341435,2.780718,-0.919480,-0.347073,-8.893049,0.002000,-0.972439,0.000000
489.000000,0.002000,-0.024271,0.359107,0.232047,-1.463735,4.160776,-1.721105,6.368511,-14.476519,-12.139989,0.002000,-1.371469,0.000000
490.000000,0.002000,1.612929,-0.014792,0.894518,0.765460,0.601410,-0.785142,-3.541295,0.052327,-1.969384,0.002000,0.118460,0.000000
491.000000,0.002000,0.308846,-0.046997,0.208191,-1.055286,0.868082,0.726024,-16.261512,2.778875,-11.422528,0.002000,3.261951,0.000000
492.000000,0.002000,-0.336192,-0.217690,-0.319198,1.341912,0.938593,0.004138,10.924023,6.690415,10.303653,0.002000,-0.065873,0.000000
493.000000,0.002000,-1.095788,0.078012,0.474762,2.261353,0.459274,0.952573,7.396135,-0.844699,-3.284228,0.002000,0.073945,0.000000
494.000000,0.002000,0.348996,-0.118065,-0.034454,-1.792296,1.550627,-1.570362,-16.066550,4.249599,0.325948,0.002000,-1.051143,0.000000
495.000000,0.002000,-0.126740,0.019576,0.031231,-2.017693,1.078178,3.302146,3.799794,-2.595147,-4.937264,0.002000,0.510153,0.000000
496.000000,0.002000,2.032407,0.181540,-1.165351,0.714752,0.811785,0.151847,-2.624860,-0.284642,1.496926,0.002000,0.122630,0.000000
497.000000,0.002000,2.602780,-5.229413,-3.094715,-0.492216,-2.044605,-0.694220,-0.180429,0.361552,0.213618,0.002000,-0.024271,0.000000
498.000000,0.002000,0.049182,0.635733,-0.345332,-2.049275,0.070381,0.661526,-2.075849,-13.431577,7.603144,0.002000,1.612929,0.000000
499.000000,0.002000,-0.297270,-1.845829,1.658469,-1.089962,0.020023,0.434650,0.335816,2.033254,-1.879621,0.002000,0.308846,0.000000
500.000000,0.002000,0.290384,0.442240,0.532605,0.609122,-1.053936,1.824030,-4.951932,-8.384866,-11.057152,0.002000,-0.336192,0.000000
501.000000,0.002000,-0.010399,-0.126367,-0.056241,2.400313,-0.089895,-1.679261,0.239468,10.018113,1.079152,0.002000,-1.095788,0.000000
502.000000,0.002000,-0.484513,-0.715739,0.536885,2.940558,0.403191,0.162358,4.530800,7.783184,-5.068802,0.002000,0.348996,0.000000
503.000000,0.002000,0.047302,0.491625,-0.151340,-0.045730,1.001795,3.407166,-2.201954,-15.629945,6.420078,0.002000,-0.126740,0.000000
504.000000,0.002000,-1.223846,-0.000111,-0.257541,1.276567,-0.937110,2.115163,8.167281,0.495142,1.489987,0.002000,2.032407,0.000000
505.000000,0.002000,0.211975,0.366209,0.145140,-3.340315,-3.858267,0.170085,-10.901123,-17.984930,-5.584851,0.002000,2.602780,0.000000
506.000000,0.002000,-0.158061,-0.633671,0.241149,0.007150,2.492954,-0.048839,3.479371,14.729154,-4.985373,0.002000,0.049182,0.000000
507.000000,0.002000,0.357716,-0.101068,0.817449,-3.223298,0.630714,-0.417715,-3.327615,1.611405,-9.483644,0.002000,-0.297270,0.000000
508.000000,0.002000,1.706579,-1.401752,-0.811671,0.367214,-0.585420,0.653460,-2.110201,1.789658,0.895535,0.002000,0.290384,0.000000
509.000000,0.002000,-0.460919,-0.900790,-0.878349,0.484922,2.163362,0.762280,2.277788,4.527651,4.369995,0.002000,-0.010399,0.000000
510.000000,0.002000,-1.485886,0.853115,1.331769,-1.598921,0.292342,2.335838,2.159528,-1.255283,-2.185890,0.002000,-0.484513,0.000000
511.000000,0.002000,2.438481,-3.055059,-1.829181,1.715269,-1.053800,1.032651,-0.604744,0.744265,0.479082,0.002000,0.047302,0.000000
512.000000,0.002000,0.113542,0.070284,0.471806,2.889418,-0.130486,-1.760418,-2.675343,-2.343362,-15.939670,0.002000,-1.223846,0.000000
513.000000,0.002000,-0.087128,0.062771,-1.375870,-2.613239,-0.678523,-2.573323,0.205669,-0.107897,6.587416,0.002000,0.211975,0.000000
514.000000,0.002000,-0.775105,0.687654,0.137909,2.612117,0.135483,-1.296346,7.593203,-6.564769,-1.572848,0.002000,-0.158061,0.000000
515.000000,0.002000,-0.914915,2.311399,1.328222,-0.544318,1.586355,1.158852,0.711407,-1.951151,-1.130663,0.002000,0.357716,0.000000
516.000000,0.002000,0.409430,-0.142400,0.117296,-0.318036,0.176857,0.333342,-16.430954,6.567057,-6.718865,0.002000,1.706579,0.000000
517.000000,0.002000,0.322880,-0.525118,0.393747,0.213100,0.462396,2.352699,-6.420403,10.199218,-7.732671,0.002000,-0.460919,0.000000
518.000000,0.002000,0.116087,0.447468,-0.009269,-1.054627,-0.236061,1.792345,-7.722746,-15.080287,-0.911918,0.002000,-1.485886,0.000000
519.000000,0.002000,0.079657,-0.563658,0.000248,0.445063,-2.921056,0.093041,-2.733528,18.162535,0.187099,0.002000,2.438481,0.000000
520.000000,0.002000,-0.601153,0.321615,-0.204296,-0.116813,-2.029563,0.329541,12.102714,-7.425565,6.101252,0.002000,0.113542,0.000000
521.000000,0.002000,0.283400,0.798036,0.073388,-2.028694,1.689143,1.575304,-5.056383,-12.163959,-1.389040,0.002000,-0.087128,0.000000
522.000000,0.002000,0.340119,-0.146489,-0.019917,1.429378,2.387241,0.958303,-14.589952,8.731667,-0.376358,0.002000,-0.775105,0.000000
523.000000,0.002000,-0.191663,0.001004,-0.618106,2.521653,-1.194185,1.011835,6.609089,0.281495,15.264031,0.002000,-0.914915,0.000000
524.000000,0.002000,0.875476,0.994538,-0.049937,1.930302,2.111450,-0.087657,-4.802686,-5.361103,0.291190,0.002000,0.409430,0.000000
525.000000,0.002000,1.816814,1.567255,-0.384456,-0.173550,-0.136863,0.557310,-2.112665,-1.804175,0.427251,0.002000,0.322880,0.000000
526.000000,0.002000,-0.534951,-0.452071,-0.101700,-0.235467,-1.377419,1.464722,11.360227,10.966072,2.448296,0.002000,0.116087,0.000000
527.000000,0.002000,0.192589,0.015820,-0.223564,-1.551901,-1.456548,-3.816833,-10.688620,2.557875,11.010039,0.002000,0.079657,0.000000
528.000000,0.002000,1.444473,-1.084056,2.089547,1.721342,-0.312957,-0.472713,-1.222495,0.925498,-1.858237,0.002000,-0.601153,0.000000
529.000000,0.002000,0.278205,0.190636,-0.481281,-0.671127,1.675096,-1.655007,-7.793604,-5.453766,14.171661,0.002000,0.283400,0.000000
530.000000,0.002000,-0.468058,-1.958120,-0.925698,1.307861,-2.646108,-1.097572,0.655239,2.983339,1.400155,0.002000,0.340119,0.000000
531.000000,0.002000,0.706767,-0.066223,1.871988,-0.881680,-0.028867,0.103828,-1.469408,0.261325,-3.665336,0.002000,-0.191663,0.000000
532.000000,0.002000,-0.631417,0.918863,1.019311,2.370603,0.949173,1.181814,2.379784,-3.344573,-3.924248,0.002000,0.875476,0.000000
533.000000,0.002000,1.215756,0.699650,-1.272313,-1.250549,1.198066,-0.884242,-2.717568,-1.561580,2.674592,0.002000,1.816814,0.000000
534.000000,0.002000,-0.194261,0.099956,0.060648,2.194169,-0.162794,1.923044,11.212015,-6.445804,-5.479224,0.002000,-0.534951,0.000000
535.000000,0.002000,1.391837,1.338556,1.643833,1.052522,1.090909,1.066285,-1.521588,-1.376225,-1.772345,0.002000,0.192589,0.000000
536.000000,0.002000,-1.161507,-2.131095,-0.345759,-0.354410,-0.413931,-0.162278,1.318672,2.482339,0.411389,0.002000,1.444473,0.000000
537.000000,0.002000,0.475202,0.016497,1.142520,-1.456096,-1.750836,-1.014773,-2.914209,0.317451,-6.841886,0.002000,0.278205,0.000000
538.000000,0.002000,1.135920,-1.512297,-0.418390,-2.024481,1.802204,0.956720,-2.456032,2.821446,0.887552,0.002000,-0.468058,0.000000
539.000000,0.002000,0.029911,0.367619,1.093658,-1.777435,-0.715393,2.990279,-0.439196,-2.511560,-7.643226,0.002000,0.706767,0.000000
540.000000,0.002000,-0.329439,0.821510,-0.090946,-0.680013,-1.754691,-0.143904,5.341020,-11.346814,0.780267,0.002000,-0.631417,0.000000
541.000000,0.002000,0.292627,1.573344,1.384495,-0.358842,-0.295566,-0.183363,-0.389079,-2.765524,-2.384892,0.002000,1.215756,0.000000
542.000000,0.002000,0.454687,0.037678,0.962359,-2.419268,-0.044191,0.621159,-3.888418,0.016670,-8.844663,0.002000,-0.194261,0.000000
543.000000,0.002000,0.140062,-0.133104,0.414800,2.340893,0.910183,3.491625,-5.219265,4.668103,-16.093442,0.002000,1.391837,0.000000
544.000000,0.002000,-0.106918,-0.284302,0.380836,1.769303,0.878097,-1.749892,2.353499,6.710398,-15.203600,0.002000,-1.161507,0.000000
545.000000,0.002000,0.578988,-1.590684,-0.207365,1.245508,-1.510291,-0.794879,-1.889853,4.360764,0.627395,0.002000,0.475202,0.000000
546.000000,0.002000,0.040657,-0.144604,0.062622,-3.071361,-1.179471,1.128215,-4.338719,9.040165,-4.717818,0.002000,1.135920,0.000000
547.000000,0.002000,0.142995,0.431675,-0.328440,-0.431353,1.666599,-2.279195,-6.758674,-12.223110,10.235132,0.002000,0.029911,0.000000
548.000000,0.002000,-0.915776,1.637297,1.448870,0.283577,0.900431,0.361490,1.235887,-2.007549,-1.870045,0.002000,-0.329439,0.000000
549.000000,0.002000,-2.142282,-0.128646,0.326064,-1.305060,1.821253,-1.056036,3.441308,0.351200,-0.388795,0.002000,0.292627,0.000000
550.000000,0.002000,0.102975,-0.814658,0.154265,-0.373279,-2.476935,-1.681247,-1.513086,12.345649,-1.704023,0.002000,0.454687,0.000000
551.000000,0.002000,0.976452,0.942137,1.117228,2.795165,1.338006,-0.149095,-3.499091,-2.238808,-2.733748,0.002000,0.140062,0.000000
552.000000,0.002000,0.184488,0.043325,0.872975,-1.434371,1.511033,0.989662,-2.008040,-0.740619,-11.043311,0.002000,-0.106918,0.000000
553.000000,0.002000,1.017419,-0.731666,-2.022507,1.677124,-1.283076,-0.643385,-1.336205,0.927607,2.601601,0.002000,0.578988,0.000000
554.000000,0.002000,0.251139,-0.075617,0.076616,-1.542719,-1.095272,-0.907908,-8.891861,7.070479,-2.628362,0.002000,0.040657,0.000000
555.000000,0.002000,0.044323,-0.960990,-0.324239,1.290231,-1.812465,-1.039427,-0.647845,9.909584,2.992448,0.002000,0.142995,0.000000
556.000000,0.002000,-0.258297,-0.233683,0.511340,-0.330450,-2.515077,2.283100,5.982011,6.709210,-14.257482,0.002000,-0.915776,0.000000
557.000000,0.002000,0.279601,0.070712,0.832357,-2.120305,-0.093692,0.296406,-3.052081,-1.524833,-11.001810,0.002000,-2.142282,0.000000
558.000000,0.002000,0.868206,1.211766,1.923955,1.274517,-0.701686,1.508042,-1.378638,-0.989566,-1.641993,0.002000,0.102975,0.000000
559.000000,0.002000,-1.077112,-0.641442,-0.175921,-0.307532,1.926519,-2.978253,7.103838,4.261702,1.848192,0.002000,0.976452,0.000000
560.000000,0.002000,0.055441,0.025369,-2.038645,0.243677,2.476678,-1.145071,-0.187610,-0.092824,3.635163,0.002000,0.184488,0.000000
561.000000,0.002000,0.037558,-0.326596,-0.247194,1.167221,3.566319,-1.118692,-2.206123,9.873590,11.883002,0.002000,1.017419,0.000000
562.000000,0.002000,-0.022318,-1.975351,-0.008673,-2.921721,0.816400,0.080358,0.377917,3.228370,0.156266,0.002000,0.251139,0.000000
563.000000,0.002000,1.673098,-1.099580,-1.043931,1.010568,-0.859348,0.540907,-2.379286,1.452140,1.442190,0.002000,0.044323,0.000000
564.000000,0.002000,2.133609,-1.201850,0.290370,-0.001822,-1.354324,1.084931,-2.475929,1.420648,-0.353757,0.002000,-0.258297,0.000000
565.000000,0.002000,1.568170,-1.054567,-0.598379,-2.708144,0.041451,0.075314,-2.857340,1.991057,1.040788,0.002000,0.279601,0.000000
566.000000,0.002000,0.623337,0.455520,-0.991523,-0.071426,-1.426422,1.816429,-3.914143,-2.589930,5.799046,0.002000,0.868206,0.000000
567.000000,0.002000,1.990449,-0.509292,1.622882,1.758450,-0.095473,0.599163,-1.863153,0.538460,-1.648773,0.002000,-1.077112,0.000000
568.000000,0.002000,-0.142499,-0.242287,0.128315,-0.161066,2.701952,-1.993995,6.036061,11.943756,-8.620364,0.002000,0.055441,0.000000
569.000000,0.002000,-0.280576,0.728185,-1.507627,-0.773622,1.542076,1.239027,0.746330,-2.030069,4.251055,0.002000,0.037558,0.000000
570.000000,0.002000,0.500867,-3.952076,2.843978,0.551446,-0.176586,0.443235,-0.087038,0.663788,-0.479218,0.002000,-0.022318,0.000000
571.000000,0.002000,-0.071024,0.585370,0.496441,-1.546839,-1.067133,2.258031,1.368762,-9.886718,-9.314297,0.002000,1.673098,0.000000
572.000000,0.002000,2.003559,-0.495829,0.176526,1.243139,-1.265169,-0.812625,-3.411041,0.887248,-0.275635,0.002000,2.133609,0.000000
573.000000,0.002000,-0.009949,0.103094,-0.049925,-0.363452,-3.152771,1.541786,-1.725867,-5.630944,-0.269345,0.002000,1.568170,0.000000
574.000000,0.002000,1.225976,-0.563991,-0.750176,-1.599734,-0.483194,-1.386829,-4.429780,2.056699,2.643298,0.002000,0.623337,0.000000
575.000000,0.002000,-0.293890,1.873522,0.302109,0.694275,2.619661,0.027302,0.619271,-3.897571,-0.520664,0.002000,1.990449,0.000000
576.000000,0.002000,-0.352882,-0.763259,0.195453,-1.981666,-0.281643,-0.449763,4.600152,10.999320,-2.618097,0.002000,-0.142499,0.000000
577.000000,0.002000,-0.417313,0.217319,0.570937,-1.752363,0.040495,-1.842764,7.871730,-3.953196,-10.986949,0.002000,-0.280576,0.000000
578.000000,0.002000,2.264256,3.547714,0.039999,-0.162702,-0.398522,-1.028771,-0.613918,-0.946632,-0.009619,0.002000,0.500867,0.000000
579.000000,0.002000,0.027315,-1.895485,1.681781,0.019894,0.044809,0.899023,-0.079293,2.003141,-1.826349,0.002000,-0.071024,0.000000
580.000000,0.002000,0.017939,-0.164292,-0.348626,3.287754,-3.678550,0.194013,-2.238547,9.189811,15.955876,0.002000,2.003559,0.000000
581.000000,0.002000,0.283983,0.304618,-0.295678,2.370795,-3.046275,-1.307530,-10.228707,-10.394262,10.410535,0.002000,-0.009949,0.000000
582.000000,0.002000,0.803273,0.705887,2.325702,0.082994,1.115310,1.961982,-0.937981,-0.741832,-2.389832,0.002000,1.225976,0.000000
583.000000,0.002000,-0.508437,1.099192,4.207570,1.168833,1.489716,0.037468,0.112590,-0.253567,-0.994963,0.002000,-0.293890,0.000000
584.000000,0.002000,-0.237740,0.339523,-0.485120,-1.869047,2.498896,0.001412,6.305909,-8.757080,11.849987,0.002000,-0.352882,0.000000
585.000000,0.002000,-2.104402,-0.402092,0.960434,0.241108,-0.817134,0.629351,2.480202,0.232943,-1.604412,0.002000,-0.417313,0.000000
586.000000,0.002000,0.427752,0.051933,-0.328000,2.424010,-0.828636,-0.648184,-15.916293,1.164814,7.587827,0.002000,2.264256,0.000000
587.000000,0.002000,0.582525,2.202119,-1.466100,1.003847,0.663379,-0.469559,-0.553896,-2.011087,1.399288,0.002000,0.027315,0.000000
588.000000,0.002000,-0.396910,1.094620,-0.416766,0.518669,-2.533744,0.096920,2.483182,-6.998053,2.733861,0.002000,0.017939,0.000000
589.000000,0.002000,0.512789,0.263068,1.349992,-0.887748,1.832659,-0.854418,-2.089034,-1.058109,-5.345497,0.002000,0.283983,0.000000
590.000000,0.002000,1.273407,2.279043,0.220899,1.256049,0.995201,1.431639,-1.167596,-2.314047,-0.426206,0.002000,0.803273,0.000000
591.000000,0.002000,0.363407,-0.101730,-0.133733,-1.867612,-2.311168,0.571764,-14.084836,2.899442,3.479205,0.002000,-0.508437,0.000000
592.000000,0.002000,-0.349385,-0.157566,-0.213486,-2.387471,-2.184107,-0.879188,12.563711,7.687493,8.554374,0.002000,-0.237740,0.000000
593.000000,0.002000,-1.557086,0.959466,1.382657,-1.044216,1.300858,0.837458,2.110537,-1.423199,-2.016093,0.002000,-2.104402,0.000000
594.000000,0.002000,-0.878387,-1.912117,0.065588,-0.547508,-1.663697,1.875380,1.484510,3.195064,-0.147734,0.002000,0.427752,0.000000
595.000000,0.002000,0.197713,0.317952,0.152860,-1.367965,3.829185,0.380994,-10.125882,-15.410848,-13.966173,0.002000,0.582525,0.000000
596.000000,0.002000,-2.198717,1.961789,0.085183,-1.514379,0.571540,0.500161,1.609194,-1.476008,-0.028557,0.002000,-0.396910,0.000000
597.000000,0.002000,-1.607856,-0.582693,-0.994395,0.428428,-1.664660,-0.131882,3.096371,1.203234,1.793280,0.002000,0.512789,0.000000
598.000000,0.002000,-0.196015,0.399167,-0.072190,-1.670628,-1.369996,-3.268154,8.213241,-16.813632,2.729224,0.002000,1.273407,0.000000
599.000000,0.002000,-1.105889,-0.794189,-0.249398,-0.107243,0.768977,1.995276,5.325630,3.820897,1.240083,0.002000,0.363407,0.000000
600.000000,0.002000,-0.619478,-1.153172,-0.119601,1.393948,1.011199,0.997918,3.175682,5.832530,0.808949,0.002000,-0.349385,0.000000
601.000000,0.002000,0.140761,0.144417,0.882064,-2.187727,2.429475,-0.587779,-1.658055,-2.107891,-10.775931,0.002000,-1.557086,0.000000
602.000000,0.002000,-0.204586,0.032118,0.100695,-3.899495,3.219523,-0.937228,10.259596,-4.303588,-10.662493,0.002000,-0.878387,0.000000
603.000000,0.002000,0.136196,-1.410677,-1.055901,-2.106163,-1.276753,-1.350551,-0.269455,3.708840,2.693639,0.002000,0.197713,0.000000
604.000000,0.002000,0.382242,0.594949,0.085827,2.144831,0.285155,0.012989,-10.659956,-13.076817,5.045635,0.002000,-2.198717,0.000000
605.000000,0.002000,-0.543401,-0.005766,-0.078507,1.920029,1.619390,2.551260,17.405544,-0.012587,1.897483,0.002000,-1.607856,0.000000
606.000000,0.002000,0.597521,-0.885367,0.191829,4.224921,0.122805,-1.755084,-4.658878,8.105653,-2.488458,0.002000,-0.196015,0.000000
607.000000,0.002000,0.087937,0.486916,-1.028088,1.868388,1.106502,0.920353,-0.720030,-3.623734,7.646882,0.002000,-1.105889,0.000000
608.000000,0.002000,-0.259491,0.371723,-0.033988,-0.811401,0.523052,1.635752,12.070405,-14.955017,-0.321420,0.002000,-0.619478,0.000000
609.000000,0.002000,1.215144,0.757794,0.610269,2.320878,0.524947,1.703458,-4.328126,-2.686970,-1.969577,0.002000,0.140761,0.000000
610.000000,0.002000,-0.256222,-0.336903,-0.189452,0.690277,2.019972,0.195804,9.757109,13.190216,8.636968,0.002000,-0.204586,0.000000
611.000000,0.002000,0.005210,-0.280732,0.428232,-0.468108,-1.240113,-1.690953,-0.590715,8.401038,-16.036264,0.002000,0.136196,0.000000
612.000000,0.002000,-0.332617,0.080464,-0.200052,-1.308586,0.567584,1.012754,15.151175,-2.507310,9.384149,0.002000,0.382242,0.000000
613.000000,0.002000,-0.177065,0.100544,-0.309597,0.204689,1.541824,-3.322352,9.783111,-4.685200,15.980957,0.002000,-0.543401,0.000000
614.000000,0.002000,0.270655,-0.083550,-0.240618,-1.140509,-1.279282,-4.021701,-11.451925,2.565610,10.843204,0.002000,0.597521,0.000000
615.000000,0.002000,0.046010,1.006183,-0.005330,0.924735,1.911356,1.239441,-0.743888,-10.646098,-0.040801,0.002000,0.087937,0.000000
616.000000,0.002000,-0.360725,0.090547,0.509442,-2.931892,-0.232293,-0.994283,8.436647,-2.407000,-13.248009,0.002000,-0.259491,0.000000
617.000000,0.002000,-0.500558,-0.320630,-0.520612,-0.438530,0.738544,-0.705585,8.432967,6.181444,9.156140,0.002000,1.215144,0.000000
618.000000,0.002000,-0.216022,0.349176,-0.067465,-0.077107,-1.333313,-1.518665,7.040518,-15.431741,4.105987,0.002000,-0.256222,0.000000
619.000000,0.002000,0.457221,0.663712,-2.314357,0.544792,0.443395,-1.939142,-0.457283,-0.700951,2.780517,0.002000,0.005210,0.000000
620.000000,0.002000,0.158809,0.407736,0.320993,-2.383817,-0.955570,-1.790376,-5.892726,-11.302176,-11.355858,0.002000,-0.332617,0.000000
621.000000,0.002000,0.351589,0.317334,0.253429,1.082472,3.702812,-1.634206,-12.121482,-11.058956,-8.242993,0.002000,-0.177065,0.000000
622.000000,0.002000,0.111911,0.132242,-0.608892,3.167859,-2.331766,0.675796,-3.327961,-4.715901,15.578771,0.002000,0.270655,0.000000
623.000000,0.002000,0.091349,-0.170703,-0.071661,-1.099419,1.873709,-0.418076,-6.776197,9.979200,5.675470,0.002000,0.046010,0.000000
624.000000,0.002000,-0.426439,0.133303,-0.035895,-1.168237,-1.110595,0.501696,16.766740,-9.341839,3.476901,0.002000,-0.360725,0.000000
625.000000,0.002000,0.502628,2.048812,0.707197,0.146265,1.649722,1.007957,-0.698451,-2.832814,-1.006134,0.002000,-0.500558,0.000000
626.000000,0.002000,0.315575,-0.213786,0.434350,3.400017,1.570988,0.155536,-8.227213,6.322685,-12.759579,0.002000,-0.216022,0.000000
627.000000,0.002000,-0.064634,0.204048,-0.589875,1.340454,1.578261,-0.413348,1.103491,-4.616890,14.487654,0.002000,0.457221,0.000000
628.000000,0.002000,-0.179141,0.597626,-0.578460,1.459869,-1.400939,-2.033877,3.483488,-9.163576,8.882884,0.002000,0.158809,0.000000
629.000000,0.002000,-0.529264,0.133030,-0.831325,-2.021857,1.052350,2.391286,5.557574,-1.333488,8.559656,0.002000,0.351589,0.000000
630.000000,0.002000,-0.382315,0.035688,0.059713,-2.609070,-0.867993,3.089452,16.272859,1.849011,-2.787919,0.002000,0.111911,0.000000
631.000000,0.002000,2.615992,-0.477248,0.871730,0.732423,0.413245,0.364623,-2.215597,0.377869,-0.699992,0.002000,0.091349,0.000000
632.000000,0.002000,-0.522859,-0.424794,0.279248,-0.231083,2.157991,-0.398400,9.758194,9.048630,-5.482571,0.002000,-0.426439,0.000000
633.000000,0.002000,0.493357,1.631813,-1.810658,1.716812,0.670814,-1.827203,-0.653761,-1.891683,2.131593,0.002000,0.502628,0.000000
634.000000,0.002000,-0.699551,0.314815,-0.456636,-1.673509,-0.488017,1.006243,10.372024,-6.210153,3.525519,0.002000,0.315575,0.000000
635.000000,0.002000,0.197528,0.292219,0.151106,2.311925,0.608066,2.965138,-10.110503,-6.395166,-10.628612,0.002000,-0.064634,0.000000
636.000000,0.002000,-0.280069,-0.491526,0.258809,0.575739,-0.192683,-0.572589,7.540480,11.870313,-5.498786,0.002000,-0.179141,0.000000
637.000000,0.002000,1.372701,1.626073,-0.776853,0.443242,0.701956,0.397770,-1.804519,-2.251209,1.211911,0.002000,-0.529264,0.000000
638.000000,0.002000,2.521924,0.285095,0.897931,0.736076,0.147759,0.408470,-2.313507,-0.247942,-0.794483,0.002000,-0.382315,0.000000
639.000000,0.002000,0.653437,-0.248555,-0.729525,-0.325026,0.675742,3.117728,-6.871845,2.673600,8.254234,0.002000,2.615992,0.000000
640.000000,0.002000,-1.205661,0.048403,-0.347186,0.143650,-0.204572,-0.364281,7.598689,-0.039344,2.389602,0.002000,-0.522859,0.000000
641.000000,0.002000,0.300907,0.412457,0.878514,-1.404814,1.498986,-0.321844,-2.710750,-3.942052,-8.587475,0.002000,0.493357,0.000000
642.000000,0.002000,-0.011724,-0.098254,0.152103,-0.491929,1.134416,3.803176,-2.032215,3.744891,-13.695532,0.002000,-0.699551,0.000000
643.000000,0.002000,-2.192108,-0.392961,0.018407,-1.299068,1.504569,1.021019,3.515343,0.737800,0.223041,0.002000,0.197528,0.000000
644.000000,0.002000,0.768412,-1.005739,-0.756981,0.020285,1.959065,-0.284613,-3.059733,4.160925,2.744221,0.002000,-0.280069,0.000000
645.000000,0.002000,-0.214733,0.234679,0.218472,0.346171,2.575724,0.276000,10.236035,-9.404547,-12.597051,0.002000,1.372701,0.000000
646.000000,0.002000,-1.027877,1.146952,2.347838,-0.204726,0.760749,1.421332,0.729392,-0.846878,-2.172374,0.002000,2.521924,0.000000
647.000000,0.002000,1.062230,-1.228228,-1.127881,0.556316,-0.604145,1.159227,-2.157653,2.560386,2.111979,0.002000,0.653437,0.000000
648.000000,0.002000,1.229575,-0.659177,-0.009472,-1.072011,-1.093534,0.574294,-5.565405,3.083203,0.027533,0.002000,-1.205661,0.000000
649.000000,0.002000,-0.023847,-0.138008,0.033902,-0.276613,-1.312223,-1.052905,-0.366371,8.861813,0.897976,0.002000,0.300907,0.000000
650.000000,0.002000,-1.423035,0.214646,0.597105,-1.889229,-3.236322,0.598137,5.036011,-0.909707,-2.131270,0.002000,-0.011724,0.000000
651.000000,0.002000,-1.406207,1.050010,1.601632,-2.402004,0.924286,0.465329,1.635629,-1.391076,-2.031271,0.002000,-2.192108,0.000000
652.000000,0.002000,0.478823,0.406220,-0.317703,-1.200860,1.225376,1.948967,-10.396470,-8.556491,6.369043,0.002000,0.768412,0.000000
653.000000,0.002000,-0.934813,1.749824,0.564163,-1.003520,1.681310,1.587767,1.663865,-3.040619,-0.947543,0.002000,-0.214733,0.000000
654.000000,0.002000,-0.800652,0.772089,0.778560,2.172876,-1.103222,0.131471,3.871714,-3.747904,-3.835360,0.002000,-1.027877,0.000000
655.000000,0.002000,1.889574,-0.492520,0.439868,0.893853,1.817624,1.336560,-3.476548,0.908569,-0.793355,0.002000,1.062230,0.000000
656.000000,0.002000,0.528397,-0.040122,0.476779,-4.004806,0.303561,-0.886841,-9.181124,1.143499,-8.504694,0.002000,1.229575,0.000000
657.000000,0.002000,0.601731,-0.120786,0.028518,-0.357547,0.126732,2.301873,-17.360250,2.370966,-1.537822,0.002000,-0.023847,0.000000
658.000000,0.002000,0.592318,0.030205,-0.286222,-0.182728,0.029626,0.121762,-14.206235,-0.222740,8.316693,0.002000,-1.423035,0.000000
659.000000,0.002000,-0.373458,0.277644,1.572302,0.939452,0.715076,-0.364707,1.108754,-0.926292,-4.696058,0.002000,-1.406207,0.000000
660.000000,0.002000,0.530141,0.325875,0.058205,2.021992,-0.963488,-1.975381,-14.498097,-7.400730,-1.520327,0.002000,0.478823,0.000000
661.000000,0.002000,-0.399402,0.113586,-0.021724,3.635652,2.377106,2.189158,14.547770,-5.599267,-0.080166,0.002000,-0.934813,0.000000
662.000000,0.002000,-2.095260,0.235953,0.540186,-1.404772,-0.484422,-1.268961,2.879462,-0.275010,-1.068963,0.002000,-0.800652,0.000000
663.000000,0.002000,0.982610,0.205426,0.095800,-2.205813,-0.493006,-2.117731,-10.339823,-2.520486,-0.939268,0.002000,1.889574,0.000000
664.000000,0.002000,0.375865,-0.423007,-0.379485,1.072623,0.943379,-1.342590,-9.620040,9.679307,9.050059,0.002000,0.528397,0.000000
665.000000,0.002000,-0.799981,-0.209450,-0.215902,-0.453595,2.310778,0.334480,10.254737,5.071940,3.572236,0.002000,0.601731,0.000000
666.000000,0.002000,0.236181,0.172433,-0.856919,-0.390148,-1.589394,0.808472,-3.968892,-2.561199,9.953547,0.002000,0.592318,0.000000
667.000000,0.002000,-0.032915,0.657151,-0.859309,0.917086,1.065456,0.519060,0.055711,-5.736870,7.253283,0.002000,-0.373458,0.000000
668.000000,0.002000,0.310441,0.866149,1.462391,-1.102974,-0.237504,-1.029101,-0.769939,-2.078386,-3.948232,0.002000,0.530141,0.000000
669.000000,0.002000,-0.429124,0.000116,-0.189109,-1.501845,3.027507,3.346791,15.062759,-2.057413,10.998001,0.002000,-0.399402,0.000000
670.000000,0.002000,-0.192850,-0.264929,0.284055,-0.731814,2.820537,0.171257,8.064717,12.786830,-10.465988,0.002000,-2.095260,0.000000
671.000000,0.002000,-0.525325,-0.802360,-0.630383,1.656737,0.449765,2.058121,3.804685,6.016588,5.112863,0.002000,0.982610,0.000000
672.000000,0.002000,0.034638,0.072842,-0.107443,3.221072,0.697431,-0.847090,-3.269049,-2.957343,3.359138,0.002000,0.375865,0.000000
673.000000,0.002000,2.444218,-3.141965,-1.568898,0.212150,-1.134383,1.585584,-0.625196,0.805976,0.371702,0.002000,-0.799981,0.000000
674.000000,0.002000,0.358842,1.546672,0.898326,1.410781,1.510161,2.476768,-0.906773,-3.502210,-2.015630,0.002000,0.236181,0.000000
675.000000,0.002000,1.377616,1.229948,0.709172,-0.210842,1.616641,-0.241198,-2.554869,-2.397472,-1.346007,0.002000,-0.032915,0.000000
676.000000,0.002000,0.273256,0.251776,0.071024,-2.786890,-1.484185,0.818360,-15.020975,-10.465425,-5.315697,0.002000,0.310441,0.000000
677.000000,0.002000,0.062121,0.083561,-0.371477,3.205737,0.071919,2.506019,-5.766923,-2.884365,17.640461,0.002000,-0.429124,0.000000
678.000000,0.002000,0.048354,-0.516202,-0.044784,0.234322,1.331309,2.294068,-1.164525,17.517509,1.660826,0.002000,-0.192850,0.000000
679.000000,0.002000,-1.794411,0.682711,1.264877,-0.842174,1.114232,1.077602,2.424999,-0.901494,-1.829838,0.002000,-0.525325,0.000000
680.000000,0.002000,-0.880241,-1.003126,0.245229,-1.433877,-2.375552,1.746621,4.293334,4.979639,-1.196436,0.002000,0.034638,0.000000
681.000000,0.002000,-0.194304,-0.312083,0.122135,-1.310301,4.075038,-2.994805,7.702152,18.817233,-5.450784,0.002000,2.444218,0.000000
682.000000,0.002000,-0.243761,0.466892,0.059917,0.678082,-0.923652,0.075691,7.992946,-14.995807,-2.479338,0.002000,0.358842,0.000000
683.000000,0.002000,0.174747,0.760148,-1.183024,0.414361,-2.013383,2.825619,-0.812552,-3.624904,5.188477,0.002000,1.377616,0.000000
684.000000,0.002000,-1.093915,1.709324,-0.374719,0.257331,-0.737612,0.126153,1.941730,-3.000715,0.653634,0.002000,0.273256,0.000000
685.000000,0.002000,0.568261,-0.211107,0.037670,1.310733,2.537870,0.747644,-15.397390,6.449909,-1.985779,0.002000,0.062121,0.000000
686.000000,0.002000,-0.085597,0.087205,0.618338,0.576763,-1.629996,-1.978935,1.651288,-3.562878,-15.801493,0.002000,0.048354,0.000000
687.000000,0.002000,-0.316416,-2.960879,-1.025672,-0.116360,-1.773308,0.439714,0.166976,1.858960,0.654628,0.002000,-1.794411,0.000000
688.000000,0.002000,-0.445402,-0.308532,-0.864641,1.679933,2.510808,0.723219,3.850713,3.112068,8.019873,0.002000,-0.880241,0.000000
689.000000,0.002000,0.300622,2.162870,1.177844,-0.468636,1.734063,0.430695,-0.286840,-2.375020,-1.350477,0.002000,-0.194304,0.000000
690.000000,0.002000,-0.372105,-0.915707,-2.103037,0.434629,-1.251563,-1.595674,0.517908,1.259727,2.796363,0.002000,-0.243761,0.000000
691.000000,0.002000,-2.109698,-1.722998,0.194657,-0.876481,-1.289186,0.434758,1.871716,1.565093,-0.223007,0.002000,0.174747,0.000000
692.000000,0.002000,-0.104804,0.285334,-0.312599,0.406525,0.104795,2.452145,2.476373,-13.080869,12.132839,0.002000,-1.093915,0.000000
693.000000,0.002000,-0.035390,-0.162304,-0.349532,-2.259089,-3.351705,0.940111,0.842785,10.242102,14.853041,0.002000,0.568261,0.000000
694.000000,0.002000,0.262111,-0.062575,0.156530,-1.643840,-4.655005,1.602807,-12.342349,6.817720,-6.052310,0.002000,-0.085597,0.000000
695.000000,0.002000,-1.828189,0.762534,0.298068,-0.563133,-1.312173,0.268853,3.454581,-1.399901,-0.562176,0.002000,-0.316416,0.000000
696.000000,0.002000,2.369637,0.180983,-0.972369,2.370288,-0.146532,-0.630291,-2.532683,-0.189749,0.988771,0.002000,-0.445402,0.000000
697.000000,0.002000,-0.297810,-1.194864,0.124028,-1.658889,3.238226,-1.870427,1.873320,7.237233,-0.794894,0.002000,0.300622,0.000000
698.000000,0.002000,-0.001177,-0.018668,-0.286876,-0.478579,0.218499,0.179117,-2.825047,4.344689,12.304730,0.002000,-0.372105,0.000000
699.000000,0.002000,0.300591,-1.035336,0.183867,0.226430,-1.785411,0.311188,-2.659190,8.548022,-0.985618,0.002000,-2.109698,0.000000
700.000000,0.002000,-0.899103,0.211828,0.781138,2.081797,1.212603,1.545729,5.912091,-1.602401,-5.456708,0.002000,-0.104804,0.000000
701.000000,0.002000,0.153580,0.047525,0.239398,0.356228,-2.154982,-0.842362,-8.821547,-2.653661,-13.475080,0.002000,-0.035390,0.000000
702.000000,0.002000,-1.911223,0.380070,-1.517852,-1.440548,1.149741,0.405110,2.660038,-0.263130,1.850900,0.002000,0.262111,0.000000
703.000000,0.002000,0.849250,0.045895,-0.540494,-0.888157,-1.495856,2.468947,-8.638822,-0.353882,5.627368,0.002000,-1.828189,0.000000
704.000000,0.002000,2.355276,-0.102364,-1.451461,1.806026,0.699100,-0.511566,-2.133256,0.127300,1.408185,0.002000,2.369637,0.000000
705.000000,0.002000,0.709433,-0.015802,2.883504,0.942110,-0.610993,2.927706,-0.535954,0.097561,-2.102710,0.002000,-0.297810,0.000000
706.000000,0.002000,-1.291256,0.089288,-2.242597,-1.387540,-0.073698,-0.485386,1.353885,-0.072998,2.406290,0.002000,-0.001177,0.000000
707.000000,0.002000,1.965641,-0.023904,1.208984,0.334166,0.430735,1.730834,-2.588200,0.038251,-1.587781,0.002000,0.300591,0.000000
708.000000,0.002000,-0.633114,-0.612915,0.002542,-1.349059,-1.675594,1.713771,8.941990,8.334359,0.019907,0.002000,-0.899103,0.000000
709.000000,0.002000,0.225314,0.353362,0.307789,-2.625190,0.062585,-1.462682,-7.897568,-11.777820,-12.260814,0.002000,0.153580,0.000000
710.000000,0.002000,-0.136974,0.419831,-0.262272,-0.597353,3.054939,0.343010,5.259487,-15.469855,9.122037,0.002000,-1.911223,0.000000
711.000000,0.002000,0.541612,0.282983,-1.476035,-3.103043,0.916914,-1.306358,-1.740677,-0.778124,4.895976,0.002000,0.849250,0.000000
712.000000,0.002000,-0.256488,0.148090,-0.114751,-1.486681,1.106017,0.162319,14.533552,-9.090177,5.617430,0.002000,2.355276,0.000000
713.000000,0.002000,-0.808794,1.345609,-1.086988,1.284730,0.787882,-0.134244,1.680731,-2.742269,2.416343,0.002000,0.709433,0.000000
714.000000,0.002000,0.348538,0.199994,-0.550925,1.850770,2.407000,-0.957086,-1.103407,-2.254122,15.550223,0.002000,-1.291256,0.000000
715.000000,0.002000,-0.708072,-1.380432,2.225495,-1.292132,-1.897441,1.498716,0.613916,1.393741,-2.086956,0.002000,1.965641,0.000000
716.000000,0.002000,0.515969,-1.838650,-1.513647,-0.550921,-0.910292,-0.106102,-0.562463,2.231719,1.715569,0.002000,-0.633114,0.000000
717.000000,0.002000,-1.702761,-0.596458,1.345462,-0.099300,-0.753567,-0.465904,2.509554,0.904335,-2.097470,0.002000,0.225314,0.000000
718.000000,0.002000,-0.355573,0.302538,-0.518684,3.122425,3.998730,1.197160,6.665118,-6.543618,11.076603,0.002000,-0.136974,0.000000
719.000000,0.002000,-2.075868,-0.800000,-0.105849,-0.238895,-1.582460,-0.867412,2.983499,1.205615,0.230060,0.002000,0.541612,0.000000
720.000000,0.002000,2.342216,0.818329,-0.425389,1.387851,0.131172,-1.230672,-2.400029,-1.046498,0.161591,0.002000,-0.256488,0.000000
721.000000,0.002000,0.042822,-0.554423,0.076193,-1.541092,-0.209555,-1.152544,-1.413361,17.889851,-2.832789,0.002000,-0.808794,0.000000
722.000000,0.002000,1.071726,-0.163695,-0.043605,1.503795,-0.404524,0.683853,-9.362693,1.385630,0.119368,0.002000,0.348538,0.000000
723.000000,0.002000,-0.175879,0.257691,0.080744,-3.501085,-0.848139,-1.423463,14.509079,-14.409661,-6.830360,0.002000,-0.708072,0.000000
724.000000,0.002000,0.660114,-0.067467,-1.335976,3.561745,0.110064,-1.325646,-2.521248,0.360037,5.153875,0.002000,0.515969,0.000000
725.000000,0.002000,0.172638,0.816933,0.237199,-0.907981,-0.213679,-1.937570,-2.769039,-12.480535,-0.428234,0.002000,-1.702761,0.000000
726.000000,0.002000,-1.341468,-1.866574,-0.800832,0.055777,-0.160555,-0.787286,1.594732,2.288982,0.987078,0.002000,-0.355573,0.000000
727.000000,0.002000,1.033762,-0.448461,-0.988727,-1.172860,1.610817,-0.448171,-3.680196,1.905326,4.461853,0.002000,-2.075868,0.000000
728.000000,0.002000,-0.512279,0.090502,0.562031,0.374846,2.502542,1.942910,8.088335,-2.073654,-10.441057,0.002000,2.342216,0.000000
729.000000,0.002000,0.221307,-0.350397,0.128654,2.691884,3.068500,-0.208076,-9.973974,15.266861,-5.136489,0.002000,0.042822,0.000000
730.000000,0.002000,0.548062,-0.230819,-0.048209,2.357466,3.436887,-0.513228,-13.429337,4.441493,0.156141,0.002000,1.071726,0.000000
731.000000,0.002000,0.525825,-0.128587,-0.288620,1.773988,0.854147,-0.378700,-13.442534,3.010174,8.325897,0.002000,-0.175879,0.000000
732.000000,0.002000,0.583579,-0.320678,-0.208496,0.010621,2.924467,-1.042302,-12.548015,6.673023,5.039713,0.002000,0.660114,0.000000
733.000000,0.002000,0.963998,0.377502,1.597376,0.750353,2.635932,1.290968,-2.032468,-0.851468,-3.331243,0.002000,0.172638,0.000000
734.000000,0.002000,0.140438,-0.185715,-0.077796,-2.450039,-1.288607,-1.636823,-10.428790,9.089932,7.326496,0.002000,-1.341468,0.000000
735.000000,0.002000,-0.275419,0.699936,1.377536,1.564633,-0.853168,-0.446237,0.848409,-2.783695,-4.728089,0.002000,1.033762,0.000000
736.000000,0.002000,0.289716,-0.434565,0.200524,2.805163,-0.829002,-0.864599,-8.882369,13.560211,-7.912417,0.002000,-0.512279,0.000000
737.000000,0.002000,0.021864,0.141450,-0.375739,1.187675,1.063874,-2.204522,-1.290191,-2.167688,14.622375,0.002000,0.221307,0.000000
738.000000,0.002000,-2.602485,0.673221,1.531945,-1.307690,0.203375,0.988112,1.726738,-0.454443,-1.025821,0.002000,0.548062,0.000000
739.000000,0.002000,0.014063,-1.811641,3.619894,0.639206,0.831605,-0.091620,-0.003872,0.537032,-1.070024,0.002000,0.525825,0.000000
740.000000,0.002000,-0.114849,-0.024862,-0.144316,-0.035332,3.137195,-0.768029,1.436704,-1.756977,13.835068,0.002000,0.583579,0.000000
741.000000,0.002000,-0.589893,0.105618,0.377118,-0.214588,0.860988,-3.236825,11.536954,-2.505229,-8.469271,0.002000,0.963998,0.000000
742.000000,0.002000,0.123125,0.115771,0.543584,-1.003652,-1.502847,-0.172098,-2.050448,-2.590473,-14.594393,0.002000,0.140438,0.000000
743.000000,0.002000,0.538188,-1.000637,0.664827,0.397868,0.950253,-2.083061,-3.318971,5.228204,-3.740873,0.002000,-0.275419,0.000000
744.000000,0.002000,0.202675,-0.053738,0.334427,-0.126405,2.161845,3.365336,-6.491335,1.594190,-15.225317,0.002000,0.289716,0.000000
745.000000,0.002000,2.645686,-1.477069,0.908096,2.094002,-0.140517,-1.334494,-1.609258,0.915160,-0.561602,0.002000,0.021864,0.000000
746.000000,0.002000,-2.169445,-0.797386,-0.466039,-0.564829,-0.300835,-0.040062,2.795792,1.034750,0.535100,0.002000,-2.602485,0.000000
747.000000,0.002000,0.567161,-0.817863,0.678636,0.668823,-3.273745,-2.135001,-4.025112,5.245001,-4.542807,0.002000,0.014063,0.000000
748.000000,0.002000,0.402824,-2.683129,-0.614713,0.530950,-1.252470,-0.067205,-0.309418,2.348770,0.534441,0.002000,-0.114849,0.000000
749.000000,0.002000,2.425594,0.898031,0.874673,1.915478,0.617189,0.914802,-2.253990,-0.787507,-0.875203,0.002000,-0.589893,0.000000
750.000000,0.002000,0.161942,0.155867,0.046552,-0.947447,1.394094,2.077102,-9.350830,-7.807526,-5.350246,0.002000,0.123125,0.000000
751.000000,0.002000,0.398110,-0.218418,0.551985,-0.087987,-2.981749,1.881302,-8.346810,4.411134,-11.225452,0.002000,0.538188,0.000000
752.000000,0.002000,2.484141,-1.980609,0.907384,-0.130757,1.500515,0.778940,-1.314062,1.073311,-0.496164,0.002000,0.202675,0.000000
753.000000,0.002000,0.437095,0.850744,-0.868317,-0.872280,-1.395848,1.371848,-3.195949,-4.479985,5.401975,0.002000,2.645686,0.000000
754.000000,0.002000,-0.552720,-0.442852,0.225797,3.234313,1.940575,-1.370648,10.189178,9.303540,-3.601013,0.002000,-2.169445,0.000000
755.000000,0.002000,-1.159026,1.594555,0.913655,-1.219219,0.500598,-1.370426,1.848397,-2.485035,-1.406712,0.002000,0.567161,0.000000
756.000000,0.002000,-0.125771,-2.147926,1.233752,0.311546,-1.219012,-0.060862,0.097993,2.465088,-1.441861,0.002000,0.402824,0.000000
757.000000,0.002000,1.215024,-0.124260,-0.042870,-2.006855,-0.064356,0.320321,-7.875162,0.620002,0.171856,0.002000,2.425594,0.000000
758.000000,0.002000,0.090594,-0.076418,0.423519,0.479260,-0.774654,0.285438,-3.137291,3.049768,-17.831689,0.002000,0.161942,0.000000
759.000000,0.002000,-0.501932,-0.598666,0.076947,1.781597,-1.024119,-1.195892,9.275737,8.568921,-0.415631,0.002000,0.398110,0.000000
760.000000,0.002000,0.889997,-0.315040,-0.418247,-1.146211,-2.717210,0.039278,-8.583075,3.308796,4.233171,0.002000,2.484141,0.000000
761.000000,0.002000,-0.069461,-0.052367,0.707205,2.761337,0.033879,-1.291806,1.434173,0.277940,-14.217447,0.002000,0.437095,0.000000
762.000000,0.002000,-0.848564,-0.026900,-0.756611,0.805872,2.174405,1.327818,6.599670,0.191134,6.007338,0.002000,-0.552720,0.000000
763.000000,0.002000,-0.024615,1.053847,-0.076432,1.342840,0.850125,-0.034023,-0.068345,-10.060418,0.620581,0.002000,-1.159026,0.000000
764.000000,0.002000,-0.137893,-0.061279,0.149714,-2.950160,0.612713,0.773253,7.108078,2.348071,-14.787503,0.002000,-0.125771,0.000000
765.000000,0.002000,-1.437692,-0.604520,0.062261,1.271451,1.041157,-3.099620,5.006592,2.134094,-0.072247,0.002000,1.215024,0.000000
766.000000,0.002000,0.022446,-0.422089,0.656030,-0.480056,-1.720592,-2.129457,0.048966,6.871982,-11.248073,0.002000,0.090594,0.000000
767.000000,0.002000,0.117051,-0.756883,-0.557054,2.811668,1.139569,0.018525,-1.263806,8.803751,6.067671,0.002000,-0.501932,0.000000
768.000000,0.002000,-0.285259,-0.697504,-0.291754,1.761100,-0.175055,1.708917,4.014358,11.110006,5.057157,0.002000,0.889997,0.000000
769.000000,0.002000,0.099122,-0.061828,0.147504,-1.643892,0.259029,1.124175,-9.330732,6.489333,-9.442834,0.002000,-0.069461,0.000000
770.000000,0.002000,-0.960137,-0.252672,0.167657,0.472228,-1.995307,0.892319,9.992789,2.127137,-1.987713,0.002000,-0.848564,0.000000
771.000000,0.002000,-0.234792,2.123344,0.408405,0.166739,2.219882,0.274101,0.479371,-3.306808,-0.629089,0.002000,-0.024615,0.000000
772.000000,0.002000,0.249850,1.751909,0.781401,-0.010843,-0.318030,1.720357,-0.591382,-3.561164,-1.551199,0.002000,-0.137893,0.000000
773.000000,0.002000,-0.704476,-0.038652,1.874296,-0.000904,-1.423133,1.038768,1.379600,0.113970,-3.495672,0.002000,-1.437692,0.000000
774.000000,0.002000,-0.385817,-0.221171,0.216234,-2.812972,-0.318750,0.209701,12.154796,11.031492,-13.095774,0.002000,0.022446,0.000000
775.000000,0.002000,2.262954,-1.389212,0.595332,1.472402,-1.256658,1.011400,-2.055929,1.379005,-0.575312,0.002000,0.117051,0.000000
776.000000,0.002000,0.312142,-1.413754,-0.149085,2.118065,-2.250879,-1.976204,-1.286766,5.563683,0.532819,0.002000,-0.285259,0.000000
777.000000,0.002000,-0.615664,-0.347379,0.289134,0.365554,-1.192705,2.368897,10.798878,7.148190,-4.228058,0.002000,0.099122,0.000000
778.000000,0.002000,0.353014,0.401894,0.679629,-0.620669,-0.633296,1.975662,-4.613684,-5.242485,-9.766116,0.002000,-0.960137,0.000000
779.000000,0.002000,0.027717,0.336821,0.154933,-3.861590,1.143804,2.746680,2.086179,-12.840403,-7.656361,0.002000,-0.234792,0.000000
780.000000,0.002000,0.931414,2.234497,-0.479416,-0.421448,0.595380,-0.231439,-1.039146,-2.579779,0.535144,0.002000,0.249850,0.000000
781.000000,0.002000,1.242437,1.163190,-0.533465,-0.166034,-0.786450,-1.523738,-3.112787,-2.638775,1.277663,0.002000,-0.704476,0.000000
782.000000,0.002000,-0.525051,0.135646,-0.387763,-0.032049,2.514686,-1.855077,12.184164,-3.674727,8.612166,0.002000,-0.385817,0.000000
783.000000,0.002000,0.149066,-1.195099,-2.998300,0.395349,-0.485987,-1.630032,-0.104430,0.698620,1.755666,0.002000,2.262954,0.000000
784.000000,0.002000,-0.542926,-0.109844,0.291062,0.128067,-1.220947,3.622678,13.242705,2.912295,-8.801192,0.002000,0.312142,0.000000
785.000000,0.002000,-0.379785,0.690096,-1.661411,-0.886357,0.775459,2.829720,0.958397,-1.506214,3.914110,0.002000,-0.615664,0.000000
786.000000,0.002000,-0.679808,-0.386031,2.082861,0.946069,-0.775558,1.182660,0.988086,0.610824,-3.101918,0.002000,0.353014,0.000000
787.000000,0.002000,0.051017,-1.043806,0.234525,-0.617265,3.627025,2.554808,-0.037068,9.145122,-2.496380,0.002000,0.027717,0.000000
788.000000,0.002000,0.229834,-0.599246,0.318089,1.660477,2.410586,1.764498,-5.035707,12.469144,-6.356667,0.002000,0.931414,0.000000
789.000000,0.002000,0.196354,0.468083,-0.476681,-0.060092,0.898740,-1.358228,-5.063721,-9.551790,11.370203,0.002000,1.242437,0.000000
790.000000,0.002000,-0.193279,-0.920133,0.036750,0.785844,2.378736,2.047411,1.618748,10.840950,-0.450437,0.002000,-0.525051,0.000000
791.000000,0.002000,-2.481422,1.333172,0.732628,-1.159542,1.173650,-0.237624,2.175231,-0.963197,-0.517779,0.002000,0.149066,0.000000
792.000000,0.002000,0.202214,-0.753844,0.345198,2.149304,0.300176,0.990230,-3.175423,11.153084,-4.658149,0.002000,-0.542926,0.000000
793.000000,0.002000,-0.749614,0.645553,-0.250364,0.005658,-0.349631,-0.441726,6.074156,-9.010316,4.023901,0.002000,-0.379785,0.000000
794.000000,0.002000,0.620351,0.850817,0.008787,-0.475785,1.238237,-0.982880,-5.501162,-8.083105,0.184059,0.002000,-0.679808,0.000000
795.000000,0.002000,0.110543,-1.082931,2.357269,-0.240189,0.243321,1.498174,0.419951,1.077691,-2.542105,0.002000,0.051017,0.000000
796.000000,0.002000,1.482019,0.198812,-1.365734,-0.505599,-0.951541,-0.059776,-2.734192,-0.352299,2.477771,0.002000,0.229834,0.000000
797.000000,0.002000,-0.008009,0.371814,-0.174418,0.341900,1.156134,-2.324055,-0.759769,-13.855302,8.049628,0.002000,0.196354,0.000000
798.000000,0.002000,0.509417,-0.562380,0.065312,-1.479787,-1.913672,0.879590,-9.195777,10.403796,-1.715102,0.002000,-0.193279,0.000000
799.000000,0.002000,0.320737,1.872334,1.631349,0.604379,-1.690371,-0.104833,-0.324613,-2.113158,-1.829008,0.002000,-2.481422,0.000000
800.000000,0.002000,0.014783,0.498955,-0.103553,2.033182,-1.785634,-1.111053,-0.100006,-17.658794,3.615384,0.002000,0.202214,0.000000
801.000000,0.002000,-0.154000,0.726643,-0.187093,0.468528,-1.411036,-1.313719,3.066812,-13.887694,3.871092,0.002000,-0.749614,0.000000
802.000000,0.002000,0.147011,0.082184,0.030179,1.510087,2.896378,-0.073743,-10.016473,-4.696330,-2.381444,0.002000,0.620351,0.000000
803.000000,0.002000,-1.580857,-0.973107,-0.539898,-0.309872,0.752256,0.671040,3.199621,1.858264,1.066639,0.002000,0.110543,0.000000
804.000000,0.002000,-0.087775,0.073189,0.440701,1.974369,-1.507189,-1.905346,1.820935,-3.981268,-16.584160,0.002000,1.482019,0.000000
805.000000,0.002000,-0.024084,0.726410,0.517133,-1.762070,0.911228,-0.182389,0.567374,-9.406473,-7.003371,0.002000,-0.008009,0.000000
806.000000,0.002000,-1.133177,-1.219789,-1.692512,-1.173253,-1.386787,-2.580625,1.466362,1.556643,1.967090,0.002000,0.509417,0.000000
807.000000,0.002000,-0.446849,0.150855,-0.008590,-2.744175,-1.966408,2.077068,17.723372,-8.986467,-1.150840,0.002000,0.320737,0.000000
808.000000,0.002000,-0.223138,0.240251,-0.394912,-0.873392,-1.847493,-1.752336,7.297229,-7.772560,13.494922,0.002000,0.014783,0.000000
809.000000,0.002000,0.124535,0.386804,0.647399,1.841359,-0.799371,0.328529,-2.354392,-6.559823,-11.278125,0.002000,-0.154000,0.000000
810.000000,0.002000,0.202917,0.262483,0.097896,-2.186652,0.904337,-0.159339,-9.988838,-10.069768,-5.478897,0.002000,0.147011,0.000000
811.000000,0.002000,-0.148641,-1.249845,0.117258,0.297891,1.416444,-1.957151,-0.034460,7.756035,-0.369780,0.002000,-1.580857,0.000000
812.000000,0.002000,-0.977213,-0.355170,-0.345087,-0.939762,0.193014,1.014518,7.976559,-3.403095,1.448190,0.002000,-0.087775,0.000000
813.000000,0.002000,0.328412,0.233806,-0.265850,-2.573437,-2.810254,2.811738,-12.505294,-10.360427,9.676739,0.002000,-0.024084,0.000000
814.000000,0.002000,0.306669,0.476733,0.065719,1.921176,3.067198,2.469335,-9.050046,-15.014225,-1.455410,0.002000,-1.133177,0.000000
815.000000,0.002000,-0.128954,0.265894,-0.036966,-2.647823,-3.470929,2.632721,7.164362,-15.969391,1.956675,0.002000,-0.446849,0.000000
816.000000,0.002000,-0.512051,-0.498759,0.423477,1.855157,-0.479904,-0.044506,7.527848,8.664384,-6.698893,0.002000,-0.223138,0.000000
817.000000,0.002000,-0.935198,0.182844,-1.514642,0.228437,0.382154,1.236874,2.218529,-0.442402,3.866065,0.002000,0.124535,0.000000
818.000000,0.002000,-1.776760,1.530743,-0.058882,-0.199584,2.329244,-1.301641,2.285557,-2.078146,0.053705,0.002000,0.202917,0.000000
819.000000,0.002000,-0.407846,0.561535,-0.415937,1.932169,-0.670396,-1.008345,6.579858,-9.351662,6.611709,0.002000,-0.148641,0.000000
820.000000,0.002000,0.890268,-0.860475,-1.767592,-0.242515,-0.031935,-0.549680,-1.361177,1.326250,2.776052,0.002000,-0.977213,0.000000
821.000000,0.002000,0.617903,1.712384,0.246639,-1.147404,-0.004479,0.316586,-1.445709,-3.969267,-0.673899,0.002000,0.328412,0.000000
822.000000,0.002000,-0.983124,0.719480,-0.641530,2.039225,-1.766117,2.538508,4.717509,-3.546645,3.113855,0.002000,0.306669,0.000000
823.000000,0.002000,0.331374,0.297871,1.794332,0.191018,1.474157,2.464811,-0.628739,-0.636925,-4.249334,0.002000,-0.128954,0.000000
824.000000,0.002000,-0.241413,0.693282,-0.319204,-0.231444,0.721191,-1.012995,3.888621,-10.521608,6.462147,0.002000,-0.512051,0.000000
825.000000,0.002000,0.632273,1.026150,1.944740,3.124216,-0.129578,-0.410098,-1.098117,-0.769712,-2.635250,0.002000,-0.935198,0.000000
826.000000,0.002000,0.425176,0.204149,0.528327,-2.718917,0.795248,-0.096621,-8.464699,-4.468547,-12.431213,0.002000,-1.776760,0.000000
827.000000,0.002000,-0.713744,-0.851936,-0.087039,-1.163989,0.477922,-0.532246,5.859830,6.865510,0.510498,0.002000,-0.407846,0.000000
828.000000,0.002000,-0.330613,-0.188159,0.248786,-0.983718,4.092658,-0.120116,12.720361,6.636527,-12.131832,0.002000,0.890268,0.000000
829.000000,0.002000,-0.259801,-0.269316,-1.877892,-1.642219,-1.076129,-1.784775,0.362222,0.534215,3.970393,0.002000,0.617903,0.000000
830.000000,0.002000,0.343190,0.831765,0.142399,0.724503,1.710346,-0.301320,-5.007746,-10.303162,-1.462238,0.002000,-0.983124,0.000000
831.000000,0.002000,0.363181,-0.414734,0.412303,0.939649,-2.904769,-2.658016,-8.560420,9.547652,-9.153195,0.002000,0.331374,0.000000
832.000000,0.002000,0.535588,-0.685401,0.260753,-1.555233,1.069254,-0.797046,-6.560201,8.979356,-3.931891,0.002000,-0.241413,0.000000
833.000000,0.002000,-0.033560,-0.196430,0.464905,-0.871577,-0.401065,-3.550431,-0.594040,6.500417,-16.552682,0.002000,0.632273,0.000000
834.000000,0.002000,-0.646879,0.427606,0.267740,1.617095,0.795266,-1.084801,10.569770,-7.264536,-5.289309,0.002000,0.425176,0.000000
835.000000,0.002000,0.663268,2.019479,1.291829,1.566952,0.409467,0.458735,-0.769501,-2.326757,-1.442292,0.002000,-0.713744,0.000000
836.000000,0.002000,-0.409560,1.731149,-1.886182,0.763320,-0.865241,1.700269,0.471350,-1.768045,1.952282,0.002000,-0.330613,0.000000
837.000000,0.002000,-0.271543,0.150179,-0.752832,1.057975,0.516358,-3.174209,3.747893,-1.876253,12.225603,0.002000,-0.259801,0.000000
838.000000,0.002000,0.159524,0.195645,-0.563679,3.212941,0.793594,-1.151350,-4.135882,-5.128755,13.639795,0.002000,0.343190,0.000000
839.000000,0.002000,-0.634145,-0.639018,-0.380945,0.115460,0.736130,0.586129,6.854292,6.350042,3.716331,0.002000,0.363181,0.000000
840.000000,0.002000,-0.198282,0.427971,-0.395815,2.719718,-3.599328,0.051521,7.547273,-11.271597,10.883920,0.002000,0.535588,0.000000
841.000000,0.002000,0.179455,0.092853,0.479296,-4.633771,0.879225,-0.338185,-4.297699,-4.399816,-14.753888,0.002000,-0.033560,0.000000
842.000000,0.002000,-0.178643,-0.131018,0.075879,-0.758594,1.427777,-1.997060,1.736724,13.141672,-4.486091,0.002000,-0.646879,0.000000
843.000000,0.002000,-0.007060,0.064737,0.048360,-2.468798,0.333321,0.188508,-2.214979,-3.917248,-3.769167,0.002000,0.663268,0.000000
844.000000,0.002000,-0.674076,-0.453133,-0.277336,-1.051242,-0.629043,-1.314852,10.309801,7.196058,3.564062,0.002000,-0.409560,0.000000
845.000000,0.002000,0.437952,0.836638,0.389508,2.852857,-2.811961,1.727414,-4.975546,-8.369161,-4.185236,0.002000,-0.271543,0.000000
846.000000,0.002000,0.080283,-0.133442,0.243693,1.821755,2.542818,-0.310933,-4.357339,4.789078,-15.314354,0.002000,0.159524,0.000000
847.000000,0.002000,-1.746877,1.614232,-0.573766,-1.993962,0.930589,0.139212,2.469873,-2.143732,0.593711,0.002000,-0.634145,0.000000
848.000000,0.002000,0.332736,-0.396087,0.876349,0.447261,-1.535048,-0.323980,-3.564873,3.983354,-8.651332,0.002000,-0.198282,0.000000
849.000000,0.002000,-0.691610,-0.185617,0.020171,-1.001490,3.472580,-3.848853,15.248935,5.376197,-0.477350,0.002000,0.179455,0.000000
850.000000,0.002000,-0.475502,-0.146017,-0.101399,-2.604694,-1.787742,-0.672121,15.898859,6.723446,3.812700,0.002000,-0.178643,0.000000
851.000000,0.002000,-0.134039,-0.054577,0.854148,1.540947,1.122886,-1.529165,1.738746,0.302861,-11.616885,0.002000,-0.007060,0.000000
852.000000,0.002000,0.449261,-0.023796,-0.211635,1.436493,1.818035,2.015100,-16.511642,-0.082880,8.401123,0.002000,-0.674076,0.000000
853.000000,0.002000,-0.266132,0.456215,0.135576,3.121231,1.140898,-0.483760,7.800835,-14.635391,-4.858058,0.002000,0.437952,0.000000
854.000000,0.002000,0.124709,-0.150301,-0.469607,2.752571,0.814941,-0.643916,-3.769444,5.082159,16.269684,0.002000,0.080283,0.000000
855.000000,0.002000,-0.484352,-0.796232,-0.454754,-2.968283,0.644867,0.145439,4.373911,8.198548,4.155243,0.002000,-1.746877,0.000000
856.000000,0.002000,-0.260417,0.243647,-0.259082,0.215704,0.718499,2.435243,10.639083,-11.184052,10.194024,0.002000,0.332736,0.000000
857.000000,0.002000,0.130800,0.159390,0.611351,0.784506,-1.035078,-2.759482,-2.724679,-4.925051,-15.584133,0.002000,-0.691610,0.000000
858.000000,0.002000,0.542971,0.253125,0.382077,-2.633859,-1.143463,0.337595,-10.049816,-4.552941,-8.563374,0.002000,-0.475502,0.000000
859.000000,0.002000,-0.041238,1.603954,-1.192909,-1.421908,1.314026,-0.484509,0.089225,-3.048989,2.431811,0.002000,-0.134039,0.000000
860.000000,0.002000,-0.289133,0.232498,-0.320479,-0.017742,-2.707876,-2.171490,10.949458,-9.703572,12.597858,0.002000,0.449261,0.000000
861.000000,0.002000,-0.103431,2.062378,-0.824101,2.855838,0.423060,0.675768,0.110941,-3.146153,0.961758,0.002000,-0.266132,0.000000
862.000000,0.002000,0.369228,-0.087064,0.083756,1.842017,1.190277,-1.438591,-17.820382,3.748335,-6.157897,0.002000,0.124709,0.000000
863.000000,0.002000,-1.030259,-1.749824,0.905410,-1.361815,0.126897,0.220439,1.581982,2.242995,-1.132345,0.002000,-0.484352,0.000000
864.000000,0.002000,-1.030247,-2.877890,0.452728,-0.156034,-2.389878,-0.397733,0.668772,1.906613,-0.311746,0.002000,-0.260417,0.000000
865.000000,0.002000,-0.103085,1.099240,-1.653431,0.689106,-0.321504,-2.676929,0.209747,-2.104095,3.075400,0.002000,0.130800,0.000000
866.000000,0.002000,0.129509,-0.283050,-0.298808,2.814046,-0.156474,-3.663115,-3.606231,10.809686,10.855368,0.002000,0.542971,0.000000
867.000000,0.002000,2.198416,1.588471,-0.188415,0.938618,0.491713,0.172354,-2.042541,-1.424548,0.179370,0.002000,-0.041238,0.000000
868.000000,0.002000,0.639235,-1.046505,-0.878579,-0.886092,1.603576,-1.363066,-2.359883,4.068821,3.106816,0.002000,-0.289133,0.000000
869.000000,0.002000,0.254769,-0.991874,0.353977,0.252480,0.381018,0.900167,-2.637446,7.845331,-4.054818,0.002000,-0.103431,0.000000
870.000000,0.002000,0.313030,0.330332,-0.382758,0.276409,4.174262,-0.226712,-8.579054,-8.933723,11.328228,0.002000,0.369228,0.000000
871.000000,0.002000,-0.065280,0.461497,-0.217023,-0.029842,-1.020330,-2.265035,2.364450,-15.325844,9.171451,0.002000,-1.030259,0.000000
872.000000,0.002000,-0.281132,-0.335511,0.172390,-2.751715,-5.012852,-0.315778,12.142034,13.928663,-6.165751,0.002000,-1.030247,0.000000
873.000000,0.002000,0.350205,1.141756,1.921071,0.427523,1.221691,1.799791,-0.431429,-1.655287,-2.790340,0.002000,-0.103085,0.000000
874.000000,0.002000,-1.048788,-1.348910,-2.335168,-0.972543,-1.121195,-1.441874,0.788581,1.062291,1.875461,0.002000,0.129509,0.000000
875.000000,0.002000,0.353103,-2.159652,-1.340438,-0.261002,-0.451385,-0.078603,-0.338171,2.290492,1.319412,0.002000,2.198416,0.000000
876.000000,0.002000,-0.569186,0.025480,-0.263501,3.173940,0.837606,2.764373,13.672305,-0.931035,8.183484,0.002000,0.639235,0.000000
877.000000,0.002000,-1.072391,-0.371202,1.676936,-0.292343,-0.255505,2.497740,1.862505,0.698431,-3.125217,0.002000,0.254769,0.000000
878.000000,0.002000,-1.358250,-0.264574,-1.771201,-1.007556,0.087501,0.109187,1.988743,0.428320,2.589746,0.002000,0.313030,0.000000
879.000000,0.002000,-0.090543,0.169999,0.018319,-1.868807,2.907237,2.674633,4.597827,-15.253083,-2.826182,0.002000,-0.065280,0.000000
880.000000,0.002000,-1.981859,0.300073,1.730285,-1.176217,0.206425,0.108940,1.876575,-0.316802,-1.723983,0.002000,-0.281132,0.000000
881.000000,0.002000,0.087598,0.047187,0.059167,2.409391,2.789596,-0.311614,-3.147754,0.179974,-3.332402,0.002000,0.350205,0.000000
882.000000,0.002000,-0.932870,-0.211389,-2.018086,-0.384123,-1.792914,-0.875907,1.359037,0.215777,3.040184,0.002000,-1.048788,0.000000
883.000000,0.002000,-0.585509,0.229799,-0.796658,-0.566527,0.521042,1.383556,5.996514,-1.990324,7.995500,0.002000,0.353103,0.000000
884.000000,0.002000,0.455266,-0.175258,0.203823,-2.186685,0.499746,-0.035633,-14.579816,6.481100,-6.377910,0.002000,-0.569186,0.000000
885.000000,0.002000,-2.086895,-0.762627,0.080500,-1.590027,-0.956026,-0.823717,3.014867,1.192186,-0.094412,0.002000,-1.072391,0.000000
886.000000,0.002000,-0.882450,0.148720,-0.060508,2.646818,1.735308,1.032571,11.583738,-1.860475,0.744866,0.002000,-1.358250,0.000000
887.000000,0.002000,-0.821187,-0.033668,-0.207515,0.637766,-1.219731,1.397173,11.930822,-0.480984,1.951625,0.002000,-0.090543,0.000000
888.000000,0.002000,-1.610289,-2.020530,0.543711,-1.202657,-0.529370,0.559696,1.354280,1.853436,-0.509065,0.002000,-1.981859,0.000000
889.000000,0.002000,0.058396,0.067971,-0.121872,-0.020165,-1.697184,0.316144,-7.660455,-1.740020,9.264748,0.002000,0.087598,0.000000
890.000000,0.002000,1.795103,0.175461,0.014924,2.808434,1.028694,1.603128,-4.320071,-0.264230,-0.095317,0.002000,-0.932870,0.000000
891.000000,0.002000,-0.133687,1.098639,0.677926,1.276900,0.119983,2.171498,0.785792,-5.799304,-3.819426,0.002000,-0.585509,0.000000
892.000000,0.002000,0.095899,0.227125,0.649680,0.709398,1.591143,-0.217148,-1.930783,-4.610160,-14.195862,0.002000,0.455266,0.000000
893.000000,0.002000,0.254992,1.709909,-0.257102,2.447927,1.180190,-1.732539,-0.633513,-4.528776,0.764523,0.002000,-2.086895,0.000000
894.000000,0.002000,0.070525,0.222009,0.403273,-1.502844,3.047797,-1.149003,-1.694387,-7.357791,-15.883145,0.002000,-0.882450,0.000000
895.000000,0.002000,-0.011025,1.248608,-1.614241,-1.380388,-0.327088,-0.854641,0.115598,-1.539919,2.446881,0.002000,-0.821187,0.000000
896.000000,0.002000,-0.754134,0.378939,0.009770,-1.251506,2.286985,0.809431,13.129773,-6.001071,-1.168295,0.002000,-1.610289,0.000000
897.000000,0.002000,0.174607,0.009475,-0.004590,0.456394,-1.323235,0.525489,-12.412675,3.191157,0.309373,0.002000,0.058396,0.000000
898.000000,0.002000,0.006179,2.339218,2.087834,0.129375,0.853064,1.535177,-0.015971,-1.478559,-1.342893,0.002000,1.795103,0.000000
