# 
#                 columns are tag, mass, x, y, z, vx, vy, vz, ax, ay, az, EK, EU, E
#                 Time=6.000000
# 
1.000000,0.002000,-1.014608,-0.982292,-1.513435,-2.223993,-0.757381,-1.172762,1.821093,1.771074,2.713038,86.191986,-168.906539,-82.714553
2.000000,0.002000,-2.379320,-2.276134,1.578664,1.649037,-0.059266,1.514944,0.916534,0.866802,-0.593509,0.000000,0.000000,0.000000
3.000000,0.002000,-0.260944,-0.942071,1.454348,-0.307634,0.126602,0.250797,0.578169,2.677254,-4.105116,0.000000,0.000000,0.000000
4.000000,0.002000,0.058774,1.174732,-0.615558,-0.458514,-0.995913,-1.593766,-0.593236,-6.810717,3.823162,0.000000,0.000000,0.000000
5.000000,0.002000,-0.048587,0.048641,-0.398471,1.258616,1.757884,-3.003777,1.425507,0.669374,18.613027,0.000000,0.000000,0.000000
6.000000,0.002000,-0.295488,-0.721109,0.184614,1.645537,0.578787,1.530269,4.845613,11.663796,-5.434579,0.000000,0.000000,0.000000
7.000000,0.002000,-0.063147,1.309390,-0.104735,-0.154053,3.855127,1.539937,0.314353,-7.978263,0.823854,0.002000,-1.513435,0.000000
8.000000,0.002000,0.827480,1.046129,0.137104,-0.873408,-1.026530,1.078892,-4.376868,-5.599517,-0.453537,0.002000,1.578664,0.000000
9.000000,0.002000,1.292189,-0.885878,-0.634252,2.724826,-1.836835,-1.645117,-3.874401,2.768176,1.723448,0.002000,1.454348,0.000000
10.000000,0.002000,-2.207476,-2.154160,-1.170210,0.066182,-0.622344,-0.794512,1.152283,1.132851,0.624622,0.002000,-0.615558,0.000000
11.000000,0.002000,0.063075,0.693594,-0.494844,-1.348773,-0.952739,-0.607590,-1.667391,-10.918887,8.592140,0.002000,-0.398471,0.000000
12.000000,0.002000,-0.929812,-2.537053,-0.842575,0.388180,-0.048043,-0.158495,0.706348,2.032177,0.629551,0.002000,0.184614,0.000000
13.000000,0.002000,-0.604576,0.224811,0.762227,-1.959606,-2.423024,-0.635656,6.295691,-1.842512,-8.932177,0.002000,-0.104735,0.000000
14.000000,0.002000,-0.833492,-0.937820,-0.995612,-0.292243,-1.632058,-2.427625,2.820492,3.356160,3.279848,0.002000,0.137104,0.000000
15.000000,0.002000,-0.456694,-0.019364,-0.303498,2.962003,4.022914,3.031449,15.687420,1.087472,10.239989,0.002000,-0.634252,0.000000
16.000000,0.002000,0.786047,1.897268,-2.175936,0.179246,-0.854682,-0.568033,-0.596801,-1.298578,1.547034,0.002000,-1.170210,0.000000
17.000000,0.002000,0.083416,-0.059907,-0.066897,-3.908935,-3.699572,-1.456957,-5.351027,7.843638,6.416103,0.002000,-0.494844,0.000000
18.000000,0.002000,0.357034,0.635959,0.061858,2.352414,1.734087,-2.019508,-8.495113,-14.472379,-1.575730,0.002000,-0.842575,0.000000
19.000000,0.002000,0.244729,0.128761,-0.002120,-0.039648,-0.522922,0.199938,-17.359599,-5.587144,-0.686264,0.002000,0.762227,0.000000
20.000000,0.002000,0.266009,0.400472,0.248657,-1.054457,1.210993,-0.930348,-6.706472,-8.638256,-11.884845,0.002000,-0.995612,0.000000
21.000000,0.002000,-0.734650,0.087619,-0.064361,-0.325323,1.577956,1.631862,16.559308,-0.221484,2.124884,0.002000,-0.303498,0.000000
22.000000,0.002000,0.097597,0.087329,0.109998,0.683017,-5.075320,-2.759898,-7.174018,-0.456541,-7.557732,0.002000,-2.175936,0.000000
23.000000,0.002000,-1.116346,-0.049583,-1.022967,-1.461483,2.411840,1.199292,4.641488,0.376034,3.888240,0.002000,-0.066897,0.000000
24.000000,0.002000,-0.182748,-0.325316,-0.254916,0.838366,-2.255767,-1.869163,6.403891,13.112344,10.423766,0.002000,0.061858,0.000000
25.000000,0.002000,-0.318961,-0.418196,-0.422605,0.689201,-2.488736,-0.034150,8.978222,10.822335,10.635930,0.002000,-0.002120,0.000000
26.000000,0.002000,-1.649916,-0.181551,0.923389,0.713080,0.964811,0.630653,3.684913,0.777112,-2.136469,0.002000,0.248657,0.000000
27.000000,0.002000,0.198091,0.352937,0.036634,2.327110,-2.850551,1.001042,-7.007332,-19.886701,-4.661177,0.002000,-0.064361,0.000000
28.000000,0.002000,0.135752,0.714873,-0.574979,-0.150122,0.261874,1.582406,-2.924051,-9.537055,7.907951,0.002000,0.109998,0.000000
29.000000,0.002000,-4.404364,-3.920785,2.886682,0.192348,0.231816,0.204241,0.308692,0.275089,-0.200563,0.002000,-1.022967,0.000000
30.000000,0.002000,-0.540093,-0.736449,0.973708,0.069491,0.064166,1.208832,3.230216,3.954908,-5.135689,0.002000,-0.254916,0.000000
31.000000,0.002000,0.481950,-0.396268,-0.074911,-1.865820,-0.838850,-0.032788,-12.423213,10.762247,1.748324,0.002000,-0.422605,0.000000
32.000000,0.002000,-0.134722,0.303855,0.039746,-1.808481,-0.304425,-2.513319,6.826972,-15.312303,-3.046652,0.002000,0.923389,0.000000
33.000000,0.002000,0.169959,-1.066843,-0.072906,0.575235,-0.004903,1.009044,-1.495554,9.920434,0.904775,0.002000,0.036634,0.000000
34.000000,0.002000,0.537548,-0.027861,0.578600,-3.153745,-2.543378,-1.180435,-9.660829,1.450652,-10.357587,0.002000,-0.574979,0.000000
35.000000,0.002000,2.782834,0.363651,-0.276436,-0.607427,-0.338405,0.633586,-2.255636,-0.269040,0.195109,0.002000,2.886682,0.000000
36.000000,0.002000,-2.371813,1.585127,-0.534858,-0.380536,-0.410280,0.624447,1.947528,-1.164450,0.353997,0.002000,0.973708,0.000000
37.000000,0.002000,-2.101248,-2.875755,3.372769,0.760665,0.715899,-0.173663,0.315258,0.467898,-0.547021,0.002000,-0.074911,0.000000
38.000000,0.002000,-1.163135,0.079941,-1.281430,-0.298103,-0.553105,0.871621,3.547198,-0.174908,3.778283,0.002000,0.039746,0.000000
39.000000,0.002000,0.192299,-0.418548,0.182498,-0.213633,0.714446,-3.054131,-5.558266,14.950785,-4.129574,0.002000,-0.072906,0.000000
40.000000,0.002000,0.776784,-1.073180,-0.594914,0.812601,-0.067985,0.976784,-3.283640,4.814215,2.117758,0.002000,0.578600,0.000000
41.000000,0.002000,0.019632,-0.492674,0.636008,-0.649373,2.763218,-1.532016,0.152034,8.219831,-9.875251,0.002000,-0.276436,0.000000
42.000000,0.002000,-1.359766,0.389934,0.984339,-2.258588,1.367347,0.122655,3.968823,-1.091305,-2.939577,0.002000,-0.534858,0.000000
43.000000,0.002000,-1.271758,-1.926883,0.610923,-1.010111,0.950940,1.018317,1.487934,2.384953,-0.832068,0.002000,3.372769,0.000000
44.000000,0.002000,0.322149,0.103805,-0.306862,0.214879,3.707747,-1.487567,-15.174041,-2.764092,12.101463,0.002000,-1.281430,0.000000
45.000000,0.002000,-0.332266,0.046179,-0.526288,-2.285610,0.249194,0.665728,8.889846,-0.494958,14.262595,0.002000,0.182498,0.000000
46.000000,0.002000,0.283934,-0.017111,0.356665,2.565026,0.551771,0.583199,-12.395383,3.219925,-14.825345,0.002000,-0.594914,0.000000
47.000000,0.002000,0.443160,1.222583,1.104681,-0.484387,0.748869,1.187458,-1.263101,-4.004933,-4.022867,0.002000,0.636008,0.000000
48.000000,0.002000,-0.044162,0.748322,0.316008,-0.897028,1.262166,-0.464198,-0.037478,-12.287221,-6.401476,0.002000,0.984339,0.000000
49.000000,0.002000,1.026282,0.188601,0.236988,4.205262,0.204131,1.873177,-10.078202,-1.162892,-2.728350,0.002000,0.610923,0.000000
50.000000,0.002000,-0.961541,0.236615,-0.379265,1.103031,-0.922330,0.019785,9.108030,-1.397462,3.835994,0.002000,-0.306862,0.000000
51.000000,0.002000,-1.058470,-0.575894,-0.187248,0.568305,-0.493889,0.176359,7.170420,4.109830,0.973908,0.002000,-0.526288,0.000000
52.000000,0.002000,-0.030294,0.087183,0.394063,-2.889556,0.044249,-2.693598,1.485400,-1.893619,-20.577140,0.002000,0.356665,0.000000
53.000000,0.002000,0.353949,0.226938,0.101674,-3.568973,-2.567979,-2.460455,-17.726324,-7.349422,-7.157808,0.002000,1.104681,0.000000
54.000000,0.002000,0.195015,0.217998,-0.567529,3.618207,1.557856,2.862378,-5.760110,-4.320204,15.225276,0.002000,0.316008,0.000000
55.000000,0.002000,-0.152210,0.044718,0.227757,-3.077668,-1.231212,2.360096,15.167575,2.815987,-9.856172,0.002000,0.236988,0.000000
56.000000,0.002000,-0.174427,0.276718,0.296714,-1.241405,0.080234,3.796254,7.232360,-10.571419,-13.165921,0.002000,-0.379265,0.000000
57.000000,0.002000,-1.015943,-0.127479,-0.647649,-3.199660,2.457331,0.889098,7.214449,1.469425,4.482482,0.002000,-0.187248,0.000000
58.000000,0.002000,0.713998,1.377099,2.684613,0.006494,-0.201925,0.096629,-0.520690,-0.811730,-1.719661,0.002000,0.394063,0.000000
59.000000,0.002000,-0.266178,0.309804,-0.565078,-2.823465,1.640061,0.432849,6.755892,-7.114752,12.664279,0.002000,0.101674,0.000000
60.000000,0.002000,-0.123804,0.093468,-0.279107,0.527783,0.150381,-0.634208,4.485257,-4.091387,17.474838,0.002000,-0.567529,0.000000
61.000000,0.002000,0.151386,0.760723,0.081052,2.079033,-0.747018,-1.361996,-4.767597,-14.462274,-5.426954,0.002000,0.227757,0.000000
62.000000,0.002000,-2.431965,0.123343,1.859703,0.909018,0.132603,-1.988850,1.526702,-0.035632,-1.204754,0.002000,0.296714,0.000000
63.000000,0.002000,-0.397544,0.150440,0.135907,1.171866,-0.094316,0.068622,16.296329,-4.494064,-4.594812,0.002000,-0.647649,0.000000
64.000000,0.002000,0.166628,-0.884540,-0.007576,2.197008,-0.130081,0.919362,-2.586892,11.627497,-0.405681,0.002000,2.684613,0.000000
65.000000,0.002000,-0.582059,0.214268,-0.529024,-2.405336,-2.371474,-0.852081,10.314182,-3.548328,9.015126,0.002000,-0.565078,0.000000
66.000000,0.002000,-0.877086,0.579810,0.054355,-2.427865,0.510529,-1.417395,9.071162,-5.445128,-1.199738,0.002000,-0.279107,0.000000
67.000000,0.002000,-0.293513,2.405320,-0.923575,-0.444201,1.206823,-0.554687,0.316205,-2.516163,0.963089,0.002000,0.081052,0.000000
68.000000,0.002000,0.664201,-1.323928,1.062229,-0.044897,-0.624794,-1.465959,-1.703237,3.221411,-2.596209,0.002000,1.859703,0.000000
69.000000,0.002000,0.213407,1.704845,0.715983,2.069791,0.685088,1.844350,-0.615653,-4.253272,-1.796384,0.002000,0.135907,0.000000
70.000000,0.002000,0.297476,-0.413034,0.363383,3.800212,-1.794015,-0.668461,-9.022268,11.078062,-9.736498,0.002000,-0.007576,0.000000
71.000000,0.002000,-0.195402,0.161722,-0.581781,2.490236,2.498790,1.838277,4.967326,-3.602298,14.743852,0.002000,-0.529024,0.000000
72.000000,0.002000,-0.657236,-0.975055,0.757141,0.100530,-0.161489,1.269126,3.014456,4.444499,-3.626235,0.002000,0.054355,0.000000
73.000000,0.002000,1.216620,-1.772279,-0.937628,0.417776,-1.041651,-1.537299,-1.514708,2.338406,1.116426,0.002000,-0.923575,0.000000
74.000000,0.002000,0.036587,-0.208764,-0.037006,-0.780564,-1.995833,-0.080198,-3.575694,14.569919,4.442919,0.002000,1.062229,0.000000
75.000000,0.002000,0.387943,-0.784421,2.617403,-1.063215,0.000463,0.737188,-0.316990,0.736091,-2.247139,0.002000,0.715983,0.000000
76.000000,0.002000,-0.233417,-0.111872,-0.613105,0.202546,1.357525,3.294957,5.377856,3.808197,15.570188,0.002000,0.363383,0.000000
77.000000,0.002000,-0.511349,-0.159444,-0.315776,1.337532,1.122218,2.713479,14.580817,6.369267,5.494328,0.002000,-0.581781,0.000000
78.000000,0.002000,0.626004,0.465795,-0.341971,-1.200025,-0.832925,-1.561958,-9.988348,-7.522643,5.202324,0.002000,0.757141,0.000000
79.000000,0.002000,0.069208,0.602004,0.508027,-3.081260,0.402402,1.490759,-1.901285,-11.661090,-10.472200,0.002000,-0.937628,0.000000
80.000000,0.002000,-1.016250,0.094120,0.390548,2.909484,-3.513046,0.164197,9.260707,-0.554110,-3.227619,0.002000,-0.037006,0.000000
81.000000,0.002000,-0.242299,0.044559,-0.067071,-0.853312,0.902192,0.420033,18.484186,-0.369040,3.678963,0.002000,2.617403,0.000000
82.000000,0.002000,0.177157,-0.002267,-1.217123,-1.873283,-1.410871,-0.841024,-1.255567,0.672976,8.131692,0.002000,-0.613105,0.000000
83.000000,0.002000,1.059714,0.623285,0.005337,1.002712,-0.591437,2.443076,-7.429367,-3.889680,-0.249657,0.002000,-0.315776,0.000000
84.000000,0.002000,0.300987,1.478207,-1.558658,-0.399321,0.654531,-1.124802,-0.672075,-2.396344,2.456236,0.002000,-0.341971,0.000000
85.000000,0.002000,-1.315417,0.795349,0.092970,-1.656772,1.591957,-1.345343,5.388834,-2.865176,-0.369222,0.002000,0.508027,0.000000
86.000000,0.002000,0.216473,-0.254330,-0.465068,-1.460578,3.560105,-0.996787,-6.147544,7.913299,15.078834,0.002000,0.390548,0.000000
87.000000,0.002000,-0.816420,0.321720,-0.703089,1.181097,-1.492354,0.539681,7.196259,-2.635428,6.062368,0.002000,-0.067071,0.000000
88.000000,0.002000,-0.363012,-0.133401,-0.084636,-0.468228,3.968268,-0.234048,15.840740,8.560049,3.299786,0.002000,-1.217123,0.000000
89.000000,0.002000,0.881022,-0.387635,-0.420778,-3.848831,-0.805182,0.905603,-8.472391,3.968096,3.877177,0.002000,0.005337,0.000000
90.000000,0.002000,-0.076244,0.243596,-0.181978,-1.817756,0.312173,1.605414,2.004610,-15.412411,11.878990,0.002000,-1.558658,0.000000
91.000000,0.002000,-2.479972,-3.656648,-2.663263,0.329551,-0.635388,0.870010,0.352153,0.527387,0.373681,0.002000,0.092970,0.000000
92.000000,0.002000,-0.518221,0.099076,0.389143,1.882503,-0.531401,-1.982296,13.063696,-0.963407,-11.279748,0.002000,-0.465068,0.000000
93.000000,0.002000,0.000333,-0.408400,2.432558,1.333935,-1.080300,0.875484,0.104769,0.535823,-2.704640,0.002000,-0.703089,0.000000
94.000000,0.002000,-0.641694,-0.774525,-1.350538,-2.347568,-0.930774,-1.681791,1.966124,2.443735,4.067457,0.002000,-0.084636,0.000000
95.000000,0.002000,-0.516223,-0.378814,-0.105453,-3.171436,-2.099334,-0.111322,13.501380,10.531674,0.780948,0.002000,-0.420778,0.000000
96.000000,0.002000,-0.566365,-0.247103,0.189549,-1.316101,-1.679440,1.853905,13.802595,7.523259,-5.237313,0.002000,-0.181978,0.000000
97.000000,0.002000,-0.309911,-0.153488,0.134790,4.054010,-1.408503,0.395418,13.403563,8.502754,-8.324994,0.002000,-2.663263,0.000000
98.000000,0.002000,0.086765,0.680359,-1.228928,0.814631,1.407131,-3.716743,-0.461181,-3.067652,6.294353,0.002000,0.389143,0.000000
99.000000,0.002000,0.066412,0.386645,-0.041541,0.156729,0.037889,1.879729,-3.818833,-15.432184,1.926574,0.002000,2.432558,0.000000
100.000000,0.002000,0.148263,0.139930,-0.317292,2.992900,-1.538254,-2.466766,-4.624391,-4.592782,21.328126,0.002000,-1.350538,0.000000
101.000000,0.002000,0.700283,0.248963,-1.010782,0.236400,-1.677957,1.071945,-4.410841,-1.358517,6.607662,0.002000,-0.105453,0.000000
102.000000,0.002000,0.519806,-0.326717,-0.153811,0.150924,1.269129,-2.884763,-12.898924,9.297113,3.665857,0.002000,0.189549,0.000000
103.000000,0.002000,1.763617,-2.142548,1.585446,0.712045,-0.170066,0.129182,-0.996826,1.236524,-0.912798,0.002000,0.134790,0.000000
104.000000,0.002000,-0.110198,0.425991,-0.069390,0.190464,1.405526,-3.178523,5.660709,-16.450623,0.385915,0.002000,-1.228928,0.000000
105.000000,0.002000,-1.471403,-0.698857,-0.936215,-0.724460,-1.373776,1.663670,3.284227,1.740677,2.159766,0.002000,-0.041541,0.000000
106.000000,0.002000,-0.303385,-0.145117,0.242343,-0.101877,-0.004181,-1.513640,10.785147,8.083426,-12.844454,0.002000,-0.317292,0.000000
107.000000,0.002000,-0.395177,0.139186,-0.467342,-1.360809,-0.723467,-0.729989,11.053424,-2.899593,13.668961,0.002000,-1.010782,0.000000
108.000000,0.002000,-0.516771,-0.408876,0.103515,2.245598,2.149536,0.099542,12.735217,10.801182,-3.587126,0.002000,-0.153811,0.000000
109.000000,0.002000,-0.026278,0.442844,-0.484808,3.130303,0.963583,-0.082370,0.906051,-9.942294,12.944496,0.002000,1.585446,0.000000
110.000000,0.002000,0.124874,0.146184,0.541322,-0.881167,2.323482,5.212387,-2.943183,-3.995459,-17.571425,0.002000,-0.069390,0.000000
111.000000,0.002000,0.392923,0.051318,-0.238511,0.170771,2.888364,-1.825656,-17.522239,1.230917,9.016687,0.002000,-0.936215,0.000000
112.000000,0.002000,-1.917216,1.939980,-1.696683,0.024281,1.021664,-0.479937,1.147075,-1.117003,0.993429,0.002000,0.242343,0.000000
113.000000,0.002000,0.577940,-5.039678,-3.313686,0.825709,0.282107,0.658685,-0.053346,0.446146,0.288520,0.002000,-0.467342,0.000000
114.000000,0.002000,-0.688614,0.403740,0.875236,-0.901542,-1.913483,-0.830487,4.926112,-2.624963,-6.562550,0.002000,0.103515,0.000000
115.000000,0.002000,-0.071613,0.061632,-0.044772,-4.072199,1.627140,0.052529,2.472000,2.203056,0.396190,0.002000,-0.484808,0.000000
116.000000,0.002000,-0.166667,-0.031541,0.160926,0.755087,1.153665,-1.409329,11.917614,5.987731,-9.418455,0.002000,0.541322,0.000000
117.000000,0.002000,0.702386,0.073620,-0.175738,1.342950,-1.038807,1.447369,-15.223825,0.460461,2.953378,0.002000,-0.238511,0.000000
118.000000,0.002000,-0.268535,0.483771,0.338384,1.735497,1.796760,2.943863,6.799523,-8.316159,-12.557178,0.002000,-1.696683,0.000000
119.000000,0.002000,-0.746429,0.393789,-1.804229,-0.175252,-0.809199,0.968659,1.425234,-0.482503,3.746232,0.002000,-3.313686,0.000000
120.000000,0.002000,-0.194952,0.330524,-0.199052,0.527360,2.067272,0.183598,10.054290,-12.882645,6.457551,0.002000,0.875236,0.000000
121.000000,0.002000,-0.263502,-0.323942,0.177393,3.099079,1.193359,1.611317,8.584045,13.034328,-9.133187,0.002000,-0.044772,0.000000
122.000000,0.002000,-0.052924,-0.167942,0.251338,0.986377,0.263991,2.793744,3.402333,13.967526,-11.847129,0.002000,0.160926,0.000000
123.000000,0.002000,-0.922250,-0.725130,-0.729952,1.846296,0.608579,1.512493,4.756477,4.066394,3.709608,0.002000,-0.175738,0.000000
124.000000,0.002000,0.325191,0.023165,0.139388,1.527488,1.064435,3.985377,-18.041871,1.021413,-5.891970,0.002000,0.338384,0.000000
125.000000,0.002000,1.075827,0.088617,1.003839,-0.953387,0.182808,0.426410,-4.549042,-0.333864,-4.310082,0.002000,-1.804229,0.000000
126.000000,0.002000,0.036550,0.577887,0.490936,-0.756561,-1.219721,5.091713,0.281165,-10.964457,-10.039161,0.002000,-0.199052,0.000000
127.000000,0.002000,1.733640,-0.915922,-0.181853,-0.469246,1.168257,-1.641143,-3.455528,1.887975,0.326758,0.002000,0.177393,0.000000
128.000000,0.002000,0.511849,2.603655,0.262965,-0.260956,-2.242304,-0.462948,-0.527451,-2.477858,-0.273312,0.002000,0.251338,0.000000
129.000000,0.002000,0.611014,0.753911,0.377032,0.788720,2.887294,1.794046,-6.540533,-7.923061,-3.827578,0.002000,-0.729952,0.000000
130.000000,0.002000,1.133098,0.098566,0.638899,-1.565635,1.364404,-0.222023,-5.696773,-0.041203,-3.343475,0.002000,0.139388,0.000000
131.000000,0.002000,0.273001,-0.158074,-0.436079,1.421279,2.087165,-2.441071,-9.512267,4.895445,14.063624,0.002000,1.003839,0.000000
132.000000,0.002000,-0.569694,-0.551025,-0.202351,1.627513,-1.479364,1.606280,9.014516,9.874492,2.913767,0.002000,0.490936,0.000000
133.000000,0.002000,-0.225564,-1.326800,-1.412301,1.748908,-1.958740,-0.725141,0.394002,2.692436,2.822299,0.002000,-0.181853,0.000000
134.000000,0.002000,-1.106040,1.012618,1.989558,-1.272053,0.953154,0.132881,1.288670,-1.044736,-2.227365,0.002000,0.262965,0.000000
135.000000,0.002000,-0.728410,1.369345,2.435982,-0.341963,-0.671365,0.421414,0.533910,-1.052243,-1.863434,0.002000,0.377032,0.000000
136.000000,0.002000,-0.125785,-0.003302,-0.372212,-2.713486,-1.657656,-2.098417,-1.869173,0.038200,20.109349,0.002000,0.638899,0.000000
137.000000,0.002000,0.064051,0.052706,0.282819,-2.387866,-3.913613,-0.377990,-2.261285,-5.490861,-15.036079,0.002000,-0.436079,0.000000
138.000000,0.002000,1.549327,0.815720,0.007515,0.714880,1.818638,0.270526,-4.443276,-2.227003,0.076145,0.002000,-0.202351,0.000000
139.000000,0.002000,0.789051,1.169048,0.470708,1.218086,0.042212,0.385733,-3.577074,-5.134513,-2.024136,0.002000,-1.412301,0.000000
140.000000,0.002000,-1.216758,-1.778970,0.485621,-0.072464,0.654032,1.980235,1.847584,2.635399,-0.743948,0.002000,1.989558,0.000000
141.000000,0.002000,1.638957,-1.989976,-2.163185,-0.542283,1.789333,0.156817,-0.787409,0.966423,1.037673,0.002000,2.435982,0.000000
142.000000,0.002000,-0.298737,0.844076,0.243828,-0.342385,1.413890,0.443837,4.860825,-11.665671,-3.130813,0.002000,-0.372212,0.000000
143.000000,0.002000,0.945431,5.842782,1.547369,0.079563,-0.438060,-0.100122,-0.085645,-0.512045,-0.139026,0.002000,0.282819,0.000000
144.000000,0.002000,0.220132,0.300466,-0.352922,-1.321398,0.896512,2.574810,-10.159572,-10.600113,12.949094,0.002000,0.007515,0.000000
145.000000,0.002000,-0.729431,-0.213334,0.371863,-1.598420,0.244033,-2.072039,11.842668,4.216040,-5.855059,0.002000,0.470708,0.000000
146.000000,0.002000,0.252211,-0.576583,0.279571,0.298048,-0.798171,-0.697191,-5.310327,12.929234,-6.110396,0.002000,0.485621,0.000000
147.000000,0.002000,0.179891,-0.452587,-0.274786,2.726269,-0.257839,-0.362616,-5.928659,14.811907,8.093067,0.002000,-2.163185,0.000000
148.000000,0.002000,-0.808738,0.606654,-0.472625,-3.580929,1.448465,-0.740366,7.091769,-5.040652,4.648530,0.002000,0.243828,0.000000
149.000000,0.002000,0.660124,-0.213826,0.050184,0.139850,0.550818,-1.449799,-15.810445,6.207648,-1.520664,0.002000,1.547369,0.000000
150.000000,0.002000,0.468073,0.376967,0.025621,-0.020728,2.610625,-3.185905,-13.527138,-11.393067,-0.934981,0.002000,-0.352922,0.000000
151.000000,0.002000,1.331400,-0.423038,-0.200643,1.612178,-1.651540,-0.823090,-6.313387,2.336938,0.861770,0.002000,0.371863,0.000000
152.000000,0.002000,-0.292948,0.593485,-0.030531,-0.101059,-0.438239,-4.399473,7.055309,-15.606712,-0.390718,0.002000,0.279571,0.000000
153.000000,0.002000,-1.149741,-1.299937,-0.519788,-1.096993,0.708304,-0.811803,2.830795,3.195270,1.333855,0.002000,-0.274786,0.000000
154.000000,0.002000,-0.433455,0.682826,-0.042488,0.195345,0.606842,0.893728,7.655575,-12.560047,0.143867,0.002000,-0.472625,0.000000
155.000000,0.002000,-0.207184,0.077859,-0.305844,-0.225746,0.406308,-1.340176,11.355221,-1.512132,18.911995,0.002000,0.050184,0.000000
156.000000,0.002000,0.937909,-0.951522,-3.062159,0.823463,0.195877,1.837171,-0.464700,0.511958,1.550116,0.002000,0.025621,0.000000
157.000000,0.002000,-0.748588,-1.227150,-0.439002,-1.051229,-3.419096,-0.381368,2.769421,4.957275,1.622612,0.002000,-0.200643,0.000000
158.000000,0.002000,-0.148984,-0.064503,0.017021,1.636848,0.767256,4.510892,13.368010,9.141433,-3.153210,0.002000,-0.030531,0.000000
159.000000,0.002000,-0.109849,0.058806,0.950291,2.896384,1.362183,1.718207,0.698510,-0.190101,-11.760084,0.002000,-0.519788,0.000000
160.000000,0.002000,-1.095624,2.103266,0.839878,-1.007181,0.745562,-0.140485,1.191116,-2.352960,-0.768335,0.002000,-0.042488,0.000000
161.000000,0.002000,0.598715,0.401467,-0.368014,-0.414504,-2.854844,-0.385359,-8.559134,-6.764809,5.838614,0.002000,-0.305844,0.000000
162.000000,0.002000,-2.097479,-3.205498,-2.879329,0.224174,1.044353,-0.459109,0.360662,0.568570,0.505860,0.002000,-3.062159,0.000000
163.000000,0.002000,-2.582646,0.129228,0.857597,-0.867067,-0.710936,-0.257476,2.246886,-0.025361,-0.833464,0.002000,-0.439002,0.000000
164.000000,0.002000,0.380034,0.144928,-0.407286,0.422794,-2.684702,-0.459022,-12.353053,-2.929930,12.498059,0.002000,0.017021,0.000000
165.000000,0.002000,-0.255390,-5.593927,2.047019,0.214150,0.524877,0.381278,0.023584,0.512335,-0.191106,0.002000,0.950291,0.000000
166.000000,0.002000,-0.033845,0.526261,-0.073546,2.367965,-1.977183,4.357105,7.213867,-16.739817,3.953203,0.002000,0.839878,0.000000
167.000000,0.002000,0.986598,0.338117,-0.579488,0.953619,0.207916,1.722870,-7.296230,-2.309311,4.420520,0.002000,-0.368014,0.000000
168.000000,0.002000,0.381590,0.138697,-0.254436,-1.831979,-0.945407,1.705249,-15.145404,-3.358868,10.479502,0.002000,-2.879329,0.000000
169.000000,0.002000,0.269153,1.237816,-1.215393,0.129051,-0.312728,0.663264,-0.850322,-3.378578,3.418095,0.002000,0.857597,0.000000
170.000000,0.002000,1.574630,-2.046125,1.569347,1.036305,-0.679094,0.425039,-0.974329,1.312251,-1.025508,0.002000,-0.407286,0.000000
171.000000,0.002000,-0.689694,-1.689146,1.543799,-0.887509,0.388384,-0.556521,0.770094,2.070636,-1.876006,0.002000,2.047019,0.000000
172.000000,0.002000,-0.442483,-0.929886,0.675226,-0.787615,3.135803,-2.732845,2.947241,5.860892,-4.776535,0.002000,-0.073546,0.000000
173.000000,0.002000,-0.580463,0.292455,0.066882,1.966718,-2.592715,-0.265954,15.744259,-7.207114,-3.702895,0.002000,-0.579488,0.000000
174.000000,0.002000,-1.519611,1.038962,1.272712,-1.946650,-0.334508,1.454228,2.284792,-1.486308,-1.953221,0.002000,-0.254436,0.000000
175.000000,0.002000,0.061968,1.105408,0.469059,3.107079,1.693232,-0.723646,-0.636186,-7.881201,-3.621672,0.002000,-1.215393,0.000000
176.000000,0.002000,-0.099532,1.022044,0.304250,1.617430,3.504962,-1.486209,0.754303,-9.813661,-3.323864,0.002000,1.569347,0.000000
177.000000,0.002000,1.232938,-6.404387,-2.716369,-0.550897,-0.335905,-0.841617,-0.069703,0.357769,0.148773,0.002000,1.543799,0.000000
178.000000,0.002000,0.469712,0.355194,-0.120884,-0.814983,2.193478,1.157304,-14.058992,-9.299697,5.265903,0.002000,0.675226,0.000000
179.000000,0.002000,-0.319056,-0.031906,-0.174838,-1.088154,-2.427612,4.077570,16.636744,2.854648,6.385430,0.002000,0.066882,0.000000
180.000000,0.002000,0.269061,0.481945,-0.131778,-0.884373,1.133197,-0.670685,-9.748275,-14.098651,2.085404,0.002000,1.272712,0.000000
181.000000,0.002000,0.027889,0.545941,0.124848,1.425280,2.247902,4.475839,-1.376348,-19.249869,-5.318413,0.002000,0.469059,0.000000
182.000000,0.002000,-0.502450,-0.453117,-0.303768,-4.037241,2.203440,2.450898,10.297377,11.331831,6.977967,0.002000,0.304250,0.000000
183.000000,0.002000,0.406530,-3.562698,-4.356323,0.255959,-0.572377,0.711190,-0.057441,0.384721,0.483685,0.002000,-2.716369,0.000000
184.000000,0.002000,0.021391,0.120645,0.376330,-3.292715,0.735702,1.269299,-4.743718,-3.373796,-20.448931,0.002000,-0.120884,0.000000
185.000000,0.002000,0.194472,0.125035,-0.192494,4.649044,-3.364169,-0.627987,-11.180316,-4.875765,9.493805,0.002000,-0.174838,0.000000
186.000000,0.002000,0.790452,-2.062271,-0.780544,0.365886,1.413607,2.183609,-0.625734,1.631981,-0.180313,0.002000,-0.131778,0.000000
187.000000,0.002000,-0.814415,2.263898,-0.250383,-0.123263,1.842577,-0.773164,1.064059,-2.743612,0.356940,0.002000,0.124848,0.000000
188.000000,0.002000,0.062931,-0.599664,-0.201794,-0.781404,1.526911,-3.577151,-3.066055,16.434808,4.168819,0.002000,-0.303768,0.000000
189.000000,0.002000,-3.074895,-0.839133,1.438430,0.022866,0.891393,-0.009820,1.343184,0.390950,-0.637630,0.002000,-4.356323,0.000000
190.000000,0.002000,0.108707,0.419343,0.215329,2.586641,0.177566,1.691281,-4.643504,-15.744802,-10.542554,0.002000,0.376330,0.000000
191.000000,0.002000,-0.400945,0.542980,0.481154,1.067567,-0.102958,-1.437891,7.310185,-10.312069,-9.213272,0.002000,-0.192494,0.000000
192.000000,0.002000,0.903653,-0.355918,0.456846,-1.253984,-0.643289,0.752091,-10.017367,4.678481,-3.980412,0.002000,-0.780544,0.000000
193.000000,0.002000,0.454434,-0.012678,0.347295,-1.333489,1.350155,-0.787685,-14.515386,2.856811,-10.630152,0.002000,-0.250383,0.000000
194.000000,0.002000,0.373902,-0.362632,-0.250298,1.489038,5.505210,-1.122563,-8.928035,10.898658,4.716378,0.002000,-0.201794,0.000000
195.000000,0.002000,-0.345034,-0.128846,0.599096,1.048557,-1.635301,3.363370,7.274148,3.975309,-13.874793,0.002000,1.438430,0.000000
196.000000,0.002000,-0.436629,0.262203,-0.126669,2.849573,1.289032,-1.421213,15.766821,-8.430558,4.786329,0.002000,0.215329,0.000000
197.000000,0.002000,0.749029,-3.933635,-2.287993,0.029495,1.588400,0.090769,-0.152122,0.773399,0.439082,0.002000,0.481154,0.000000
198.000000,0.002000,-0.102707,-0.097255,-0.252809,-0.112930,-0.287625,-2.713449,2.987985,9.487346,14.915407,0.002000,0.456846,0.000000
199.000000,0.002000,0.132241,0.345098,-0.341672,-1.382256,0.658636,2.596756,-6.197899,-13.801869,14.229993,0.002000,0.347295,0.000000
200.000000,0.002000,-0.210529,-0.490214,-0.577346,0.369072,-0.800303,1.119786,2.661572,9.161912,8.962548,0.002000,-0.250298,0.000000
201.000000,0.002000,-2.095055,0.862267,-1.896053,-0.763574,0.300786,-0.663915,1.491021,-0.649076,1.398996,0.002000,0.599096,0.000000
202.000000,0.002000,1.554916,0.064873,-0.559213,1.444894,-0.665951,-0.798615,-5.149872,-0.033871,1.716380,0.002000,-0.126669,0.000000
203.000000,0.002000,0.000330,0.524947,-0.057638,-1.249696,-1.656295,3.986074,-3.267080,-17.568116,-0.258685,0.002000,-2.287993,0.000000
204.000000,0.002000,0.220315,-0.885340,-0.456842,1.925552,0.801953,1.709953,-2.607975,9.699229,5.531200,0.002000,-0.252809,0.000000
205.000000,0.002000,-0.253466,-0.703446,-0.212272,-2.361710,-1.910258,1.739929,4.698966,13.551196,3.173231,0.002000,-0.341672,0.000000
206.000000,0.002000,0.321746,0.055775,-0.176944,-1.739027,-0.551592,0.483738,-17.316167,-0.426144,7.966819,0.002000,-0.577346,0.000000
207.000000,0.002000,-0.447079,0.201416,-0.041775,5.270273,-2.918683,1.501444,14.747781,-2.490717,-0.150641,0.002000,-1.896053,0.000000
208.000000,0.002000,-0.619405,0.553239,-0.082863,-0.955835,2.064677,1.100681,10.251165,-10.532523,0.503313,0.002000,-0.559213,0.000000
209.000000,0.002000,-0.370602,-0.163259,-0.338241,0.342017,-1.791296,1.429142,10.539739,7.166029,12.848814,0.002000,-0.057638,0.000000
210.000000,0.002000,1.219067,0.029689,-0.168143,-0.339115,0.952099,-2.188218,-8.262390,-0.058682,1.009507,0.002000,-0.456842,0.000000
211.000000,0.002000,0.432592,-0.326170,0.058120,-1.386381,0.008508,1.198623,-11.389379,12.037990,-1.421110,0.002000,-0.212272,0.000000
212.000000,0.002000,-0.038696,0.319063,0.169806,-0.366114,-1.538911,0.634423,-1.082885,-11.642303,-6.717283,0.002000,-0.176944,0.000000
213.000000,0.002000,0.368826,-0.041525,-0.471099,0.797458,-0.929334,3.225638,-10.615376,2.560465,14.298261,0.002000,-0.041775,0.000000
214.000000,0.002000,-1.899255,0.216668,-1.832049,1.100003,-0.837167,0.086578,1.795235,-0.241098,1.750663,0.002000,-0.082863,0.000000
215.000000,0.002000,-1.407601,1.182166,-0.803109,-0.200377,0.303425,1.622208,2.888927,-2.177835,1.656504,0.002000,-0.338241,0.000000
216.000000,0.002000,-0.048004,0.459254,0.000605,0.032352,3.538699,-3.135723,2.911582,-20.360817,-1.433096,0.002000,-0.168143,0.000000
217.000000,0.002000,0.620821,0.134350,-1.223975,-0.151151,1.325647,-0.579854,-3.255543,-0.497709,6.349735,0.002000,0.058120,0.000000
218.000000,0.002000,-2.842255,-0.578221,-0.132607,1.144378,1.580847,1.274591,2.253754,0.004061,0.136712,0.002000,0.169806,0.000000
219.000000,0.002000,-0.082828,-0.162027,0.003502,-1.212975,1.217133,-3.007595,4.898423,12.017227,-2.615103,0.002000,-0.471099,0.000000
220.000000,0.002000,0.626013,0.153507,0.031318,3.887587,0.726969,3.050783,-16.960326,-3.186899,-0.699380,0.002000,-1.832049,0.000000
221.000000,0.002000,1.260189,1.398094,-0.790614,0.555435,2.303459,0.083872,-2.463052,-2.650219,1.519339,0.002000,-0.803109,0.000000
222.000000,0.002000,-0.039298,0.206465,0.192358,2.592363,-0.608552,1.231446,3.013407,-10.234850,-8.451949,0.002000,0.000605,0.000000
223.000000,0.002000,-0.550058,1.421409,0.690306,-1.041829,2.370606,2.333807,1.753077,-4.699975,-2.304667,0.002000,-1.223975,0.000000
224.000000,0.002000,-0.418698,0.625615,1.936947,-0.515019,2.323598,1.196901,0.665695,-1.024616,-3.425017,0.002000,-0.132607,0.000000
225.000000,0.002000,-0.152646,-1.061236,0.907936,-1.618786,0.012234,-0.912696,0.626066,5.037741,-4.161106,0.002000,0.003502,0.000000
226.000000,0.002000,-0.127460,-0.298169,0.177789,2.143362,2.239354,-1.524358,6.256893,13.844830,-7.399407,0.002000,0.031318,0.000000
227.000000,0.002000,0.090819,-0.240927,-0.194202,-0.645615,3.154911,2.568326,-6.653037,14.603973,4.822872,0.002000,-0.790614,0.000000
228.000000,0.002000,-0.716627,-0.376614,-1.261596,1.412137,1.622796,-2.785865,2.976444,1.810508,5.132966,0.002000,0.192358,0.000000
229.000000,0.002000,4.434153,0.339214,-1.409452,-0.992071,1.380828,-0.687445,-0.853172,-0.056898,0.261786,0.002000,0.690306,0.000000
230.000000,0.002000,-1.669961,-3.023341,-2.149296,0.053185,0.893430,1.157195,0.465638,0.865564,0.599932,0.002000,1.936947,0.000000
231.000000,0.002000,0.467914,-0.042316,0.494965,-0.986027,1.797074,-3.873853,-11.292916,1.854952,-11.181948,0.002000,0.907936,0.000000
232.000000,0.002000,0.696403,0.827824,-0.172770,-2.728004,-2.429809,0.758665,-6.685175,-7.665449,1.763753,0.002000,0.177789,0.000000
233.000000,0.002000,-0.003485,-0.234203,0.715878,-0.212410,-0.849834,0.170027,0.504060,4.668857,-13.628146,0.002000,-0.194202,0.000000
234.000000,0.002000,0.312336,-0.583096,-0.310325,-0.383078,-3.592184,3.095880,-6.673232,12.825028,5.965538,0.002000,-1.261596,0.000000
235.000000,0.002000,1.048473,-1.173213,0.215826,0.044814,-1.533882,0.612716,-3.513413,3.964912,-0.603796,0.002000,-1.409452,0.000000
236.000000,0.002000,-2.444281,-0.405743,-0.584981,-0.967688,1.050562,-1.362976,2.565076,0.474899,0.599292,0.002000,-2.149296,0.000000
237.000000,0.002000,0.511076,-0.179317,-0.416347,-2.014208,-1.557327,0.332316,-11.298798,4.608167,8.858048,0.002000,0.494965,0.000000
238.000000,0.002000,0.018180,0.716706,0.028226,2.670307,2.093430,-0.845435,1.766986,-15.351853,1.763421,0.002000,-0.172770,0.000000
239.000000,0.002000,-0.159078,0.820923,0.300065,-2.430743,0.976422,1.822377,2.029200,-11.679919,-5.969984,0.002000,0.715878,0.000000
240.000000,0.002000,-0.353011,0.135715,-0.032885,2.284821,1.706869,-0.141604,17.203411,-5.677989,1.037818,0.002000,-0.310325,0.000000
241.000000,0.002000,0.062103,0.687627,-0.201096,2.680241,1.866823,-0.242818,-1.461133,-15.846593,5.536267,0.002000,0.215826,0.000000
242.000000,0.002000,0.705039,-2.037718,2.190703,0.029620,0.546799,-0.038532,-0.471203,1.266594,-1.357222,0.002000,-0.584981,0.000000
243.000000,0.002000,0.146087,-0.449685,0.364148,-0.670922,2.785776,-1.496846,-2.863576,14.753550,-10.073252,0.002000,-0.416347,0.000000
244.000000,0.002000,0.671049,0.286160,0.035225,-1.042356,1.270555,1.785246,-15.181736,-4.722652,-1.521456,0.002000,0.028226,0.000000
245.000000,0.002000,3.186412,2.933026,-7.596981,-0.648588,0.625105,-0.988477,-0.095661,-0.086092,0.227416,0.002000,0.300065,0.000000
246.000000,0.002000,-0.768122,0.854953,-0.749996,-1.775737,2.762825,-2.064018,4.358852,-4.455560,3.998416,0.002000,-0.032885,0.000000
247.000000,0.002000,0.853411,1.160278,0.816246,3.071211,1.017860,-0.689353,-2.933032,-3.475456,-2.871349,0.002000,-0.201096,0.000000
248.000000,0.002000,-0.671103,0.781790,-0.185229,-0.025232,-0.300321,-1.086406,7.129545,-8.944407,2.218712,0.002000,2.190703,0.000000
249.000000,0.002000,-0.221780,0.088027,0.174320,-1.221453,-1.849170,-1.328381,13.438681,-0.654934,-8.678846,0.002000,0.364148,0.000000
250.000000,0.002000,0.600810,-0.762955,-0.943681,-0.394094,1.361990,-0.566283,-2.793766,4.194834,4.540565,0.002000,0.035225,0.000000
251.000000,0.002000,-0.534422,1.995581,-0.156522,-1.619829,1.288231,-1.004342,0.961803,-3.702917,0.278485,0.002000,-7.596981,0.000000
252.000000,0.002000,-0.242825,0.400186,-0.283501,-1.469786,-3.233573,0.862516,9.847982,-15.090721,7.527494,0.002000,-0.749996,0.000000
253.000000,0.002000,-0.366735,0.436329,0.075006,2.858148,0.568621,0.186436,10.282716,-13.505636,-2.533278,0.002000,0.816246,0.000000
254.000000,0.002000,0.162500,-0.425286,0.356676,-4.476082,-1.422428,0.936103,-5.263301,12.042678,-9.550435,0.002000,-0.185229,0.000000
255.000000,0.002000,-0.390099,-0.097352,-0.579847,-0.069930,-2.334006,-1.729690,8.762136,3.799629,13.365755,0.002000,0.174320,0.000000
256.000000,0.002000,0.221411,0.169111,-0.000117,-2.070021,-5.174110,-1.203958,-15.003673,-7.538487,0.532523,0.002000,-0.943681,0.000000
257.000000,0.002000,0.312671,-0.345269,-0.501211,-0.996361,-2.222867,-1.485721,-7.220505,9.124480,11.545890,0.002000,-0.156522,0.000000
258.000000,0.002000,0.146932,-0.005641,0.102534,3.218921,1.859030,1.829980,-10.043606,3.563674,-2.826613,0.002000,-0.283501,0.000000
259.000000,0.002000,-0.162966,-0.539190,0.020690,3.246127,1.315128,-3.034325,2.508523,17.099423,-1.415753,0.002000,0.075006,0.000000
260.000000,0.002000,-0.277484,1.096964,-1.271032,0.611168,2.039823,0.502885,0.824547,-3.259522,3.930770,0.002000,0.356676,0.000000
261.000000,0.002000,0.532110,0.399992,0.197728,0.745407,-3.924340,-0.669158,-12.343002,-7.992947,-5.586445,0.002000,-0.579847,0.000000
262.000000,0.002000,1.171601,0.220356,-0.956248,2.371636,-1.156218,0.334661,-4.852074,-0.698370,4.066169,0.002000,-0.000117,0.000000
263.000000,0.002000,0.799027,0.011485,0.646132,0.676658,0.526998,-0.949698,-8.152051,0.347698,-6.762237,0.002000,-0.501211,0.000000
264.000000,0.002000,-1.009338,-0.326550,-0.737526,-0.518590,-0.860451,-0.275510,6.142901,2.973030,3.599073,0.002000,0.102534,0.000000
265.000000,0.002000,0.285362,-0.233779,0.407580,0.393413,-0.530308,-3.299554,-8.800866,8.397813,-12.580346,0.002000,0.020690,0.000000
266.000000,0.002000,-0.460215,-0.571777,-1.916900,-0.584124,0.490216,-0.153287,0.812718,1.176943,3.516108,0.002000,-1.271032,0.000000
267.000000,0.002000,-0.049038,-0.579738,0.688151,2.141591,2.597961,-1.996662,0.322950,6.842798,-8.488385,0.002000,0.197728,0.000000
268.000000,0.002000,-0.071413,-0.299191,0.185729,-2.568357,3.769037,-0.295737,4.731168,20.802461,-3.134033,0.002000,-0.956248,0.000000
269.000000,0.002000,0.317839,0.102413,0.366288,-0.041585,-0.881282,-1.979649,-11.884781,-2.247445,-13.848264,0.002000,0.646132,0.000000
270.000000,0.002000,-1.328455,-0.352771,-1.097716,1.372249,-1.854466,0.963212,3.615801,1.051353,2.880044,0.002000,-0.737526,0.000000
271.000000,0.002000,-0.211289,0.109497,0.224789,-0.500935,-3.878826,-1.556862,11.864338,-3.368547,-12.352933,0.002000,0.407580,0.000000
272.000000,0.002000,-0.166970,0.923727,-0.240348,1.818638,-1.337572,-4.305542,1.817391,-10.724280,3.183395,0.002000,-1.916900,0.000000
273.000000,0.002000,-0.645500,0.668182,-0.174948,3.315440,0.349133,-1.227807,8.347469,-8.119269,2.467460,0.002000,0.688151,0.000000
274.000000,0.002000,-0.001612,0.102418,0.137320,1.084718,1.625432,-0.646139,-0.650406,-8.242724,-10.653414,0.002000,0.185729,0.000000
275.000000,0.002000,-0.229546,0.031645,-0.049777,-2.396861,-3.019041,-3.668917,15.859859,3.087979,0.091321,0.002000,0.366288,0.000000
276.000000,0.002000,-0.168278,2.310715,1.072446,-0.146336,1.970830,0.465764,0.112561,-2.418131,-1.190778,0.002000,-1.097716,0.000000
277.000000,0.002000,1.010870,-0.286837,0.062515,0.026113,-1.036303,0.659960,-9.758702,2.886039,-1.390014,0.002000,0.224789,0.000000
278.000000,0.002000,-0.114403,-0.060361,-0.052494,3.535269,0.355003,0.984819,6.600430,9.672941,4.209121,0.002000,-0.240348,0.000000
279.000000,0.002000,-0.383167,-0.474893,-0.635059,0.765048,1.594155,1.214995,6.828367,7.137920,8.314019,0.002000,-0.174948,0.000000
280.000000,0.002000,-0.238622,-0.117446,0.099461,-1.103052,-0.337370,1.022157,9.529869,8.290018,-4.496451,0.002000,0.137320,0.000000
281.000000,0.002000,0.534600,0.825869,-0.744493,-1.590877,-0.264983,-0.880122,-3.888108,-5.798181,5.243836,0.002000,-0.049777,0.000000
282.000000,0.002000,-1.936891,-0.611667,-0.712266,0.776159,-0.861323,-2.200420,3.156154,1.047327,1.007547,0.002000,1.072446,0.000000
283.000000,0.002000,0.445752,0.251242,-0.179673,2.039782,-2.168505,-2.012174,-13.509789,-6.680050,5.761613,0.002000,0.062515,0.000000
284.000000,0.002000,-4.705224,-1.491732,2.408113,0.459760,-0.416385,-0.502693,0.556930,0.178549,-0.284874,0.002000,-0.052494,0.000000
285.000000,0.002000,-0.393337,0.422551,0.302922,2.420963,-1.251939,-1.058674,9.401473,-9.371074,-8.166082,0.002000,-0.635059,0.000000
286.000000,0.002000,-0.875267,0.939608,0.215800,-2.247451,-1.766790,-0.558092,5.580746,-5.456288,-1.494606,0.002000,0.099461,0.000000
287.000000,0.002000,-0.228782,0.265168,0.208884,-0.007311,-1.920548,0.243717,13.740050,-11.084814,-11.745298,0.002000,-0.744493,0.000000
288.000000,0.002000,0.076498,-0.119965,-0.102852,0.266453,1.044755,-0.280583,-4.419477,10.629485,7.625683,0.002000,-0.712266,0.000000
289.000000,0.002000,0.555766,-0.107860,0.151066,1.540413,-1.203927,1.322493,-15.586913,5.208402,-6.419169,0.002000,-0.179673,0.000000
290.000000,0.002000,-0.221112,-0.249214,0.411765,-0.579703,-0.001045,0.370319,6.697779,6.869985,-15.772323,0.002000,2.408113,0.000000
291.000000,0.002000,-2.017220,1.394787,0.430557,0.655100,0.268601,-1.028840,2.412287,-1.376475,-0.496000,0.002000,0.302922,0.000000
292.000000,0.002000,-0.327060,-0.316045,0.154649,-2.066761,-0.123552,-0.834286,10.784174,11.465080,-6.385687,0.002000,0.215800,0.000000
293.000000,0.002000,0.173678,0.259673,0.109029,-2.373320,0.975235,-0.880953,-8.273363,-11.252029,-4.926262,0.002000,0.208884,0.000000
294.000000,0.002000,-0.953820,1.448026,0.591738,0.324475,1.557682,1.740865,2.745308,-3.689091,-1.383636,0.002000,-0.102852,0.000000
295.000000,0.002000,0.308165,0.123637,-0.230905,-0.279073,-0.567519,-1.933486,-16.307954,-2.885374,10.632822,0.002000,0.151066,0.000000
296.000000,0.002000,-0.365155,0.162005,0.664881,1.426030,-2.171555,1.780254,5.576896,-2.691306,-12.448647,0.002000,0.411765,0.000000
297.000000,0.002000,0.197098,0.181264,-0.186617,-0.453567,-2.784285,-0.057878,-12.706299,-8.551698,9.339137,0.002000,0.430557,0.000000
298.000000,0.002000,0.343311,0.396612,-0.270174,0.242725,-4.056393,1.889014,-13.037346,-10.030978,8.907562,0.002000,0.154649,0.000000
299.000000,0.002000,1.431946,2.708549,0.738499,-1.316590,-0.763517,-0.828764,-0.864282,-1.652053,-0.516123,0.002000,0.109029,0.000000
300.000000,0.002000,-0.257188,3.211691,1.509078,-1.017061,0.946391,-0.784653,0.134460,-1.389333,-0.678906,0.002000,0.591738,0.000000
301.000000,0.002000,0.539336,1.244256,0.653664,0.123610,-0.803327,-0.970050,-2.051567,-5.766148,-2.290246,0.002000,-0.230905,0.000000
302.000000,0.002000,-0.695481,0.477996,-0.230375,-2.425416,1.187366,1.049670,10.876590,-7.167631,4.171708,0.002000,0.664881,0.000000
303.000000,0.002000,-0.240525,1.245638,-1.495144,-2.071358,0.454232,-1.671998,0.564937,-2.614334,3.202345,0.002000,-0.186617,0.000000
304.000000,0.002000,0.540376,0.462379,-0.180850,-1.576490,0.037688,1.576943,-11.945437,-8.542349,4.900632,0.002000,-0.270174,0.000000
305.000000,0.002000,1.320008,-0.666763,-0.786199,1.094544,-1.766813,-0.736066,-4.134027,2.185038,2.352280,0.002000,0.738499,0.000000
306.000000,0.002000,-0.685547,0.545713,0.119224,0.445336,0.241288,0.020789,10.612855,-7.610055,-2.379932,0.002000,1.509078,0.000000
307.000000,0.002000,0.052101,-0.064392,-0.432004,-1.437296,-2.947770,1.506998,-3.921949,4.682668,17.156978,0.002000,0.653664,0.000000
308.000000,0.002000,0.398433,0.523143,0.024564,-5.534602,0.548183,1.490892,-10.319202,-12.506666,-1.295175,0.002000,-0.230375,0.000000
309.000000,0.002000,-2.547985,-1.586377,-0.594848,0.274939,-0.550302,0.237598,1.618895,1.089208,0.360560,0.002000,-1.495144,0.000000
310.000000,0.002000,-0.356373,0.239879,-0.336921,0.868941,-1.786927,-3.571936,12.321050,-7.980623,10.251851,0.002000,-0.180850,0.000000
311.000000,0.002000,-2.202369,0.977693,-1.345919,-1.234371,-0.354027,0.146726,1.921197,-0.795554,1.262664,0.002000,-0.786199,0.000000
312.000000,0.002000,1.098369,0.283886,0.230810,-3.751177,-0.307432,0.869256,-8.852913,-1.900218,-2.122292,0.002000,0.119224,0.000000
313.000000,0.002000,1.220649,-2.549486,0.979520,-0.291819,-1.247539,-0.576478,-0.691913,1.756565,-0.509222,0.002000,-0.432004,0.000000
314.000000,0.002000,-0.034383,-0.691475,0.728501,-1.025095,1.460362,0.716853,0.077428,8.109709,-7.039351,0.002000,0.024564,0.000000
315.000000,0.002000,-2.977511,-0.387067,-0.544840,1.118977,0.811662,0.155618,1.940442,0.283461,0.361523,0.002000,-0.594848,0.000000
316.000000,0.002000,0.490432,0.177829,0.814511,-2.715936,-0.828610,0.016476,-5.478197,-1.407827,-9.707119,0.002000,-0.336921,0.000000
317.000000,0.002000,0.608918,-0.662802,0.146291,0.919711,-2.618067,2.686822,-7.795061,9.030144,-1.946218,0.002000,-1.345919,0.000000
318.000000,0.002000,0.192753,-0.135123,0.556629,-0.209621,-3.224921,0.868573,-5.830923,2.895434,-14.206698,0.002000,0.230810,0.000000
319.000000,0.002000,-0.558404,-0.101381,0.013879,1.157644,0.206545,-1.283084,19.388636,5.514240,1.611195,0.002000,0.979520,0.000000
320.000000,0.002000,-1.000362,-0.422186,-2.701477,0.517893,1.494664,1.674545,0.773693,0.339145,2.000510,0.002000,0.728501,0.000000
321.000000,0.002000,-0.337643,0.513070,0.327816,1.392708,-0.126815,-0.944467,7.990296,-11.565228,-7.860619,0.002000,-0.544840,0.000000
322.000000,0.002000,0.424396,-0.477585,-0.090201,-1.166953,-2.914250,0.010604,-10.484392,13.478558,1.795556,0.002000,0.814511,0.000000
323.000000,0.002000,0.074191,-0.025024,0.869716,0.408497,-1.956631,-1.124737,-1.275073,0.879331,-12.227328,0.002000,0.146291,0.000000
324.000000,0.002000,0.210014,0.258120,-0.425281,2.886690,0.710058,-0.186979,-6.983570,-6.919645,15.564051,0.002000,0.556629,0.000000
325.000000,0.002000,0.895802,2.763749,0.250918,-0.321480,-0.491257,2.375598,-0.736355,-2.058899,-0.138319,0.002000,0.013879,0.000000
326.000000,0.002000,-0.185089,-0.581565,-0.622747,0.554745,-4.375678,-0.159034,1.901236,9.806840,8.633573,0.002000,-2.701477,0.000000
327.000000,0.002000,0.020657,-0.132270,-0.233988,-0.481430,1.199955,0.255579,-1.365753,10.495667,11.515073,0.002000,0.327816,0.000000
328.000000,0.002000,-0.157925,0.158546,-0.083275,3.973902,0.141242,-2.124296,12.848656,-9.696842,3.366890,0.002000,-0.090201,0.000000
329.000000,0.002000,-0.269804,0.254294,0.003840,0.765661,-2.488717,0.852639,14.686124,-15.294237,-0.130058,0.002000,0.869716,0.000000
330.000000,0.002000,0.738511,0.016051,-0.469235,1.369482,-1.415355,-0.545434,-10.449428,0.845814,7.181854,0.002000,-0.425281,0.000000
331.000000,0.002000,-0.070404,0.091921,-0.773073,0.576499,-0.505579,-0.141911,0.851447,-0.295049,15.503753,0.002000,0.250918,0.000000
332.000000,0.002000,-0.098551,-0.208611,-0.545898,-0.996493,-1.917950,-1.314056,2.575173,8.414131,16.062062,0.002000,-0.622747,0.000000
333.000000,0.002000,0.174715,0.132733,-1.128556,-2.118014,-0.083298,-2.055024,-0.303218,-0.551955,8.667811,0.002000,-0.233988,0.000000
334.000000,0.002000,0.639692,-1.199557,-0.660207,1.020201,-1.403374,0.653159,-2.432083,4.879831,2.479524,0.002000,-0.083275,0.000000
335.000000,0.002000,-0.313654,-0.099143,0.269106,0.504187,-0.234758,-0.638280,11.887051,6.531382,-12.511951,0.002000,0.003840,0.000000
336.000000,0.002000,-0.331459,-0.559806,0.383447,0.661968,-0.044040,2.413691,6.047999,9.752215,-6.526408,0.002000,-0.469235,0.000000
337.000000,0.002000,-0.132094,-0.352570,-0.259130,-0.336741,2.789947,-2.153187,3.832673,14.227390,9.300105,0.002000,-0.773073,0.000000
338.000000,0.002000,0.973313,-0.072694,1.483821,-2.945369,-1.651763,-0.347807,-2.658069,0.569347,-3.999953,0.002000,-0.545898,0.000000
339.000000,0.002000,0.545766,-0.034562,0.022791,0.425571,2.692337,-0.840953,-21.522370,0.800013,-0.258328,0.002000,-1.128556,0.000000
340.000000,0.002000,1.528856,0.726270,0.398889,0.554497,2.454456,1.352136,-4.496310,-2.073549,-1.341580,0.002000,-0.660207,0.000000
341.000000,0.002000,-0.249127,0.357535,0.089530,-1.787111,2.496622,0.101982,10.320249,-12.016088,-3.916250,0.002000,0.269106,0.000000
342.000000,0.002000,0.452668,-0.520350,1.094077,2.447608,-3.126054,0.969501,-2.655382,3.266618,-6.311582,0.002000,0.383447,0.000000
343.000000,0.002000,-0.344225,-0.441717,0.447682,-2.369878,2.168569,0.901021,6.446569,9.231056,-9.071056,0.002000,-0.259130,0.000000
344.000000,0.002000,-0.311405,-0.290723,0.211559,-0.218242,1.789825,-0.682602,9.949880,10.998488,-9.348592,0.002000,1.483821,0.000000
345.000000,0.002000,0.250437,-0.703605,0.668789,1.855180,-1.692622,1.328428,-2.924429,7.438018,-6.463194,0.002000,0.022791,0.000000
346.000000,0.002000,-0.889578,-2.087469,-0.296464,0.594514,-1.308770,0.979608,1.122291,2.754964,0.388609,0.002000,0.398889,0.000000
347.000000,0.002000,-0.186294,0.459091,-1.284083,-0.159282,2.312635,1.406698,0.866549,-2.316477,6.720715,0.002000,0.089530,0.000000
348.000000,0.002000,0.102307,0.068209,-0.165225,-3.663869,-1.066358,2.818432,-4.812651,0.504059,13.465108,0.002000,1.094077,0.000000
349.000000,0.002000,-0.718293,-0.481252,-0.044871,0.130599,2.515902,-2.504893,10.549932,7.910729,0.796724,0.002000,0.447682,0.000000
350.000000,0.002000,0.182293,-0.244346,0.909538,-1.972031,-1.731658,0.042816,-2.236944,2.792258,-10.324122,0.002000,0.211559,0.000000
351.000000,0.002000,-0.221308,0.164885,-0.721464,2.921691,1.508835,3.186280,3.851476,-3.303760,14.182700,0.002000,0.668789,0.000000
352.000000,0.002000,1.991155,2.076106,-2.248485,0.113530,1.495083,0.885854,-0.814934,-0.809458,0.917871,0.002000,-0.296464,0.000000
353.000000,0.002000,1.049191,-1.248753,0.348908,-2.081126,0.520357,-1.102104,-3.059648,3.773420,-0.932592,0.002000,-1.284083,0.000000
354.000000,0.002000,-0.190037,-0.182050,0.415090,-0.160182,-0.459103,2.840635,8.158474,8.708706,-15.207319,0.002000,-0.165225,0.000000
355.000000,0.002000,0.108646,0.031140,-0.008547,0.180573,0.854294,0.759164,-6.443109,2.486185,0.061849,0.002000,-0.044871,0.000000
356.000000,0.002000,0.226319,0.243302,0.427978,1.601413,0.781062,-0.195842,-6.344991,-8.076281,-16.482985,0.002000,0.909538,0.000000
357.000000,0.002000,0.078386,0.300695,0.365691,1.321866,2.322859,-5.221723,-2.855303,-6.433515,-18.559871,0.002000,-0.721464,0.000000
358.000000,0.002000,0.808869,-0.228089,0.379469,0.734204,-2.532483,-2.743214,-9.920325,3.451582,-4.839433,0.002000,-2.248485,0.000000
359.000000,0.002000,-0.000363,-0.627237,-0.540920,-2.394641,-0.261737,-2.441789,0.427823,10.823676,8.544789,0.002000,0.348908,0.000000
360.000000,0.002000,-0.573492,2.308990,-0.881085,-1.270109,-0.577826,0.204465,0.651985,-2.485546,0.970747,0.002000,0.415090,0.000000
361.000000,0.002000,0.068435,-0.047913,0.137555,2.362898,0.571312,-0.658622,-8.240788,4.037824,-9.068741,0.002000,-0.008547,0.000000
362.000000,0.002000,-0.386047,-0.114153,-0.299806,-1.436104,2.657521,-1.828539,11.724288,6.841142,8.414764,0.002000,0.427978,0.000000
363.000000,0.002000,-0.263228,0.245653,0.018789,2.287797,-4.207044,0.596073,12.025088,-12.012636,-6.142683,0.002000,0.365691,0.000000
364.000000,0.002000,0.381263,0.432332,0.185593,0.131531,-2.038114,-0.909579,-11.710413,-11.326992,-6.445376,0.002000,0.379469,0.000000
365.000000,0.002000,-0.010216,0.419506,-2.472907,-0.468406,-0.547883,2.613546,-0.051354,-0.437546,2.744994,0.002000,-0.540920,0.000000
366.000000,0.002000,-0.087232,0.222764,-0.189422,-1.834424,-0.269818,1.207130,4.314682,-11.310552,13.514579,0.002000,-0.881085,0.000000
367.000000,0.002000,-0.548701,0.050643,-0.392388,3.190073,0.820194,-0.010617,13.199128,-0.849094,8.633905,0.002000,0.137555,0.000000
368.000000,0.002000,-1.622363,0.391748,1.275539,-0.727120,2.121928,-0.456353,2.928040,-0.725897,-2.377495,0.002000,-0.299806,0.000000
369.000000,0.002000,0.243976,0.152329,-0.088868,0.001058,0.085129,2.692354,-16.307262,-6.242561,6.567718,0.002000,0.018789,0.000000
370.000000,0.002000,0.003190,-0.764567,0.234078,-0.173487,-2.220429,-1.855557,-1.621638,11.840327,-5.783235,0.002000,0.185593,0.000000
371.000000,0.002000,-1.566518,0.093482,-0.757544,0.595209,-0.444643,-0.043420,4.498211,-0.125209,2.059432,0.002000,-2.472907,0.000000
372.000000,0.002000,1.550465,-0.610725,-3.011529,-0.774595,0.632761,1.341084,-0.734588,0.313659,1.394454,0.002000,-0.189422,0.000000
373.000000,0.002000,-0.693512,-0.291430,-1.402978,1.829138,-0.545632,-0.292188,2.476772,1.294026,5.012608,0.002000,-0.392388,0.000000
374.000000,0.002000,1.283188,-0.882994,-0.077688,-0.862059,-0.164310,-1.675937,-4.640705,3.343158,0.179207,0.002000,1.275539,0.000000
375.000000,0.002000,2.544874,0.281097,-1.142940,0.664565,-0.950303,0.499875,-2.166622,-0.156996,0.856829,0.002000,-0.088868,0.000000
376.000000,0.002000,0.082858,-0.108970,0.261259,0.550384,0.300077,1.467905,-7.003059,10.103649,-13.800148,0.002000,0.234078,0.000000
377.000000,0.002000,0.478337,1.961593,0.727248,-0.058092,1.194517,2.140117,-0.713918,-3.083331,-1.132759,0.002000,-0.757544,0.000000
378.000000,0.002000,0.258699,-0.680274,1.503957,-0.234668,1.006964,-1.069276,-0.981433,2.203659,-4.645756,0.002000,-3.011529,0.000000
379.000000,0.002000,-0.096675,0.024420,-0.059514,0.443179,2.673403,1.086515,2.911886,4.515425,1.733433,0.002000,-1.402978,0.000000
380.000000,0.002000,0.151128,0.300457,0.169118,1.303337,0.128897,3.811748,-7.903081,-14.215355,-9.689591,0.002000,-0.077688,0.000000
381.000000,0.002000,1.436512,-0.344594,-0.529154,-3.320811,0.188576,1.532071,-5.100425,1.472202,1.844709,0.002000,-1.142940,0.000000
382.000000,0.002000,0.416338,0.100702,0.065002,-0.959888,3.371222,-2.298751,-18.358794,-0.760712,-3.047721,0.002000,0.261259,0.000000
383.000000,0.002000,0.154277,0.112393,0.347357,-2.421865,-1.922626,-0.146881,-7.183800,-4.327645,-15.495127,0.002000,0.727248,0.000000
384.000000,0.002000,-0.029655,0.026091,-0.942843,0.164237,-0.967243,-0.056277,-0.039728,0.224095,12.217441,0.002000,1.503957,0.000000
385.000000,0.002000,-0.091290,0.081602,-0.214653,-0.574093,-1.716596,3.592184,3.041310,-0.979865,12.056197,0.002000,-0.059514,0.000000
386.000000,0.002000,0.269133,-0.284470,-0.289134,0.951532,-2.611887,-2.349400,-8.062153,11.408031,9.345301,0.002000,0.169118,0.000000
387.000000,0.002000,0.561839,1.199197,-0.643107,0.196990,3.601955,-0.910655,-2.699783,-5.300416,2.923646,0.002000,-0.529154,0.000000
388.000000,0.002000,0.139252,0.788319,-0.514745,0.089945,-1.663119,1.427398,-2.270947,-10.291435,6.985428,0.002000,0.065002,0.000000
389.000000,0.002000,-0.687223,0.074250,-0.945602,-0.929754,1.909778,2.287485,5.659075,-0.405897,7.812936,0.002000,0.347357,0.000000
390.000000,0.002000,0.090527,0.043383,0.139621,-1.611010,-4.101944,2.990441,-5.862875,0.147176,-9.436956,0.002000,-0.942843,0.000000
391.000000,0.002000,0.869080,-1.002700,-0.685051,0.357233,-0.609880,-0.541871,-3.537954,3.991219,2.583908,0.002000,-0.214653,0.000000
392.000000,0.002000,-0.352597,-0.577313,0.201760,-1.995942,1.815334,0.495550,6.983649,12.761317,-4.158066,0.002000,-0.289134,0.000000
393.000000,0.002000,0.479857,0.417967,-0.400925,-0.051464,-0.467005,-1.782870,-10.093094,-7.874775,7.736830,0.002000,-0.643107,0.000000
394.000000,0.002000,-0.526610,0.012713,0.207215,-2.582747,2.285256,0.503888,12.313358,-0.995083,-9.452595,0.002000,-0.514745,0.000000
395.000000,0.002000,0.721936,0.831536,0.457367,0.727763,0.382091,1.070653,-5.609915,-6.020424,-3.552016,0.002000,-0.945602,0.000000
396.000000,0.002000,0.073995,0.016020,-0.486808,-0.813273,-1.267008,-0.351785,-2.110021,-0.114810,17.675152,0.002000,0.139621,0.000000
397.000000,0.002000,-0.268655,0.498789,0.325467,2.237319,-0.395473,-1.339951,7.232337,-14.115376,-7.654732,0.002000,-0.685051,0.000000
398.000000,0.002000,-2.028422,0.275769,-0.005030,-1.320903,0.205017,-0.184555,3.757776,-0.470122,-0.014767,0.002000,0.201760,0.000000
399.000000,0.002000,-0.304584,-2.144954,-0.684635,-0.618830,1.544098,0.788163,0.369798,2.943534,0.863931,0.002000,-0.400925,0.000000
400.000000,0.002000,1.790369,0.365968,0.674109,-1.157409,-1.826966,0.389736,-3.780951,-0.675387,-1.555174,0.002000,0.207215,0.000000
401.000000,0.002000,3.305086,-0.865155,-1.839295,-1.250011,-0.060209,0.988399,-1.095748,0.297178,0.594135,0.002000,0.457367,0.000000
402.000000,0.002000,-0.234582,0.167988,0.846916,-1.167786,2.320325,0.658076,3.288137,-1.913113,-12.082110,0.002000,-0.486808,0.000000
403.000000,0.002000,-0.226217,1.284080,-1.940037,-1.447312,0.905222,-1.243987,0.269859,-1.755751,2.635511,0.002000,0.325467,0.000000
404.000000,0.002000,-0.133488,-0.051021,-0.362095,-4.106880,-3.051457,-2.229256,6.966422,7.005557,12.444646,0.002000,-0.005030,0.000000
405.000000,0.002000,0.117853,0.316701,0.173048,1.170159,1.059340,-1.476948,-3.694438,-16.035973,-10.351379,0.002000,-0.684635,0.000000
406.000000,0.002000,-0.055252,0.045458,0.257071,-0.077256,2.023413,-0.581288,4.724054,-0.356994,-18.761263,0.002000,0.674109,0.000000
407.000000,0.002000,0.352664,0.180632,0.396021,1.176699,0.296790,1.540502,-12.242282,-5.318152,-14.175225,0.002000,-1.839295,0.000000
408.000000,0.002000,0.176276,0.704092,0.052795,2.695356,2.653947,1.216532,-6.277805,-14.390893,-2.379385,0.002000,0.846916,0.000000
409.000000,0.002000,0.276120,0.238993,-0.050469,-1.266018,-3.897094,-0.887666,-13.343003,-10.509985,4.527407,0.002000,-1.940037,0.000000
410.000000,0.002000,0.465474,0.688592,1.683100,0.600559,1.494078,0.211586,-1.156182,-1.670793,-3.971256,0.002000,-0.362095,0.000000
411.000000,0.002000,0.176648,0.662054,1.341078,-1.608939,-1.590903,-1.172110,-0.613791,-2.529723,-5.478073,0.002000,0.173048,0.000000
412.000000,0.002000,0.335095,0.689074,-0.244268,-0.845016,5.278229,1.008215,-7.043120,-12.788903,6.096621,0.002000,0.257071,0.000000
413.000000,0.002000,-0.224056,0.019187,0.252102,-0.275339,1.320006,-2.181605,13.398777,4.758992,-13.800062,0.002000,0.396021,0.000000
414.000000,0.002000,0.216338,2.515760,0.659102,-1.475626,-1.454880,-1.270052,-0.225907,-2.539219,-0.686500,0.002000,0.052795,0.000000
415.000000,0.002000,-0.295238,0.524466,-0.642546,0.029414,3.021675,-1.416004,4.880968,-7.379257,9.784588,0.002000,-0.050469,0.000000
416.000000,0.002000,0.167390,0.339129,-0.237908,3.707514,2.501891,1.678724,-6.094467,-13.303949,10.764011,0.002000,1.683100,0.000000
417.000000,0.002000,-0.631134,0.473808,-2.962531,0.066284,0.477389,0.033723,0.460993,-0.213417,1.945802,0.002000,1.341078,0.000000
418.000000,0.002000,-0.078725,-0.265178,0.078233,1.144855,4.635673,2.771313,3.222478,20.073663,-8.821371,0.002000,-0.244268,0.000000
419.000000,0.002000,2.858166,3.544685,-3.348192,-0.251270,-0.619001,-0.821685,-0.321049,-0.390010,0.374436,0.002000,0.252102,0.000000
420.000000,0.002000,-0.108840,-0.571253,-1.450942,0.540287,-1.349284,-2.326686,0.346414,2.235334,5.210381,0.002000,0.659102,0.000000
421.000000,0.002000,-0.165872,-0.104180,0.238936,2.070590,2.589220,-0.904956,10.715207,14.339721,-11.058006,0.002000,-0.642546,0.000000
422.000000,0.002000,1.457608,1.933092,-0.941447,-0.967080,-0.851896,0.503421,-1.530138,-1.897700,0.978521,0.002000,-0.237908,0.000000
423.000000,0.002000,-1.440616,-6.242183,4.878834,-0.285391,-0.242749,0.233989,0.054084,0.236466,-0.184072,0.002000,-2.962531,0.000000
424.000000,0.002000,1.588952,2.205134,3.041818,0.124573,-1.072747,-0.420256,-0.454222,-0.627827,-0.878332,0.002000,0.078233,0.000000
425.000000,0.002000,0.440664,-0.146267,0.767748,0.780945,-0.380196,-2.457132,-6.730030,2.374128,-9.968987,0.002000,-3.348192,0.000000
426.000000,0.002000,-0.199100,-0.079848,1.320750,0.709749,-0.783772,0.469133,1.052445,0.368068,-7.059921,0.002000,-1.450942,0.000000
427.000000,0.002000,0.539208,-0.500727,0.015444,-3.908256,-0.993196,-1.309041,-11.152165,10.383963,0.253155,0.002000,0.238936,0.000000
428.000000,0.002000,-0.016997,-0.113534,0.990495,-1.479053,2.350902,0.410031,-0.033247,1.326508,-10.852204,0.002000,-0.941447,0.000000
429.000000,0.002000,-0.413067,-0.298132,0.183744,-0.717762,3.705257,-1.048992,12.162492,10.225546,-6.059809,0.002000,4.878834,0.000000
430.000000,0.002000,-1.448393,1.381597,-1.712429,-0.023073,0.258503,-1.294577,1.507440,-1.283462,1.677641,0.002000,3.041818,0.000000
431.000000,0.002000,0.317851,0.570181,-0.320535,-1.556505,0.801521,1.752996,-7.387462,-11.204850,6.956529,0.002000,0.767748,0.000000
432.000000,0.002000,0.977151,0.384550,-0.479284,3.152822,0.134566,-1.000978,-8.272240,-2.898040,4.335659,0.002000,1.320750,0.000000
433.000000,0.002000,-0.122499,-0.225487,0.113906,-0.189979,-2.138748,0.461316,8.172255,13.956323,-8.347715,0.002000,0.015444,0.000000
434.000000,0.002000,0.056052,-1.780611,-1.634020,-2.666611,-0.818223,0.338690,-0.231323,2.095246,1.800057,0.002000,0.990495,0.000000
435.000000,0.002000,0.118476,0.682658,0.066591,0.742868,-0.939435,-3.257263,-2.375351,-16.147085,-3.179929,0.002000,0.183744,0.000000
436.000000,0.002000,-1.327417,0.123079,-0.645460,-0.584004,-1.167409,1.447855,5.749693,-0.466227,2.733539,0.002000,-1.712429,0.000000
437.000000,0.002000,0.178820,0.032990,0.166283,1.881754,0.600426,3.689556,-10.208695,4.031503,-10.060423,0.002000,-0.320535,0.000000
438.000000,0.002000,-0.127580,0.076981,0.243425,-0.701249,-0.119107,1.810412,7.972333,-9.380051,-15.292689,0.002000,-0.479284,0.000000
439.000000,0.002000,-0.584509,0.123585,-0.570255,-0.062119,1.918033,0.859068,9.607291,-1.345224,9.564186,0.002000,0.113906,0.000000
440.000000,0.002000,-0.675434,-0.160388,-0.009849,0.861561,0.033634,-2.143039,15.439600,4.736187,0.368140,0.002000,-1.634020,0.000000
441.000000,0.002000,0.416938,0.506624,0.213953,-1.105253,0.244708,-2.568771,-10.677411,-11.565208,-5.814565,0.002000,0.066591,0.000000
442.000000,0.002000,-0.404615,0.433504,0.357235,-1.337395,-1.414020,1.604666,8.355065,-8.495904,-6.882336,0.002000,-0.645460,0.000000
443.000000,0.002000,0.435290,-0.304659,0.669024,2.309098,-0.357359,2.739625,-7.526823,4.946246,-9.906487,0.002000,0.166283,0.000000
444.000000,0.002000,0.125550,0.013293,-0.210042,1.634997,0.187521,-2.855190,-7.352101,2.268011,11.664831,0.002000,0.243425,0.000000
445.000000,0.002000,0.421089,0.082982,0.403484,-0.762294,-0.544882,1.529482,-13.521791,0.304713,-11.973857,0.002000,-0.570255,0.000000
446.000000,0.002000,0.600957,0.657212,-0.264446,-2.414538,-2.358051,-0.659989,-8.375670,-8.977680,3.862620,0.002000,-0.009849,0.000000
447.000000,0.002000,-0.231706,-0.185906,-0.309789,1.034428,2.509291,2.437675,9.227741,9.502532,12.326128,0.002000,0.213953,0.000000
448.000000,0.002000,1.012593,-0.768307,-0.242176,-1.359448,1.189248,-1.987007,-5.795852,4.640120,1.353890,0.002000,0.357235,0.000000
449.000000,0.002000,-0.294113,0.064321,-0.453782,0.813915,1.544336,1.359260,9.555284,-0.642746,15.808580,0.002000,0.669024,0.000000
450.000000,0.002000,0.513953,-0.313836,-0.508247,-2.470678,2.382001,0.607083,-9.671184,6.045615,8.619213,0.002000,-0.210042,0.000000
451.000000,0.002000,0.014473,-5.917395,1.634338,-0.806706,0.013579,1.134838,-0.006411,0.502718,-0.133629,0.002000,0.403484,0.000000
452.000000,0.002000,-1.652174,4.335653,1.438119,1.000696,-0.357314,-0.366873,0.290896,-0.752164,-0.256930,0.002000,-0.264446,0.000000
453.000000,0.002000,-1.599845,0.857838,1.682773,1.163575,-0.563994,-0.270879,1.863629,-0.922601,-1.996928,0.002000,-0.309789,0.000000
454.000000,0.002000,0.144635,0.096289,-0.207872,-2.183874,-4.195204,-0.491769,-9.459454,-3.564600,10.871057,0.002000,-0.242176,0.000000
455.000000,0.002000,-1.308695,-0.219703,-1.405386,0.689540,0.851760,0.232110,2.858591,0.546632,2.994576,0.002000,-0.453782,0.000000
456.000000,0.002000,0.129448,0.368415,-0.169555,-2.367900,0.597688,0.754923,-3.747789,-20.590197,7.736951,0.002000,-0.508247,0.000000
457.000000,0.002000,-0.438155,-0.789882,1.426754,0.776581,1.431848,-1.204255,1.520982,3.002081,-3.475187,0.002000,1.634338,0.000000
458.000000,0.002000,0.119015,-0.391055,0.401766,1.132264,1.775269,2.977379,-2.659603,11.724553,-11.830613,0.002000,1.438119,0.000000
459.000000,0.002000,-0.790606,0.808993,-0.467766,1.557577,-0.500015,-2.541157,5.732558,-5.704908,3.096419,0.002000,1.682773,0.000000
460.000000,0.002000,0.039305,0.397528,0.075716,-1.933654,0.470293,-0.669125,-0.190994,-18.394318,-4.881546,0.002000,-0.207872,0.000000
461.000000,0.002000,-0.042950,-0.191202,-0.789982,-3.245675,0.905169,1.308524,0.764295,4.228799,13.468307,0.002000,-1.405386,0.000000
462.000000,0.002000,-0.028571,0.239658,0.356613,4.962600,-1.638763,-0.400019,0.947824,-9.567663,-16.315154,0.002000,-0.169555,0.000000
463.000000,0.002000,0.528257,0.247490,0.769223,0.794826,-1.512692,-0.557052,-6.412866,-2.541187,-8.900170,0.002000,1.426754,0.000000
464.000000,0.002000,-0.389689,-0.384586,0.254985,-2.727890,1.628918,-1.942858,9.734829,11.066912,-8.229777,0.002000,0.401766,0.000000
465.000000,0.002000,-0.056772,-1.074104,0.186389,0.049655,-2.903811,-2.043968,0.585707,9.668127,-1.830239,0.002000,-0.467766,0.000000
466.000000,0.002000,1.375285,-0.725322,1.672132,1.491460,-1.521737,-0.378040,-1.887737,1.000138,-2.280743,0.002000,0.075716,0.000000
467.000000,0.002000,0.179112,0.103656,-0.119804,-1.429585,1.165580,2.342831,-12.636680,0.420845,7.386096,0.002000,-0.789982,0.000000
468.000000,0.002000,0.845631,0.876633,-1.586989,-0.212997,1.391552,-2.292216,-1.699829,-1.735520,3.280200,0.002000,0.356613,0.000000
469.000000,0.002000,-0.265846,0.164581,0.048387,1.029716,-2.626550,1.925297,19.575377,-6.462331,-6.691031,0.002000,0.769223,0.000000
470.000000,0.002000,-1.508453,1.943114,-0.090141,2.504276,-0.806508,-0.037359,1.811536,-2.261108,0.067220,0.002000,0.254985,0.000000
471.000000,0.002000,0.169237,1.050216,-0.033349,1.194332,2.717011,-1.445665,-2.432768,-10.566279,0.636664,0.002000,0.186389,0.000000
472.000000,0.002000,0.427035,0.704187,1.338507,-1.059897,3.063709,1.258918,-1.592501,-2.475330,-4.924631,0.002000,1.672132,0.000000
473.000000,0.002000,-8.324330,1.984830,7.751209,-1.672115,-0.261953,0.793230,0.107794,-0.025435,-0.100829,0.002000,-0.119804,0.000000
474.000000,0.002000,-0.494004,-0.440692,0.284385,-1.592133,0.020196,-3.272028,10.068008,9.623034,-6.193261,0.002000,-1.586989,0.000000
475.000000,0.002000,0.275325,-0.117755,-0.077765,-2.079803,-3.760180,-2.603783,-14.689507,6.960130,2.572650,0.002000,0.048387,0.000000
476.000000,0.002000,0.412303,0.542758,0.665392,0.749564,4.024928,1.139901,-5.038654,-5.931275,-8.205426,0.002000,-0.090141,0.000000
477.000000,0.002000,-0.159379,-0.210513,-0.425690,2.207128,1.138809,-2.431387,2.640482,6.164566,20.870798,0.002000,-0.033349,0.000000
478.000000,0.002000,0.934135,6.421385,-2.872118,-0.271539,0.073194,-0.017263,-0.053301,-0.362079,0.162696,0.002000,1.338507,0.000000
479.000000,0.002000,0.427674,-0.288797,0.066719,0.628871,1.713492,3.278459,-12.278065,10.132860,-2.655041,0.002000,7.751209,0.000000
480.000000,0.002000,1.460113,-0.224015,-1.442554,-1.642022,-0.728309,0.701477,-2.706231,0.488116,2.546333,0.002000,0.284385,0.000000
481.000000,0.002000,1.615569,1.011865,-0.341081,-0.551135,0.898027,-1.060068,-3.453311,-2.154538,0.888178,0.002000,-0.077765,0.000000
482.000000,0.002000,0.705646,-0.355284,1.637100,-0.012844,-1.624418,1.019711,-1.797537,0.972480,-4.023193,0.002000,0.665392,0.000000
483.000000,0.002000,9.917777,-3.533439,-1.936835,1.130340,-0.417649,-0.121534,-0.160271,0.058012,0.031276,0.002000,-0.425690,0.000000
484.000000,0.002000,-0.253966,0.377116,-0.288240,-0.851769,-3.304836,-0.529176,12.710766,-9.659872,9.950769,0.002000,-2.872118,0.000000
485.000000,0.002000,-0.012554,0.152501,0.057420,-1.769598,-0.464627,-0.095476,3.147869,-12.193573,-6.587663,0.002000,0.066719,0.000000
486.000000,0.002000,0.829836,0.987631,0.069065,0.669161,1.037493,3.083876,-5.263904,-6.076851,-0.103897,0.002000,-1.442554,0.000000
487.000000,0.002000,0.112154,-0.448643,-0.686109,2.835986,2.309128,-3.585597,-2.226600,8.025566,10.828634,0.002000,-0.341081,0.000000
488.000000,0.002000,-1.622469,1.324432,1.723815,0.643247,-0.445621,0.712567,1.497153,-1.129417,-1.580474,0.002000,1.637100,0.000000
489.000000,0.002000,-0.084160,-0.142970,-0.369436,1.886858,-4.086732,1.785694,3.061070,7.982235,14.777871,0.002000,-1.936835,0.000000
490.000000,0.002000,-0.835221,0.752089,-1.428116,-0.849203,-0.751607,0.992151,2.211113,-1.897425,3.759773,0.002000,-0.288240,0.000000
491.000000,0.002000,-0.192360,-0.170831,-0.158382,0.129066,0.326242,1.114612,9.379986,13.781740,6.460543,0.002000,0.057420,0.000000
492.000000,0.002000,-0.110164,0.027798,-0.208569,-2.267931,1.088060,-2.593690,6.284917,-3.649959,13.333771,0.002000,0.069065,0.000000
493.000000,0.002000,0.883061,-0.120268,-0.419369,0.164100,-0.727549,-2.341551,-9.790059,2.052761,4.959761,0.002000,-0.686109,0.000000
494.000000,0.002000,0.110408,0.297366,-0.322048,-2.249856,2.016057,-0.689285,-7.896211,-9.655175,11.141979,0.002000,1.723815,0.000000
495.000000,0.002000,-0.037809,0.041125,0.252180,0.953147,-0.365448,2.639356,-5.196311,0.502620,-13.289107,0.002000,-0.369436,0.000000
496.000000,0.002000,-0.031420,1.144240,0.891808,-1.419232,1.526352,2.165022,0.145292,-5.106221,-4.363633,0.002000,-1.428116,0.000000
497.000000,0.002000,0.054902,-11.480417,-4.868087,-0.682480,-1.232098,-0.289430,-0.000629,0.117888,0.049732,0.002000,-0.158382,0.000000
498.000000,0.002000,-0.191588,-0.438077,0.289862,1.305525,-2.754827,0.159029,4.936383,14.562664,-9.008638,0.002000,-0.208569,0.000000
499.000000,0.002000,-0.659865,0.161243,0.091967,-2.935565,3.578251,-2.016539,15.182355,-3.373454,-3.178931,0.002000,-0.419369,0.000000
500.000000,0.002000,-0.315453,-0.399967,-0.336757,-1.976474,0.603247,-2.505510,8.804582,13.142930,8.442893,0.002000,-0.322048,0.000000
501.000000,0.002000,0.028038,0.216518,0.080583,-1.727648,-1.588731,-1.369528,-1.080520,-10.616668,-7.321548,0.002000,0.252180,0.000000
502.000000,0.002000,0.334973,0.723402,-0.573517,-1.651732,1.655757,-1.919987,-4.257448,-8.670743,7.338520,0.002000,0.891808,0.000000
503.000000,0.002000,0.076398,-0.353370,-0.321187,-0.268669,1.573915,-2.963361,-3.948177,13.743754,11.066298,0.002000,-4.868087,0.000000
504.000000,0.002000,0.385682,0.203242,-0.280999,-4.349937,1.342333,-2.893542,-14.490293,-6.334000,9.814620,0.002000,0.289862,0.000000
505.000000,0.002000,0.069333,-0.736193,-1.370488,0.039211,1.039367,1.132913,-0.334988,2.850691,4.983168,0.002000,0.091967,0.000000
506.000000,0.002000,-0.186983,0.547710,0.375591,0.805066,-0.266617,-1.947328,3.283835,-13.487999,-8.826729,0.002000,-0.336757,0.000000
507.000000,0.002000,-0.458606,0.118231,-0.685860,1.183739,-0.375471,-3.171287,7.944379,-1.244190,10.584474,0.002000,0.080583,0.000000
508.000000,0.002000,-0.236060,-0.152134,1.690948,-1.057867,0.692445,1.636806,0.751160,0.570369,-4.953826,0.002000,-0.573517,0.000000
509.000000,0.002000,-0.043218,-0.399446,-0.025710,-1.481962,4.009204,-2.483518,2.164513,18.802438,-0.046476,0.002000,-0.321187,0.000000
510.000000,0.002000,-0.176103,-0.444535,0.734529,2.496628,0.474719,-4.298422,2.525852,6.113468,-9.801672,0.002000,-0.280999,0.000000
511.000000,0.002000,5.706947,-3.716165,2.986864,0.138823,0.382862,1.062678,-0.270848,0.177793,-0.141598,0.002000,-1.370488,0.000000
512.000000,0.002000,0.171334,-0.065376,-0.749790,-2.324238,0.233761,-0.427130,-3.811333,1.724989,13.478266,0.002000,0.375591,0.000000
513.000000,0.002000,0.715352,0.271250,0.305644,3.899007,1.510172,-2.986255,-12.706130,-3.470401,-5.995391,0.002000,-0.685860,0.000000
514.000000,0.002000,-0.372583,0.749580,-0.076756,3.295741,-1.132723,-1.624840,5.666790,-12.225044,0.809207,0.002000,1.690948,0.000000
515.000000,0.002000,0.147743,-1.409812,-1.466404,-0.177855,-1.832668,-2.242890,-0.407161,2.538616,2.541368,0.002000,-0.025710,0.000000
516.000000,0.002000,0.009987,0.232851,0.079048,-1.626234,-2.112551,-2.034812,2.782925,-13.630259,-6.586495,0.002000,0.734529,0.000000
517.000000,0.002000,0.102429,-0.073960,0.435541,-1.076418,3.204869,-1.815567,-4.464939,5.207611,-18.112032,0.002000,2.986864,0.000000
518.000000,0.002000,0.000187,0.226801,0.256830,-1.579839,-2.530155,1.831378,0.833803,-8.216635,-15.012141,0.002000,-0.749790,0.000000
519.000000,0.002000,-0.397811,0.486518,0.254855,1.218566,-2.401008,-0.829666,9.845673,-12.563000,-6.197346,0.002000,0.305644,0.000000
520.000000,0.002000,0.350233,-0.242941,0.149697,-0.236243,3.204558,-0.902312,-12.485154,11.386067,-7.066256,0.002000,-0.076756,0.000000
521.000000,0.002000,0.014280,-0.542818,-0.190309,3.598781,1.142833,-1.856081,-1.544610,16.590847,1.224298,0.002000,-1.466404,0.000000
522.000000,0.002000,0.311214,0.277973,0.054306,-1.857369,2.104374,0.444870,-12.608465,-10.940872,-4.773258,0.002000,0.079048,0.000000
523.000000,0.002000,-0.497161,0.214369,-0.867031,0.689651,-0.534760,-1.582825,4.948982,-2.673064,9.661719,0.002000,0.435541,0.000000
524.000000,0.002000,-0.023582,0.120667,-0.036671,5.149960,4.298498,0.750534,-2.823016,-7.488573,-3.551192,0.002000,0.256830,0.000000
525.000000,0.002000,0.991105,0.676007,1.773520,0.072127,-0.066356,1.137148,-1.675613,-1.051630,-2.999609,0.002000,0.254855,0.000000
526.000000,0.002000,0.604272,0.318302,0.489751,0.534009,1.036582,-0.519528,-9.837755,-4.975971,-8.385645,0.002000,0.149697,0.000000
527.000000,0.002000,-0.317927,-0.031367,-0.059254,1.553311,0.119577,3.408241,15.755942,3.003310,1.804263,0.002000,-0.190309,0.000000
528.000000,0.002000,-1.196301,-0.397306,2.286505,1.351232,-0.823519,1.101187,1.175003,0.402244,-2.212544,0.002000,0.054306,0.000000
529.000000,0.002000,0.014060,-0.153863,0.062032,2.726955,0.640072,-3.288248,4.650705,8.091435,-2.339549,0.002000,-0.867031,0.000000
530.000000,0.002000,3.189826,-3.154612,-1.219920,0.118516,1.063540,0.471887,-0.606707,0.603480,0.220762,0.002000,-0.036671,0.000000
531.000000,0.002000,-1.443362,0.218568,0.430176,1.428828,-0.094980,-1.490661,5.798586,-0.736415,-1.945595,0.002000,1.773520,0.000000
532.000000,0.002000,1.306261,0.053103,-0.099896,-0.148574,-2.073831,-2.740653,-7.819889,-0.140750,0.260906,0.002000,0.489751,0.000000
533.000000,0.002000,-1.215195,-0.489359,1.004481,0.631689,-1.654380,1.610937,3.673851,1.783555,-3.326851,0.002000,-0.059254,0.000000
534.000000,0.002000,0.304184,-0.151966,-0.175024,0.420057,-1.310554,-1.738679,-12.693529,12.193076,10.316853,0.002000,2.286505,0.000000
535.000000,0.002000,-1.931235,-2.597622,-1.002108,-0.484160,-0.765974,-0.062637,0.903054,1.303075,0.464632,0.002000,0.062032,0.000000
536.000000,0.002000,-1.451769,-1.093071,-0.202937,-0.804254,-0.354841,-0.022680,3.512252,2.629385,0.460518,0.002000,-1.219920,0.000000
537.000000,0.002000,0.047657,-0.600670,0.876014,-1.721347,-0.829696,-1.623916,-0.907782,5.531466,-8.243769,0.002000,0.430176,0.000000
538.000000,0.002000,-0.027570,-1.565437,0.480525,-0.746097,-2.499745,1.307013,0.114261,5.089537,-1.426364,0.002000,-0.099896,0.000000
539.000000,0.002000,0.172464,0.451273,1.129929,-2.026586,-2.213173,-1.498563,-1.077483,-2.716844,-8.003986,0.002000,1.004481,0.000000
540.000000,0.002000,-0.306740,-0.553176,-0.245394,0.287008,-2.365631,-0.350440,7.099501,13.299736,4.597457,0.002000,-0.175024,0.000000
541.000000,0.002000,-0.504233,1.380378,0.983443,0.297146,-1.255142,-1.062960,1.430965,-3.779405,-2.984848,0.002000,-1.002108,0.000000
542.000000,0.002000,-0.014816,0.055205,-0.740597,3.379293,-0.009078,-1.347763,-1.270772,-0.938116,15.812310,0.002000,-0.202937,0.000000
543.000000,0.002000,-0.041498,0.009481,-0.741659,-1.022939,-1.297950,2.283327,0.578947,0.752082,15.598482,0.002000,0.876014,0.000000
544.000000,0.002000,0.315473,-0.088230,-0.099749,1.545023,1.281438,-2.227935,-18.565006,3.250280,2.812770,0.002000,0.480525,0.000000
545.000000,0.002000,-0.183572,-0.231236,0.156538,4.606696,0.077088,-4.007948,7.599162,12.493468,-8.975633,0.002000,1.129929,0.000000
546.000000,0.002000,-0.038195,-0.214347,0.452810,-1.510082,0.176995,0.916991,2.768513,8.576585,-16.309115,0.002000,-0.245394,0.000000
547.000000,0.002000,-0.711760,-0.057595,-0.013681,0.355166,-0.271668,0.833316,15.434612,2.540730,-0.403438,0.002000,0.983443,0.000000
548.000000,0.002000,0.836195,0.885954,0.007524,3.307954,1.560897,-0.747393,-6.344945,-6.377576,0.604399,0.002000,-0.740597,0.000000
549.000000,0.002000,-1.472385,-1.266143,1.088785,-1.979295,0.884962,-0.308273,2.148435,1.837715,-1.582457,0.002000,-0.741659,0.000000
550.000000,0.002000,-0.118756,-0.831419,-0.577965,-0.847524,2.258085,-0.541672,1.357403,8.788651,5.446967,0.002000,-0.099749,0.000000
551.000000,0.002000,-0.879489,0.206891,1.592155,0.602139,1.315712,2.678115,2.322280,-0.096415,-4.087617,0.002000,0.156538,0.000000
552.000000,0.002000,0.049901,0.270384,0.676186,-1.634762,2.023434,1.306669,-1.471075,-5.106887,-14.750756,0.002000,0.452810,0.000000
553.000000,0.002000,-1.238382,1.158295,-1.886409,0.403834,-0.256355,-1.422960,1.464088,-1.148470,2.067857,0.002000,-0.013681,0.000000
554.000000,0.002000,0.059309,0.438398,-0.111115,0.725587,-1.350251,0.661161,-3.707989,-18.213414,3.569197,0.002000,0.007524,0.000000
555.000000,0.002000,-1.029185,-0.401132,0.425894,-2.121338,-2.054031,0.693828,7.309676,3.244584,-3.364819,0.002000,1.088785,0.000000
556.000000,0.002000,-0.294091,0.430282,0.495565,-0.649737,0.078018,2.297426,5.422296,-11.777676,-11.099047,0.002000,-0.577965,0.000000
557.000000,0.002000,-0.003233,0.012248,0.816400,-2.280954,0.122680,1.316344,-0.183248,0.215144,-12.968303,0.002000,1.592155,0.000000
558.000000,0.002000,-0.596542,2.545046,0.490227,0.730393,0.325164,1.313906,0.562612,-2.469701,-0.589474,0.002000,0.676186,0.000000
559.000000,0.002000,-0.064174,1.062305,-1.445795,2.170506,1.163523,0.581565,0.073381,-2.736152,3.481948,0.002000,-1.886409,0.000000
560.000000,0.002000,-0.070564,-1.420102,-1.330412,0.100500,0.716273,-2.677137,0.063673,2.727423,2.870255,0.002000,-0.111115,0.000000
561.000000,0.002000,-0.101532,0.493573,0.158536,-1.238258,-2.121338,1.100413,3.551158,-17.452458,-5.910136,0.002000,0.425894,0.000000
562.000000,0.002000,2.341729,1.135610,-0.099046,0.178774,-2.358936,0.030249,-2.321142,-1.084528,0.069374,0.002000,0.495565,0.000000
563.000000,0.002000,0.304915,-0.212350,0.264059,-0.967261,0.115899,5.595287,-11.981445,9.642093,-11.300061,0.002000,0.816400,0.000000
564.000000,0.002000,2.070685,0.037585,-0.635631,-0.646274,-1.289722,1.322017,-3.313570,0.035539,1.004936,0.002000,0.490227,0.000000
565.000000,0.002000,1.178227,1.226210,0.498593,-0.424937,-2.823152,-1.391039,-3.848149,-3.338677,-1.402169,0.002000,-1.445795,0.000000
566.000000,0.002000,-0.562563,1.128130,-1.003254,0.923446,0.531424,-1.036574,2.321839,-3.936022,3.525037,0.002000,-1.330412,0.000000
567.000000,0.002000,-2.818754,-0.237158,1.033739,-0.618991,-0.232218,0.959943,1.867401,0.142132,-0.730925,0.002000,0.158536,0.000000
568.000000,0.002000,0.043974,-0.146663,0.050190,-0.335250,2.768613,-1.557231,-5.006960,12.339084,-3.442535,0.002000,-0.099046,0.000000
569.000000,0.002000,0.520790,-1.122020,0.814448,0.228037,-0.629336,-2.364417,-2.229599,4.533098,-3.259933,0.002000,0.264059,0.000000
570.000000,0.002000,-0.988749,0.610647,-0.973441,-3.253250,0.199919,-2.212789,4.305396,-2.320962,3.997829,0.002000,-0.635631,0.000000
571.000000,0.002000,-0.179168,0.275125,0.475198,-1.050844,-3.138475,1.109991,5.866269,-7.500054,-16.117215,0.002000,0.498593,0.000000
572.000000,0.002000,1.205913,0.795922,1.158487,-0.030802,-1.573538,-1.764741,-2.973385,-1.758354,-2.830108,0.002000,-1.003254,0.000000
573.000000,0.002000,0.049743,0.035425,-0.130043,-0.167200,-1.940585,2.726999,-5.606270,-3.478632,13.083136,0.002000,1.033739,0.000000
574.000000,0.002000,-0.359175,0.685412,1.146375,2.679584,-0.439812,-0.127148,1.483828,-2.914451,-6.018776,0.002000,0.050190,0.000000
575.000000,0.002000,-2.276195,-0.953098,0.378854,-0.834890,0.553626,0.216065,2.202966,0.917446,-0.363762,0.002000,0.814448,0.000000
576.000000,0.002000,-0.507750,-0.550367,0.004529,-1.464682,0.788832,-0.746743,9.330297,10.960021,-0.376638,0.002000,-0.973441,0.000000
577.000000,0.002000,-0.720576,0.128290,0.113237,-0.497528,-0.591615,-3.166455,15.545732,-2.147082,-2.959879,0.002000,0.475198,0.000000
578.000000,0.002000,-0.433526,0.133551,3.788703,0.510335,0.931968,0.787396,0.144810,-0.023666,-1.319188,0.002000,1.158487,0.000000
579.000000,0.002000,-0.022469,-0.691753,-0.792871,0.017766,1.063655,3.964033,0.297685,7.264857,7.478556,0.002000,-0.130043,0.000000
580.000000,0.002000,0.798525,-0.953013,-0.077266,0.436865,0.407297,1.213322,-4.913776,6.091672,0.478518,0.002000,1.146375,0.000000
581.000000,0.002000,-0.482830,0.142066,0.449663,0.120308,3.723033,-1.375446,10.846189,-2.394701,-12.194331,0.002000,0.378854,0.000000
582.000000,0.002000,0.722795,-1.483213,-0.979704,1.845544,-2.617824,-0.429408,-1.292029,3.104727,2.536409,0.002000,0.004529,0.000000
583.000000,0.002000,2.395805,2.579612,-1.206497,-0.404799,-1.263007,-1.870134,-0.927527,-0.965848,0.466301,0.002000,0.113237,0.000000
584.000000,0.002000,-0.086209,0.482472,-0.553488,-0.675561,2.935219,-0.566800,2.638721,-9.148576,13.277596,0.002000,3.788703,0.000000
585.000000,0.002000,0.744072,-0.898599,0.443056,3.211049,-1.582145,-0.072420,-4.937721,5.476409,-2.769566,0.002000,-0.792871,0.000000
586.000000,0.002000,-0.225142,0.004231,0.320184,-0.078255,1.459049,-2.954438,12.549038,1.060778,-16.958644,0.002000,-0.077266,0.000000
587.000000,0.002000,-3.250209,0.007816,-0.267092,0.397582,0.597335,-0.459730,1.778711,0.002824,0.114934,0.002000,0.449663,0.000000
588.000000,0.002000,0.756598,0.174667,1.586236,0.125605,0.504187,0.258210,-2.145839,-0.295923,-4.293802,0.002000,-0.979704,0.000000
589.000000,0.002000,0.381202,0.518822,0.953802,-0.275604,2.772349,0.648880,-2.855444,-3.807867,-7.683009,0.002000,-1.206497,0.000000
590.000000,0.002000,-0.624029,1.130888,-2.058793,0.506332,1.906522,-0.884077,0.996125,-1.025808,2.697909,0.002000,-0.553488,0.000000
591.000000,0.002000,0.275146,-0.227277,-0.033705,-2.464983,-1.584959,1.183977,-10.967488,16.544320,1.495912,0.002000,0.443056,0.000000
592.000000,0.002000,-0.529563,-0.172279,0.325919,1.526967,1.166527,-0.579925,12.081106,5.414277,-9.106032,0.002000,0.320184,0.000000
593.000000,0.002000,0.597702,-2.303248,-0.373641,-0.577749,0.989589,0.475667,-0.697744,2.748362,0.400695,0.002000,-0.267092,0.000000
594.000000,0.002000,-0.815800,-0.973264,-1.971330,-0.806184,-1.738598,-0.078481,1.071038,1.231748,2.583211,0.002000,1.586236,0.000000
595.000000,0.002000,0.278466,-0.595387,-0.084763,1.073143,3.119503,1.082213,-6.245745,14.807053,0.789500,0.002000,0.953802,0.000000
596.000000,0.002000,2.162179,0.827278,-1.650711,0.541552,0.960705,-0.786917,-1.712209,-0.674484,1.272858,0.002000,-2.058793,0.000000
597.000000,0.002000,1.392805,-0.015062,0.747131,1.320100,2.079316,1.113294,-4.266597,0.363270,-2.969809,0.002000,-0.033705,0.000000
598.000000,0.002000,-0.015253,-0.625723,-0.264320,1.638525,-1.846480,1.603104,0.082156,15.384555,5.639433,0.002000,0.325919,0.000000
599.000000,0.002000,-1.024923,-0.456018,0.615278,0.128931,1.098447,2.038373,6.032254,2.645652,-4.006906,0.002000,-0.373641,0.000000
600.000000,0.002000,0.378611,0.066808,0.636940,2.184811,1.710193,2.598859,-7.410047,-0.591426,-11.968548,0.002000,-1.971330,0.000000
601.000000,0.002000,-0.551598,0.556581,-0.387495,0.665749,-1.592789,-3.124362,7.745283,-8.719952,5.226179,0.002000,-0.084763,0.000000
602.000000,0.002000,0.565808,0.070321,-0.944653,1.419351,-0.854450,-0.916020,-4.848943,-0.688948,9.618379,0.002000,-1.650711,0.000000
603.000000,0.002000,1.250979,-1.610006,-1.104117,-1.177957,-0.757584,-0.867258,-1.688866,2.149659,1.277285,0.002000,0.747131,0.000000
604.000000,0.002000,0.675155,0.436461,0.278687,-0.013208,-1.729884,-0.529675,-12.632092,-5.879692,-3.125532,0.002000,-0.264320,0.000000
605.000000,0.002000,0.123980,0.208988,0.363791,3.703378,0.326718,1.981160,-5.142838,-7.699053,-16.812799,0.002000,0.615278,0.000000
606.000000,0.002000,1.657650,3.019835,-2.079156,-1.328811,-0.053690,0.581075,-0.521596,-0.903065,0.630019,0.002000,0.636940,0.000000
607.000000,0.002000,-0.559277,-0.530891,0.247847,-1.866471,-0.724314,-2.098861,9.409946,9.117572,-4.375614,0.002000,-0.387495,0.000000
608.000000,0.002000,0.071654,-0.341340,0.266789,0.783962,-1.494833,-0.189179,-1.987397,15.960288,-10.324388,0.002000,-0.944653,0.000000
609.000000,0.002000,-1.241921,1.485034,-1.706908,0.806084,0.051802,0.618979,1.332378,-1.520459,1.753963,0.002000,-1.104117,0.000000
610.000000,0.002000,0.146739,0.222165,0.183105,-0.296494,0.243839,2.688690,-7.775382,-9.224055,-14.536340,0.002000,0.278687,0.000000
611.000000,0.002000,0.061169,-0.092511,0.324599,-0.321564,-0.685324,-2.881856,-8.154117,8.102814,-18.624702,0.002000,0.363791,0.000000
612.000000,0.002000,0.263907,0.069205,-0.325164,-0.214827,0.799014,-0.450964,-13.188600,0.303620,14.148986,0.002000,-2.079156,0.000000
613.000000,0.002000,-0.385565,-0.248084,-0.062671,0.574479,-0.105432,-0.497594,12.945104,11.608742,2.674695,0.002000,0.247847,0.000000
614.000000,0.002000,0.382438,0.077288,0.082371,-1.088795,-1.454794,-4.148266,-18.454891,-0.543947,-5.104826,0.002000,0.266789,0.000000
615.000000,0.002000,0.236208,-0.414979,0.344887,0.243367,-4.243529,0.201932,-5.314897,12.137590,-9.782515,0.002000,-1.706908,0.000000
616.000000,0.002000,-0.633334,-0.096111,-0.203519,0.126190,-0.680053,-2.971971,15.966118,3.473598,8.580259,0.002000,0.183105,0.000000
617.000000,0.002000,0.149366,0.355172,0.167172,1.048635,-2.866549,-0.593200,-6.621283,-15.656905,-8.842990,0.002000,0.324599,0.000000
618.000000,0.002000,0.018482,-0.387609,-0.032104,0.965691,0.443047,1.835812,-3.532527,18.029435,-0.452309,0.002000,-0.325164,0.000000
619.000000,0.002000,-1.169857,0.525967,2.807606,-0.376890,0.386375,0.646318,0.823513,-0.203098,-1.799881,0.002000,-0.062671,0.000000
620.000000,0.002000,-0.158247,0.127025,-0.122144,2.591729,-3.473554,0.897123,15.789205,-5.453214,5.702574,0.002000,0.082371,0.000000
621.000000,0.002000,-0.251823,-0.219069,-0.232039,0.433536,-3.193394,3.361581,11.555671,10.656461,10.260347,0.002000,0.344887,0.000000
622.000000,0.002000,-0.551016,0.116854,0.738620,-1.259778,1.407274,-2.089381,6.625126,-1.243754,-10.023597,0.002000,-0.203519,0.000000
623.000000,0.002000,-0.121712,0.460304,0.163592,0.653916,-1.045237,-0.311089,5.052366,-15.033111,-5.813579,0.002000,0.167172,0.000000
624.000000,0.002000,0.225161,-0.393832,0.188601,0.387039,1.218244,-0.144071,-8.324548,13.110931,-5.231860,0.002000,-0.032104,0.000000
625.000000,0.002000,0.560176,-2.274884,-2.769114,0.231194,0.124074,-0.338346,-0.248562,0.940026,1.091195,0.002000,2.807606,0.000000
626.000000,0.002000,-0.821804,-0.594758,0.216244,1.071768,-1.041427,1.381626,7.979972,6.197985,-2.370590,0.002000,-0.122144,0.000000
627.000000,0.002000,-0.098126,-0.222937,-0.105894,-0.198938,1.575200,-3.377083,5.781020,15.529399,5.863551,0.002000,-0.232039,0.000000
628.000000,0.002000,-0.464848,0.499508,0.436470,-0.286853,1.493281,-2.758975,9.285662,-9.030066,-8.173089,0.002000,0.738620,0.000000
629.000000,0.002000,-1.057898,0.390518,-0.004515,0.195241,0.246184,2.720748,9.020721,-2.563658,-0.292544,0.002000,0.163592,0.000000
630.000000,0.002000,0.191241,-0.197618,0.088893,2.548190,-0.378337,-2.594369,-15.041142,17.248119,-9.283632,0.002000,0.188601,0.000000
631.000000,0.002000,-1.552495,-1.986950,-0.911366,1.173507,0.504609,0.481281,1.426861,1.861152,0.749833,0.002000,-2.769114,0.000000
632.000000,0.002000,0.432872,0.164621,-0.361104,0.173212,-2.387881,1.151702,-13.184702,-3.755684,10.247961,0.002000,0.216244,0.000000
633.000000,0.002000,1.520923,-0.358455,-0.585950,-2.567359,-0.790842,2.369788,-4.843108,1.147871,1.943200,0.002000,-0.105894,0.000000
634.000000,0.002000,-0.677431,0.114836,0.193572,1.586335,-1.355489,1.222684,13.485782,-1.472415,-5.458736,0.002000,0.436470,0.000000
635.000000,0.002000,0.123513,-0.558310,-0.093429,-1.197828,1.203039,-0.594665,-2.674108,16.627533,0.384123,0.002000,-0.004515,0.000000
636.000000,0.002000,0.431485,-0.160632,0.114915,2.164411,-0.149547,-0.043251,-15.660818,7.706028,-5.263896,0.002000,0.088893,0.000000
637.000000,0.002000,0.395938,0.576954,1.730001,-0.277242,-0.184150,1.581638,-0.815316,-1.350057,-4.204799,0.002000,-0.911366,0.000000
638.000000,0.002000,-0.163646,-0.051966,-0.223764,4.985432,1.379318,3.696481,8.071874,10.371788,16.925341,0.002000,-0.361104,0.000000
639.000000,0.002000,0.467272,-0.298201,-1.313414,1.048868,0.273767,1.394346,-2.279700,1.629484,6.317152,0.002000,-0.585950,0.000000
640.000000,0.002000,-0.480822,-0.810391,-0.698766,0.609376,0.242168,0.447510,4.036476,6.812970,5.055046,0.002000,0.193572,0.000000
641.000000,0.002000,0.129021,-0.696586,-0.780775,1.136272,-0.395900,1.502949,-1.590726,7.056916,7.163251,0.002000,-0.093429,0.000000
642.000000,0.002000,-0.045315,-0.529609,-0.144403,-0.196927,-1.833847,-0.085869,1.344988,17.494027,1.690857,0.002000,0.114915,0.000000
643.000000,0.002000,-1.854067,-1.217793,-0.613075,-0.823584,1.388873,0.956867,2.730004,1.502674,0.672106,0.002000,1.730001,0.000000
644.000000,0.002000,0.138043,-0.810315,-0.122702,2.109803,-2.192953,-2.645604,-1.769408,11.824023,1.848080,0.002000,-0.223764,0.000000
645.000000,0.002000,0.135721,0.162720,-0.110258,1.289369,-1.269162,-2.546130,-5.301667,-9.448822,-1.395169,0.002000,-1.313414,0.000000
646.000000,0.002000,-0.642129,-1.691328,-2.268287,-0.371339,-0.176490,0.007267,0.529068,1.262494,1.716325,0.002000,-0.698766,0.000000
647.000000,0.002000,-0.574594,0.619809,1.784672,-1.149224,1.203831,0.121833,1.159586,-1.089590,-3.537129,0.002000,-0.780775,0.000000
648.000000,0.002000,1.090158,-0.281804,-0.069227,1.375645,-2.643909,0.741205,-9.402353,3.486941,-0.254298,0.002000,-0.144403,0.000000
649.000000,0.002000,0.025645,-0.169519,-0.106548,-1.484259,-0.150095,0.321501,-1.528450,16.139523,6.243515,0.002000,-0.613075,0.000000
650.000000,0.002000,1.389782,-3.578472,-0.549735,0.905568,1.251702,-0.304108,-0.481733,1.145661,0.169118,0.002000,-0.122702,0.000000
651.000000,0.002000,0.113749,-0.237143,-0.582127,5.108388,-0.580555,2.514683,-3.836092,6.543585,14.250758,0.002000,-0.110258,0.000000
652.000000,0.002000,-0.315790,-0.203454,0.279755,-0.687296,-3.041166,-0.880306,10.795122,9.432768,-11.100625,0.002000,-2.268287,0.000000
653.000000,0.002000,0.472450,-0.118259,-2.851508,-0.114838,0.536941,-1.227433,-0.375062,0.132067,2.141916,0.002000,1.784672,0.000000
654.000000,0.002000,-0.561547,0.218777,-0.410649,-4.071038,2.460913,-0.106989,12.437074,-3.993758,9.072984,0.002000,-0.069227,0.000000
655.000000,0.002000,1.900170,-0.704964,0.319804,0.322474,1.933463,1.034382,-3.398916,1.359977,-0.676700,0.002000,-0.106548,0.000000
656.000000,0.002000,1.127077,-0.001816,-0.433173,-1.578592,0.014263,2.320332,-8.268051,-0.072971,3.891874,0.002000,-0.549735,0.000000
657.000000,0.002000,0.287171,0.022630,-0.304962,3.056096,-1.083314,0.685187,-14.344853,0.931935,13.583538,0.002000,-0.582127,0.000000
658.000000,0.002000,-0.397316,0.075373,-0.351410,-1.427136,-0.094673,-2.637185,18.060634,-1.860780,11.155695,0.002000,0.279755,0.000000
659.000000,0.002000,-0.851890,-0.318354,1.069642,0.046632,0.563573,1.614552,4.223412,1.594496,-5.133065,0.002000,-2.851508,0.000000
660.000000,0.002000,-0.330719,-0.153203,0.024824,-3.340021,0.410503,2.573865,15.837440,8.584479,-0.895769,0.002000,-0.410649,0.000000
661.000000,0.002000,0.567937,1.016457,0.706468,1.091960,-0.516994,0.041766,-3.332881,-4.984483,-4.295290,0.002000,0.319804,0.000000
662.000000,0.002000,-1.453593,0.755055,1.483409,-0.614907,-0.769425,-1.755804,2.227976,-1.028852,-2.213491,0.002000,-0.433173,0.000000
663.000000,0.002000,0.733765,0.140535,0.468873,-1.235009,-0.053152,-3.130325,-10.577931,-1.370814,-7.498948,0.002000,-0.304962,0.000000
664.000000,0.002000,-0.040336,-0.269532,-0.139714,1.294585,-1.349610,-2.599902,1.907276,17.488445,8.074308,0.002000,-0.351410,0.000000
665.000000,0.002000,-0.632960,-0.101943,-0.182025,-3.184802,1.937035,-0.010651,15.997622,6.313092,2.375905,0.002000,1.069642,0.000000
666.000000,0.002000,0.029107,0.172838,-0.232622,-0.010421,-4.197147,1.506551,-3.685817,-7.666162,19.099236,0.002000,0.024824,0.000000
667.000000,0.002000,-0.154566,0.294687,-0.580614,0.652237,2.692043,-2.140262,2.856052,-7.880775,13.809443,0.002000,0.706468,0.000000
668.000000,0.002000,-1.162327,0.496981,-0.079602,2.609635,-1.537096,-0.884889,7.368248,-2.957692,1.084527,0.002000,1.483409,0.000000
669.000000,0.002000,0.457615,0.509154,0.835986,1.259168,-1.361376,-1.300488,-4.337033,-3.963576,-7.773091,0.002000,0.468873,0.000000
670.000000,0.002000,-0.165310,0.343235,0.103108,0.467092,2.505032,-1.563449,7.166177,-15.351130,-3.119101,0.002000,-0.139714,0.000000
671.000000,0.002000,-0.682471,-0.197369,-1.073416,0.818888,-1.153025,1.549770,4.122191,1.582823,6.435951,0.002000,-0.182025,0.000000
672.000000,0.002000,-0.147500,0.118568,-0.001786,-1.182425,-0.324001,-1.151070,10.307624,-5.699183,-1.541011,0.002000,-0.232622,0.000000
673.000000,0.002000,-0.203617,-1.575616,3.797351,-1.128970,1.692798,0.187469,0.047095,0.425756,-1.030615,0.002000,-0.580614,0.000000
674.000000,0.002000,0.722628,-0.351807,0.922372,-2.227436,-0.960021,-3.445214,-5.071428,2.557561,-5.880445,0.002000,-0.079602,0.000000
675.000000,0.002000,-1.247817,-0.089456,-0.662129,-1.354631,-2.182966,-0.514883,6.163341,0.662103,3.089338,0.002000,0.835986,0.000000
676.000000,0.002000,0.646628,-0.120090,-0.304365,1.206893,0.967178,0.600679,-13.258494,4.279704,7.077162,0.002000,0.103108,0.000000
677.000000,0.002000,0.553436,0.086061,0.197525,1.576541,-0.168069,3.004537,-15.444932,0.795426,-8.406096,0.002000,-1.073416,0.000000
678.000000,0.002000,-0.076592,0.564004,-0.115143,0.482157,-1.671335,-2.372666,3.411199,-17.558358,2.538729,0.002000,-0.001786,0.000000
679.000000,0.002000,-0.516281,-1.862172,-1.029551,-0.336023,1.323618,1.012896,0.745650,2.866040,1.509972,0.002000,3.797351,0.000000
680.000000,0.002000,-0.791495,1.027419,-2.623920,-0.345918,-0.510869,0.196679,0.602028,-0.732865,1.941313,0.002000,0.922372,0.000000
681.000000,0.002000,-0.656072,-0.013967,-0.256821,-3.289446,1.596789,-2.376891,15.378742,1.284540,5.980423,0.002000,-0.662129,0.000000
682.000000,0.002000,0.662221,0.034437,-0.246552,0.869800,1.036966,-0.049745,-14.852659,1.105401,5.670167,0.002000,-0.304365,0.000000
683.000000,0.002000,0.447382,0.298351,-0.561403,4.042127,0.947632,-3.029652,-9.435274,-4.067785,11.508251,0.002000,0.197525,0.000000
684.000000,0.002000,-0.917607,0.532320,-0.153371,2.778273,-1.973451,0.658980,9.457142,-4.887889,1.928377,0.002000,-0.115143,0.000000
685.000000,0.002000,-0.138300,0.442884,0.078589,-2.980813,-1.756143,-0.737387,4.210316,-16.248347,-4.146471,0.002000,-1.029551,0.000000
686.000000,0.002000,-0.097046,0.105399,0.318339,2.347345,-3.592543,-1.888812,10.879004,-4.327648,-16.430765,0.002000,-2.623920,0.000000
687.000000,0.002000,0.081555,1.086929,-0.781857,0.167788,1.069420,-4.073195,-0.763074,-6.040673,4.708292,0.002000,-0.256821,0.000000
688.000000,0.002000,-0.003429,0.366026,-0.446964,2.395378,1.669928,3.545258,-0.539923,-11.751724,15.523770,0.002000,-0.246552,0.000000
689.000000,0.002000,2.106275,-2.013385,0.563453,0.309758,0.381349,0.372757,-1.452510,1.391804,-0.375043,0.002000,-0.561403,0.000000
690.000000,0.002000,-1.946655,1.588162,0.391291,-0.017723,-0.393131,-0.775227,2.123972,-1.708433,-0.350053,0.002000,-0.153371,0.000000
691.000000,0.002000,0.307900,2.696724,-1.256540,-0.432550,-0.008481,-0.131738,-0.230511,-1.927008,0.896106,0.002000,0.078589,0.000000
692.000000,0.002000,-0.027034,0.253005,0.218111,0.913590,-2.025148,-0.881085,-0.534328,-13.787030,-9.082991,0.002000,0.318339,0.000000
693.000000,0.002000,-0.465628,-0.336349,0.327873,-0.811011,0.727395,2.538879,11.252787,9.457792,-8.679353,0.002000,-0.781857,0.000000
694.000000,0.002000,0.152251,-1.080633,0.726422,-1.210761,-1.118963,0.217072,-0.829880,6.230133,-4.081391,0.002000,-0.446964,0.000000
695.000000,0.002000,1.257011,-1.066766,-0.371844,1.608462,0.938935,-0.605162,-3.721070,3.155726,1.016538,0.002000,0.563453,0.000000
696.000000,0.002000,0.917340,-0.197332,-0.101354,-4.746136,0.596025,1.053905,-10.555522,2.911971,1.074440,0.002000,0.391291,0.000000
697.000000,0.002000,1.109243,-0.311808,0.651927,-3.230253,-1.596410,-1.391113,-5.989968,1.925834,-3.365710,0.002000,-1.256540,0.000000
698.000000,0.002000,-0.164948,0.131593,0.044509,0.153068,-0.229949,1.757067,12.074364,-10.762402,-6.104490,0.002000,0.218111,0.000000
699.000000,0.002000,0.455763,1.008166,-0.544187,-0.340334,-1.891487,0.737758,-3.196168,-7.199793,3.782226,0.002000,0.327873,0.000000
700.000000,0.002000,-0.630101,0.326920,0.767902,1.921452,1.462383,2.206177,6.109290,-2.877105,-8.094543,0.002000,0.726422,0.000000
701.000000,0.002000,-0.293857,0.010697,-0.236577,-1.221175,1.847233,1.015501,13.632184,1.432082,9.346339,0.002000,-0.371844,0.000000
702.000000,0.002000,-0.362167,-1.033950,-2.494953,-1.217675,0.738646,0.060132,0.325563,0.944539,2.148136,0.002000,-0.101354,0.000000
703.000000,0.002000,0.683598,0.195328,-0.527376,-0.673727,-1.760923,2.855518,-9.583481,-1.815223,7.890225,0.002000,0.651927,0.000000
704.000000,0.002000,-1.416746,-1.896427,-0.625635,-0.279883,-1.922821,-1.282864,1.614610,2.234522,0.659054,0.002000,0.044509,0.000000
705.000000,0.002000,2.860386,-1.913848,8.760444,0.329731,-0.362208,0.787102,-0.068003,0.045951,-0.207633,0.002000,-0.544187,0.000000
706.000000,0.002000,1.373883,0.458092,-1.212353,-2.255905,-0.282902,0.107731,-3.228739,-0.948610,2.804158,0.002000,0.767902,0.000000
707.000000,0.002000,1.668983,-0.442001,-0.446864,-1.033725,0.969551,1.948342,-4.573864,1.340312,1.033328,0.002000,-0.236577,0.000000
708.000000,0.002000,0.852665,0.714653,0.126611,0.516099,0.872550,-1.232491,-7.475046,-5.870055,-0.955404,0.002000,-2.494953,0.000000
709.000000,0.002000,-0.231563,-0.031289,-0.328619,2.069732,-1.456373,1.934867,9.098693,3.883118,17.261097,0.002000,-0.527376,0.000000
710.000000,0.002000,0.389128,-0.161792,0.582954,0.111585,-1.118391,0.526782,-9.191655,4.335854,-13.519324,0.002000,-0.625635,0.000000
711.000000,0.002000,0.396966,-0.506790,1.781365,2.459442,0.017229,-1.936806,-0.899656,1.163534,-3.923697,0.002000,8.760444,0.000000
712.000000,0.002000,0.329980,0.211538,0.018642,-0.662593,0.890826,0.516674,-15.875124,-6.737974,-0.563690,0.002000,-1.212353,0.000000
713.000000,0.002000,1.418797,-0.843645,0.910958,-0.269628,-1.649539,0.975160,-3.205993,1.959092,-1.985796,0.002000,-0.446864,0.000000
714.000000,0.002000,0.066777,-0.134938,-0.337407,1.914520,2.119043,-3.541133,-3.002960,6.905763,16.328433,0.002000,0.126611,0.000000
715.000000,0.002000,-2.841982,-3.756262,2.184095,0.123894,0.371061,-0.780074,0.387771,0.532067,-0.292166,0.002000,-0.328619,0.000000
716.000000,0.002000,-1.309822,-0.401719,0.909899,-1.284656,0.684465,1.520274,4.369719,1.277472,-3.217637,0.002000,0.582954,0.000000
717.000000,0.002000,-0.189759,-1.491357,-1.314985,0.618160,-0.711875,-1.471806,0.508667,3.013602,2.411866,0.002000,1.781365,0.000000
718.000000,0.002000,-0.375604,1.582730,-1.016135,0.918597,2.648857,-0.159769,0.978332,-3.770128,2.422642,0.002000,0.018642,0.000000
719.000000,0.002000,-1.051594,-0.269109,-0.038521,3.046959,-1.866030,-1.501845,9.706472,2.448348,0.195395,0.002000,0.910958,0.000000
720.000000,0.002000,-0.230654,1.036633,2.940856,0.697998,0.403701,0.171925,0.131334,-0.591526,-1.807805,0.002000,-0.337407,0.000000
721.000000,0.002000,-0.350595,-0.134853,-0.041122,-1.247588,2.600495,-0.647367,14.859795,8.770577,0.783257,0.002000,2.184095,0.000000
722.000000,0.002000,-0.046975,0.108640,0.098349,-1.920840,-1.326981,-4.357833,2.049048,-11.878230,-8.791133,0.002000,0.909899,0.000000
723.000000,0.002000,0.216488,0.259401,0.131826,-2.704756,1.335322,-2.234448,-5.450127,-6.665299,-7.748515,0.002000,-1.314985,0.000000
724.000000,0.002000,3.144504,0.320549,0.916600,-1.782233,-0.039175,0.697146,-1.640559,-0.123307,-0.498833,0.002000,-1.016135,0.000000
725.000000,0.002000,-0.046591,-0.786580,0.202812,0.885043,2.468823,1.817239,1.840831,12.879138,-3.109220,0.002000,-0.038521,0.000000
726.000000,0.002000,0.339857,0.067325,-1.680774,0.698079,0.642502,-1.266274,-1.026498,-0.100704,4.946587,0.002000,2.940856,0.000000
727.000000,0.002000,0.769137,-0.322121,-0.864498,0.261786,1.119531,-2.526552,-5.532863,2.316650,5.821616,0.002000,-0.041122,0.000000
728.000000,0.002000,-0.415541,-0.721082,-0.199167,-1.824986,0.576627,1.945722,5.376572,11.160570,2.714702,0.002000,0.098349,0.000000
729.000000,0.002000,0.203585,0.669271,0.014329,-2.016006,2.071712,-0.921292,-6.502017,-14.240569,-0.449726,0.002000,0.131826,0.000000
730.000000,0.002000,-0.514977,0.384745,0.076505,-0.976753,-3.723371,0.279800,14.459203,-9.592466,-3.547603,0.002000,0.916600,0.000000
731.000000,0.002000,-0.058805,0.045488,0.009304,-0.366828,-3.447692,-3.093464,5.296841,0.534358,-0.151336,0.002000,0.202812,0.000000
732.000000,0.002000,0.652782,0.186822,-0.334582,-0.340083,2.872007,-0.398461,-12.862639,-2.656520,6.391475,0.002000,-1.680774,0.000000
733.000000,0.002000,0.037586,-1.175816,0.017830,2.050289,-2.289788,3.008217,0.094777,8.411547,-0.451390,0.002000,-0.864498,0.000000
734.000000,0.002000,-0.394329,-0.197948,-0.232416,-2.749203,0.638996,0.274024,13.954459,7.213095,7.850731,0.002000,-0.199167,0.000000
735.000000,0.002000,-0.636398,0.661700,0.958547,0.411898,0.719528,2.330593,3.708273,-3.461537,-5.546133,0.002000,0.014329,0.000000
736.000000,0.002000,0.604147,-0.138448,-0.252659,-1.305283,2.397197,-1.050796,-13.632186,5.669701,6.160368,0.002000,0.076505,0.000000
737.000000,0.002000,-0.362995,-0.418223,-0.000359,1.307138,0.758881,-0.092007,7.876759,16.354820,2.572759,0.002000,0.009304,0.000000
738.000000,0.002000,2.075589,0.010125,-2.098024,1.490918,0.119283,-1.718970,-1.473680,0.034039,1.505592,0.002000,-0.334582,0.000000
739.000000,0.002000,-2.591738,-2.411353,-1.556860,-0.339370,-0.835051,0.642169,0.850341,0.813379,0.518095,0.002000,0.017830,0.000000
740.000000,0.002000,-0.001789,-0.226107,-0.181042,-2.168248,0.098115,-0.641380,-1.901375,13.134609,9.149809,0.002000,-0.232416,0.000000
741.000000,0.002000,-0.580092,0.080430,0.497642,-2.949568,0.440477,-0.948692,10.108304,-0.982361,-10.221686,0.002000,0.958547,0.000000
742.000000,0.002000,0.111340,0.395747,0.436411,-0.151229,-1.017182,0.879251,-3.845180,-9.998188,-13.926809,0.002000,-0.252659,0.000000
743.000000,0.002000,-0.163670,-0.505642,0.889345,1.103236,-2.651455,1.470136,1.645056,5.328292,-8.572090,0.002000,-0.000359,0.000000
744.000000,0.002000,-0.130455,0.278442,0.191128,-0.643628,-0.160182,-4.057815,5.422327,-11.884590,-10.832464,0.002000,-2.098024,0.000000
745.000000,0.002000,3.197987,0.578211,-3.570974,-1.239293,0.654576,-0.335454,-0.562059,-0.090087,0.625373,0.002000,-1.556860,0.000000
746.000000,0.002000,-0.771139,-0.386749,0.001162,-3.584343,-2.596724,0.368532,12.088086,7.744878,-0.127913,0.002000,-0.181042,0.000000
747.000000,0.002000,0.165586,0.477483,0.956441,2.154931,-3.024389,2.500830,-1.413535,-3.750029,-8.825186,0.002000,0.497642,0.000000
748.000000,0.002000,-2.507332,2.486355,-0.553076,-0.321022,-0.092427,-0.230987,1.095218,-1.054995,0.238840,0.002000,0.436411,0.000000
749.000000,0.002000,-1.138486,-0.231825,-0.733828,-2.969226,-0.559822,-2.393148,6.113780,1.067961,3.647767,0.002000,0.889345,0.000000
750.000000,0.002000,-0.304580,-0.192675,0.066977,-0.058686,-1.413843,-1.971011,13.403652,12.477102,-5.096502,0.002000,0.191128,0.000000
751.000000,0.002000,0.363221,-0.785345,0.604581,-2.015624,0.199128,-1.544819,-3.474281,7.173165,-5.316491,0.002000,-3.570974,0.000000
752.000000,0.002000,-0.211287,-2.579453,-1.646641,1.282906,-0.266563,0.921897,0.098782,1.658789,1.016830,0.002000,0.001162,0.000000
753.000000,0.002000,-0.223461,-0.460689,0.892090,0.638086,1.411860,-2.245488,3.066458,5.023318,-8.747510,0.002000,0.956441,0.000000
754.000000,0.002000,-0.315402,-0.327604,0.053563,-3.142131,-3.485632,-0.250722,11.347267,14.503545,-1.335501,0.002000,-0.553076,0.000000
755.000000,0.002000,-0.434363,0.089795,-0.782686,2.124645,-3.395170,-1.861192,6.272290,0.314716,11.462485,0.002000,-0.733828,0.000000
756.000000,0.002000,0.277613,-0.508117,-0.422306,1.969362,-1.811256,-3.816512,-6.171398,11.762499,8.518037,0.002000,0.066977,0.000000
757.000000,0.002000,-0.472094,0.300135,-0.204712,3.894760,-1.887705,1.503066,14.154824,-7.617499,6.140788,0.002000,0.604581,0.000000
758.000000,0.002000,-0.120272,0.069764,-0.101779,-0.880176,2.897267,1.729785,1.962615,-1.555018,10.684947,0.002000,-1.646641,0.000000
759.000000,0.002000,0.271898,-0.351853,-0.382951,2.050761,2.575709,0.087853,-7.428897,12.018685,9.794295,0.002000,0.892090,0.000000
760.000000,0.002000,-0.393232,-0.879865,0.016977,-2.658930,0.936808,1.037112,4.157775,10.713648,-0.326894,0.002000,0.053563,0.000000
761.000000,0.002000,0.183067,0.032782,0.958889,2.082586,-0.175538,-0.081985,-2.533655,-0.080061,-10.948236,0.002000,-0.782686,0.000000
762.000000,0.002000,-0.991645,0.384051,-0.748405,0.533444,1.854159,0.916767,6.158844,-2.213346,4.497342,0.002000,-0.422306,0.000000
763.000000,0.002000,-0.325227,0.187674,-0.003129,-0.106280,4.713406,-0.509348,16.548332,-6.570545,-2.443239,0.002000,-0.204712,0.000000
764.000000,0.002000,-0.139387,0.070196,-0.092700,-1.030304,-0.308062,-3.823737,16.103677,-4.577832,3.332755,0.002000,-0.101779,0.000000
765.000000,0.002000,0.863721,0.063561,2.442635,-1.987360,-0.755135,-0.785061,-0.885273,-0.053802,-2.409705,0.002000,-0.382951,0.000000
766.000000,0.002000,0.211912,0.689481,0.350571,0.036350,-2.394035,2.025616,-4.489629,-12.841273,-5.578215,0.002000,0.016977,0.000000
767.000000,0.002000,0.298492,0.770004,0.473713,-3.075050,0.361157,1.133046,-4.088308,-9.312197,-6.292586,0.002000,0.958889,0.000000
768.000000,0.002000,-0.196566,-0.647323,-0.230249,0.835955,-2.908025,1.043536,3.812650,13.807257,3.918999,0.002000,-0.748405,0.000000
769.000000,0.002000,0.374296,-0.120915,-0.231108,1.107411,-1.028447,1.488089,-16.857799,7.357444,9.455541,0.002000,-0.003129,0.000000
770.000000,0.002000,0.206173,0.817029,-0.431983,-2.205262,0.363389,0.186948,-2.827872,-10.862009,5.969683,0.002000,-0.092700,0.000000
771.000000,0.002000,-1.378548,-2.427069,0.223273,-0.214385,0.266291,0.176411,1.131805,1.961690,-0.236841,0.002000,2.442635,0.000000
772.000000,0.002000,-0.169488,-1.565482,-0.060534,-0.126572,-1.406858,-2.067224,0.488725,5.480470,0.317250,0.002000,0.350571,0.000000
773.000000,0.002000,0.324459,-0.743387,-0.402121,1.606210,-0.853965,-3.899032,-4.877170,9.442399,5.107104,0.002000,0.473713,0.000000
774.000000,0.002000,-0.244017,0.821203,-0.163583,1.041424,0.599191,0.190657,3.871783,-12.369801,2.843925,0.002000,-0.230249,0.000000
775.000000,0.002000,-0.641438,0.794544,-1.053757,-0.763215,1.811154,-3.622989,2.840551,-3.551353,4.595629,0.002000,-0.231108,0.000000
776.000000,0.002000,0.756754,0.612379,-0.990959,-2.641343,1.061750,2.862621,-4.134408,-2.968179,5.490914,0.002000,-0.431983,0.000000
777.000000,0.002000,-0.470391,-0.137042,0.009006,0.863577,-1.936836,3.556218,16.487185,5.415021,0.696983,0.002000,0.223273,0.000000
778.000000,0.002000,0.236742,0.297202,-0.254888,0.664643,0.341177,4.376521,-11.787814,-8.967864,11.169586,0.002000,-0.060534,0.000000
779.000000,0.002000,0.757089,0.049833,-0.383593,0.708394,1.836475,0.718770,-11.311017,0.301618,6.220532,0.002000,-0.402121,0.000000
780.000000,0.002000,0.571657,-0.502623,0.151923,-2.237404,4.181630,-1.038709,-10.208973,8.988120,-4.167465,0.002000,-0.163583,0.000000
781.000000,0.002000,-1.329923,-1.374360,0.099334,-0.205840,0.202895,1.434383,2.794601,3.029772,-0.385213,0.002000,-1.053757,0.000000
782.000000,0.002000,0.244196,0.425845,-0.181063,2.012395,-2.178519,2.279809,-9.932774,-14.278126,6.168352,0.002000,-0.990959,0.000000
783.000000,0.002000,-0.579438,0.347680,1.380339,-1.925769,0.397750,3.321426,2.098881,-1.058541,-5.260465,0.002000,0.009006,0.000000
784.000000,0.002000,-0.198418,0.451058,-0.780161,-2.609493,0.662126,-0.861257,2.890197,-5.601628,9.906518,0.002000,-0.254888,0.000000
785.000000,0.002000,1.169591,-1.265049,-1.172969,-1.666063,2.143645,-0.454657,-2.060146,2.175029,2.026990,0.002000,-0.383593,0.000000
786.000000,0.002000,-0.274938,-0.128757,0.753002,4.254347,-0.998016,-1.468746,3.690613,3.080672,-11.793435,0.002000,0.151923,0.000000
787.000000,0.002000,0.187117,2.388652,-3.121382,0.058283,-1.319323,0.214765,-0.070189,-0.771956,1.091624,0.002000,0.099334,0.000000
788.000000,0.002000,-0.075791,-0.542254,-0.189245,2.613277,-1.481177,2.767520,3.863093,17.266653,4.665849,0.002000,-0.181063,0.000000
789.000000,0.002000,0.382254,-0.033995,0.055120,-1.919114,1.088139,-0.978247,-17.171672,2.112926,0.314079,0.002000,1.380339,0.000000
790.000000,0.002000,0.018801,0.279999,0.404972,0.209252,5.117326,-0.460887,-1.308758,-8.992562,-16.347509,0.002000,-0.780161,0.000000
791.000000,0.002000,0.563471,-2.052653,1.742750,-0.505746,-0.281429,0.816694,-0.479767,1.773991,-1.463196,0.002000,-1.172969,0.000000
792.000000,0.002000,-0.317142,-0.530716,0.047116,3.231941,-0.559045,2.101687,6.185876,15.971422,-1.020935,0.002000,0.753002,0.000000
793.000000,0.002000,0.142139,0.001703,0.118500,-0.212133,3.752260,3.471414,-7.785975,0.308693,-8.191427,0.002000,-3.121382,0.000000
794.000000,0.002000,-0.630326,-0.780712,-0.202905,-0.214881,-1.875538,1.107777,6.348291,8.277042,2.187065,0.002000,-0.189245,0.000000
795.000000,0.002000,0.666692,-2.129145,-2.050646,0.018205,-0.171597,0.806007,-0.427846,1.436792,1.297901,0.002000,0.055120,0.000000
796.000000,0.002000,-0.883553,-1.100021,-0.007462,0.532722,2.095636,0.935701,4.057111,4.890365,-0.032175,0.002000,0.404972,0.000000
797.000000,0.002000,0.199517,0.689210,-0.056391,0.003006,0.045674,-1.239380,-6.166455,-13.970604,1.082447,0.002000,1.742750,0.000000
798.000000,0.002000,-0.361965,-0.115015,0.104245,-1.473310,3.705927,-1.303541,15.574339,5.206189,-4.731557,0.002000,0.047116,0.000000
799.000000,0.002000,-0.346498,1.029580,0.053563,2.629030,-2.453043,2.433359,3.515387,-9.793025,-0.618308,0.002000,0.118500,0.000000
800.000000,0.002000,-0.354432,0.428198,0.235296,0.517041,1.819384,-0.800100,10.154376,-11.582751,-7.973081,0.002000,-0.202905,0.000000
801.000000,0.002000,0.333202,-0.444282,-0.322665,1.190355,-1.729890,0.501614,-7.666885,12.524613,7.157053,0.002000,-2.050646,0.000000
802.000000,0.002000,0.597780,-0.186062,0.012722,-0.453306,1.363192,-0.277448,-11.588028,6.474791,5.230893,0.002000,-0.007462,0.000000
803.000000,0.002000,-0.405719,1.155255,0.936111,1.544555,-1.017304,-1.143898,1.907810,-4.479357,-3.722976,0.002000,-0.056391,0.000000
804.000000,0.002000,0.181097,-0.013080,-0.313205,-3.672226,1.568152,0.752760,-11.127888,0.599319,19.953113,0.002000,0.104245,0.000000
805.000000,0.002000,0.015434,0.426793,0.248261,-3.163057,3.211541,-0.165252,-1.788155,-14.672771,-11.120343,0.002000,0.053563,0.000000
806.000000,0.002000,-2.140952,-2.650004,-5.251888,0.214454,0.175969,0.091418,0.171381,0.214643,0.423432,0.002000,0.235296,0.000000
807.000000,0.002000,-0.310649,-0.190626,0.468513,2.679487,-0.778191,-1.159123,7.691401,6.629095,-13.364704,0.002000,-0.322665,0.000000
808.000000,0.002000,-0.221004,0.172096,-0.429114,-0.429858,-1.788573,0.263982,8.300444,-6.152028,16.645104,0.002000,0.012722,0.000000
809.000000,0.002000,0.542361,-0.182051,-0.094416,-1.644197,-0.862483,-2.966052,-15.064419,7.444289,2.667872,0.002000,0.936111,0.000000
810.000000,0.002000,0.248797,-0.121656,-0.017389,0.445903,1.274805,1.334744,-14.454332,8.000453,0.743633,0.002000,-0.313205,0.000000
811.000000,0.002000,-0.033274,-1.433612,0.486412,-0.007099,-0.663212,-1.341582,0.166951,5.628625,-1.594281,0.002000,0.248261,0.000000
812.000000,0.002000,0.081471,-0.048322,-0.270129,-3.698119,-2.109026,-2.469473,-0.758947,9.381470,15.198421,0.002000,-5.251888,0.000000
813.000000,0.002000,1.053048,0.214559,-0.339750,0.314609,-0.077321,0.142330,-8.683548,-1.403302,1.895831,0.002000,0.468513,0.000000
814.000000,0.002000,0.091296,0.829746,-0.898624,0.391432,2.658112,-1.118189,-0.922239,-5.768818,6.453948,0.002000,-0.429114,0.000000
815.000000,0.002000,-0.901781,0.123653,0.291721,1.928615,-1.522810,-0.499355,10.982660,-1.145167,-3.694508,0.002000,-0.094416,0.000000
816.000000,0.002000,-0.390966,-0.531393,0.470627,2.257138,-0.260442,-0.258774,6.467125,9.353802,-7.457080,0.002000,-0.017389,0.000000
817.000000,0.002000,-0.385308,0.339287,0.135778,4.523615,-2.790031,0.048539,18.025212,-5.670055,-4.493467,0.002000,0.486412,0.000000
818.000000,0.002000,0.721642,-0.600883,0.000086,-3.020408,-2.209117,3.077417,-8.663548,7.497234,0.113186,0.002000,-0.270129,0.000000
819.000000,0.002000,0.454068,-0.267332,0.114643,0.047275,-2.003156,2.249255,-13.883007,9.875592,-4.964591,0.002000,-0.339750,0.000000
820.000000,0.002000,-0.749404,0.061148,-1.258466,0.643029,0.206535,2.008193,3.377906,-0.113119,5.607158,0.002000,-0.898624,0.000000
821.000000,0.002000,-1.564570,-0.358464,0.280048,1.627598,-0.703119,-0.660300,5.231764,1.493187,-1.004276,0.002000,0.291721,0.000000
822.000000,0.002000,-0.436936,0.327338,-0.061684,-5.145525,2.285426,1.752425,13.676559,-8.594906,3.030175,0.002000,0.470627,0.000000
823.000000,0.002000,0.217431,-2.408179,-0.576896,0.336783,-1.720898,0.454885,-0.297035,2.643650,0.580613,0.002000,0.135778,0.000000
824.000000,0.002000,0.109509,-0.335442,-0.446803,0.192036,0.383833,2.356195,-0.452506,10.917649,12.367973,0.002000,0.000086,0.000000
825.000000,0.002000,2.074915,-1.642214,-3.658608,-1.441186,-0.303340,-0.564220,-0.442244,0.352735,0.770699,0.002000,0.114643,0.000000
826.000000,0.002000,-0.154794,0.385838,0.701627,-2.037520,-0.084236,-1.515616,3.378322,-3.241575,-12.417052,0.002000,-1.258466,0.000000
827.000000,0.002000,0.159770,1.173653,-0.082829,1.171340,0.738866,0.405895,-1.372470,-9.299878,0.275201,0.002000,0.280048,0.000000
828.000000,0.002000,-0.160561,-0.654070,0.322766,-2.573036,-0.271049,1.950908,2.693057,12.143164,-6.615119,0.002000,-0.061684,0.000000
829.000000,0.002000,1.736869,0.848997,-1.348369,-0.524798,-0.437232,-1.069138,-2.300937,-1.034859,1.756280,0.002000,-0.576896,0.000000
830.000000,0.002000,-0.155712,-0.257247,0.788578,0.136138,0.236162,1.584617,2.444309,4.452549,-11.413021,0.002000,-0.446803,0.000000
831.000000,0.002000,-0.222240,-0.260401,-0.924719,-1.991592,1.907718,-1.575450,1.814501,3.336842,10.318810,0.002000,-3.658608,0.000000
832.000000,0.002000,-0.211451,1.024770,0.287755,-0.274216,1.680816,0.840958,2.098430,-9.488650,-3.073909,0.002000,0.701627,0.000000
833.000000,0.002000,0.066827,0.033121,0.364262,-1.003147,-3.349390,-3.121814,-5.138956,0.169279,-20.204979,0.002000,-0.082829,0.000000
834.000000,0.002000,0.222570,0.184843,-0.227332,3.453031,-1.388480,-2.013177,-11.632070,-8.342763,10.418763,0.002000,0.322766,0.000000
835.000000,0.002000,-1.359965,1.477599,0.948350,1.933365,-0.055669,-0.005227,2.174093,-2.229447,-1.567837,0.002000,-1.348369,0.000000
836.000000,0.002000,-1.397120,-1.995293,0.502983,0.617444,1.898537,-0.931066,1.575604,2.273357,-0.508913,0.002000,0.788578,0.000000
837.000000,0.002000,-0.764523,-0.001877,-1.195490,0.986502,-0.036068,-0.729735,3.749764,0.467287,5.497906,0.002000,-0.924719,0.000000
838.000000,0.002000,0.272771,0.209686,-0.387688,3.973563,0.749194,-0.185074,-9.146654,-4.515346,16.275667,0.002000,0.287755,0.000000
839.000000,0.002000,0.912813,-0.016479,-0.290865,1.373795,-0.431498,-1.067082,-10.885649,0.844779,3.184375,0.002000,0.364262,0.000000
840.000000,0.002000,0.542967,-0.376456,-0.364334,2.538736,-2.934866,1.033069,-11.014792,8.436236,6.896096,0.002000,-0.227332,0.000000
841.000000,0.002000,-0.482997,0.195822,0.243127,-3.278862,-0.439090,-3.263888,15.126840,-9.238890,-6.745600,0.002000,0.948350,0.000000
842.000000,0.002000,0.362920,0.388351,0.111720,-0.109615,-0.640785,0.869200,-14.444153,-13.805470,-4.272289,0.002000,0.502983,0.000000
843.000000,0.002000,0.101306,0.328807,0.025855,0.256677,0.640392,-1.333009,-2.872136,-18.256422,-5.207002,0.002000,-1.195490,0.000000
844.000000,0.002000,-0.058805,-0.023346,-0.115196,0.527579,3.151337,-3.813289,3.564046,6.742344,8.718903,0.002000,-0.387688,0.000000
845.000000,0.002000,0.539654,1.023929,0.518381,3.195584,-0.988683,2.439371,-3.330894,-6.304669,-3.626166,0.002000,-0.290865,0.000000
846.000000,0.002000,0.326943,0.311049,-0.069304,-0.108226,1.148517,-2.518693,-13.416956,-12.831979,5.680044,0.002000,-0.364334,0.000000
847.000000,0.002000,2.430397,0.542707,-1.452413,0.782751,0.866625,-1.021055,-1.898704,-0.508698,1.075984,0.002000,0.243127,0.000000
848.000000,0.002000,-0.334734,0.614594,-0.640747,0.400291,0.712972,1.917054,4.475644,-7.660630,8.470770,0.002000,0.111720,0.000000
849.000000,0.002000,0.564015,-0.229070,0.469901,-4.825541,-1.687677,0.386326,-9.895856,5.952708,-11.619781,0.002000,0.025855,0.000000
850.000000,0.002000,-0.388977,-0.060525,-0.075529,-3.566637,-0.255630,-1.118232,15.794596,3.902655,2.730303,0.002000,-0.115196,0.000000
851.000000,0.002000,-0.601949,0.066575,0.665105,1.747683,0.499738,0.183914,8.131004,-0.519513,-9.165922,0.002000,0.518381,0.000000
852.000000,0.002000,0.028730,-0.269590,-0.397141,3.146837,-0.543285,-0.910565,-0.564713,11.269911,14.782610,0.002000,-0.069304,0.000000
853.000000,0.002000,0.526515,0.012706,-0.045352,0.685724,-3.544161,-0.487054,-18.531255,0.702721,1.611944,0.002000,-1.452413,0.000000
854.000000,0.002000,-0.340743,-0.037042,0.418014,-2.910761,-1.001129,-0.191176,9.768708,2.377651,-14.780804,0.002000,-0.640747,0.000000
855.000000,0.002000,-1.010824,-0.000074,-0.028474,-0.876885,2.488786,1.214595,10.817670,0.120511,-0.157146,0.002000,0.469901,0.000000
856.000000,0.002000,0.041978,0.158224,0.256995,1.382189,-1.685192,2.831716,-3.249323,-9.147110,-13.991675,0.002000,-0.075529,0.000000
857.000000,0.002000,0.420432,-0.023389,0.181998,0.025577,-0.792226,-4.073765,-18.074369,4.663289,-8.999816,0.002000,0.665105,0.000000
858.000000,0.002000,-0.188837,-0.098958,0.300988,-2.162972,-1.580830,2.552318,8.809296,12.526478,-15.908725,0.002000,-0.397141,0.000000
859.000000,0.002000,0.471411,0.754665,-0.743190,-3.308128,-0.397286,1.738494,-3.695259,-5.886186,6.140611,0.002000,-0.045352,0.000000
860.000000,0.002000,0.334424,0.097773,0.417792,-1.145357,3.081377,0.209510,-11.515747,-2.068804,-14.964681,0.002000,0.418014,0.000000
861.000000,0.002000,-0.091452,-2.962306,1.069799,-1.995926,0.297138,-0.694867,0.051464,1.726807,-0.604196,0.002000,-0.028474,0.000000
862.000000,0.002000,0.493231,-0.032094,0.078880,-1.057845,1.439286,-1.313209,-17.363730,3.098605,-2.931895,0.002000,0.256995,0.000000
863.000000,0.002000,-0.755611,0.864383,-0.219882,-0.292070,3.315725,-1.529458,6.331509,-6.994874,1.960348,0.002000,0.181998,0.000000
864.000000,0.002000,0.055997,-4.875018,-1.228269,0.396019,0.894220,-0.229224,-0.012790,0.739233,0.181603,0.002000,0.300988,0.000000
865.000000,0.002000,-0.703230,1.815845,0.408364,-0.368205,2.038784,-1.559857,1.519710,-3.835731,-0.855042,0.002000,-0.743190,0.000000
866.000000,0.002000,-0.116946,-1.151242,-0.538772,0.539951,-1.212839,-1.543953,0.714036,7.001277,3.048470,0.002000,0.417792,0.000000
867.000000,0.002000,-1.602241,-0.425051,-0.448915,2.333351,1.016970,0.437363,4.370497,1.356057,1.463978,0.002000,1.069799,0.000000
868.000000,0.002000,-0.312957,0.664134,1.277638,1.101050,-2.118293,0.400743,1.237969,-2.567001,-5.817176,0.002000,0.078880,0.000000
869.000000,0.002000,0.308321,-0.739712,-0.085880,0.685912,-0.566905,1.471053,-5.184247,12.016113,0.637593,0.002000,-0.219882,0.000000
870.000000,0.002000,0.111602,1.031997,-0.209179,-1.434543,-1.065474,1.574142,-1.174269,-10.389182,2.246867,0.002000,-1.228269,0.000000
871.000000,0.002000,-0.115164,0.403945,-0.206808,0.612796,-2.207277,-1.181069,5.012316,-11.387658,7.416587,0.002000,0.408364,0.000000
872.000000,0.002000,0.459073,2.102449,1.640712,-0.075058,0.402020,0.648309,-0.449492,-1.892734,-1.586342,0.002000,-0.538772,0.000000
873.000000,0.002000,-1.070997,-1.671277,-1.945258,-0.167152,-0.267819,-0.038001,0.949033,1.394090,1.637624,0.002000,-0.448915,0.000000
874.000000,0.002000,0.402410,0.465264,0.445938,3.556624,3.464351,1.761887,-11.322360,-6.914314,-9.272359,0.002000,1.277638,0.000000
875.000000,0.002000,-0.478868,-1.129246,-0.224390,-1.648095,-3.053367,-0.200334,2.696140,7.192988,1.287841,0.002000,-0.085880,0.000000
876.000000,0.002000,0.691160,-0.404940,-0.704067,-2.574291,1.089650,1.106368,-6.888821,4.083639,6.449440,0.002000,-0.209179,0.000000
877.000000,0.002000,-1.843944,-0.001961,-1.837348,-0.687568,-0.123430,0.443886,1.808548,0.110679,1.821368,0.002000,-0.206808,0.000000
878.000000,0.002000,-0.877915,0.249992,1.482880,0.573875,0.261578,1.503964,2.604714,-0.482397,-4.009213,0.002000,1.640712,0.000000
879.000000,0.002000,0.077540,-0.458692,0.209052,0.270418,0.836782,-1.892222,-1.304980,16.224307,-6.660778,0.002000,-1.945258,0.000000
880.000000,0.002000,1.382462,-0.174310,1.044910,-2.463260,0.483181,-0.580120,-3.623973,0.666585,-2.881550,0.002000,0.445938,0.000000
881.000000,0.002000,-0.221425,-0.326339,-0.222255,0.642905,1.757173,0.061666,8.649310,14.634174,6.944074,0.002000,-0.224390,0.000000
882.000000,0.002000,-0.767948,1.315968,-1.879830,-0.117776,-1.712504,-0.138341,1.078474,-1.584010,2.345317,0.002000,-0.704067,0.000000
883.000000,0.002000,-0.036641,-0.026720,-0.505802,-2.587765,1.053619,-3.121353,0.584570,2.337588,17.587416,0.002000,-1.837348,0.000000
884.000000,0.002000,0.307287,0.229091,-0.476291,0.117964,-0.777052,1.970169,-8.013695,-5.242980,13.533280,0.002000,1.482880,0.000000
885.000000,0.002000,0.335303,1.322142,2.601283,-0.726076,-0.367213,-0.087462,-0.248883,-0.932936,-1.905258,0.002000,0.209052,0.000000
886.000000,0.002000,0.453529,0.522902,0.359563,3.439322,0.792344,1.639676,-8.944878,-9.439062,-8.085998,0.002000,1.044910,0.000000
887.000000,0.002000,-0.043888,-0.167604,0.142484,3.327296,-1.644215,2.609927,4.052189,15.067701,-9.147061,0.002000,-0.222255,0.000000
888.000000,0.002000,1.745046,-0.593691,-1.094152,-1.557748,-0.219052,0.804181,-2.831226,1.046469,1.773474,0.002000,-1.879830,0.000000
889.000000,0.002000,0.071274,0.242834,-0.205210,-0.968047,0.072435,-1.901935,-7.599709,-18.580494,18.896720,0.002000,-0.505802,0.000000
890.000000,0.002000,1.340494,1.292999,2.086311,-1.922188,-0.678939,-1.111785,-1.072509,-0.976309,-1.710689,0.002000,-0.476291,0.000000
891.000000,0.002000,-0.440236,0.125866,-0.766247,0.113105,2.766239,2.634042,6.666862,-2.147784,10.678216,0.002000,2.601283,0.000000
892.000000,0.002000,-0.100986,-0.454843,-0.124529,-0.550372,0.185580,2.439398,3.076642,16.116698,2.325328,0.002000,0.359563,0.000000
893.000000,0.002000,-0.974057,0.100728,0.600744,-1.325463,4.186641,0.407907,8.917478,-1.894888,-3.705652,0.002000,0.142484,0.000000
894.000000,0.002000,-0.118183,0.174347,-0.627750,0.492104,-2.463160,0.799687,3.001822,-5.937561,15.506425,0.002000,-1.094152,0.000000
895.000000,0.002000,-0.232271,-1.074892,1.136268,1.597168,-0.140750,1.548022,0.752990,3.894689,-3.931786,0.002000,-0.205210,0.000000
896.000000,0.002000,0.830631,-0.509722,-0.096849,-0.574082,-1.440233,-0.717516,-8.810976,5.994511,1.215551,0.002000,2.086311,0.000000
897.000000,0.002000,0.191696,-0.024924,-0.277300,-0.214654,-0.445015,1.594894,-10.935827,4.912104,14.249652,0.002000,-0.766247,0.000000
