# 
#                 columns are tag, mass, x, y, z, vx, vy, vz, ax, ay, az, EK, EU, E
#                 Time=0.000000
# 
1.000000,0.002000,1.764052,0.400157,0.978738,1.624345,-0.611756,-0.528172,-3.218116,-0.662569,-1.883920,29.922655,-113.605596,-83.682941
2.000000,0.002000,2.240893,1.867558,-0.977278,-1.072969,0.865408,-2.301539,-1.491493,-1.246586,0.674600,0.000000,0.000000,0.000000
3.000000,0.002000,0.950088,-0.151357,-0.103219,1.744812,-0.761207,0.319039,-4.112174,-0.723545,2.889362,0.000000,0.000000,0.000000
4.000000,0.002000,0.410599,0.144044,1.454274,-0.249370,1.462108,-2.060141,-1.504181,-1.136946,-4.444193,0.000000,0.000000,0.000000
5.000000,0.002000,0.761038,0.121675,0.443863,-0.322417,-0.384054,1.133769,-3.181791,-0.330794,-2.193861,0.000000,0.000000,0.000000
6.000000,0.002000,0.333674,1.494079,-0.205158,-1.099891,-0.172428,-0.877858,-0.522387,-4.616743,0.463617,0.000000,0.000000,0.000000
7.000000,0.002000,0.313068,-0.854096,-2.552990,0.042214,0.582815,-1.100619,-0.372524,0.699677,2.457164,0.002000,0.502881,0.000000
8.000000,0.002000,0.653619,0.864436,-0.742165,1.144724,0.901591,0.502494,-1.963154,-2.162346,2.562496,0.002000,-1.245288,0.000000
9.000000,0.002000,2.269755,-1.454366,0.045759,0.900856,-0.683728,-0.122890,-2.139794,1.413836,-0.079745,0.002000,1.764052,0.000000
10.000000,0.002000,-0.187184,1.532779,1.469359,-0.935769,-0.267888,0.530355,0.310262,-2.576208,-2.512305,0.002000,2.240893,0.000000
11.000000,0.002000,0.154947,0.378163,-0.887786,-0.691661,-0.396754,-0.687173,-0.995312,-1.610669,3.257922,0.002000,0.950088,0.000000
12.000000,0.002000,-1.980796,-0.347912,0.156349,-0.845206,-0.671246,-0.012665,3.549412,0.632032,-0.375465,0.002000,0.410599,0.000000
13.000000,0.002000,1.230291,1.202380,-0.387327,-1.117310,0.234416,1.659802,-2.787465,-2.736074,1.177562,0.002000,0.761038,0.000000
14.000000,0.002000,-0.302303,-1.048553,-1.420018,0.742044,-0.191836,-0.887629,0.791543,2.568340,3.420267,0.002000,0.333674,0.000000
15.000000,0.002000,-1.706270,1.950775,-0.509652,-0.747158,1.692455,0.050808,1.746678,-1.904626,0.534647,0.002000,0.313068,0.000000
16.000000,0.002000,-0.438074,-1.252795,0.777490,-0.636996,0.190915,2.100255,1.080402,3.483293,-1.903736,0.002000,0.653619,0.000000
17.000000,0.002000,-1.613898,-0.212740,-0.895467,0.120159,0.617203,0.300170,3.454380,0.364337,2.188705,0.002000,2.269755,0.000000
18.000000,0.002000,0.386902,-0.510805,-1.180632,-0.352250,-1.142518,-0.349343,-1.411487,1.624117,3.727058,0.002000,-0.187184,0.000000
19.000000,0.002000,-0.028182,0.428332,0.066517,-0.208894,0.586623,0.838983,0.654957,-1.952183,-1.489470,0.002000,0.154947,0.000000
20.000000,0.002000,0.302472,-0.634322,-0.362741,0.931102,0.285587,0.885141,-1.339219,2.710299,1.267980,0.002000,-1.980796,0.000000
21.000000,0.002000,-0.672460,-0.359553,-0.813146,-0.754398,1.252868,0.512930,2.350768,-0.057008,0.782739,0.002000,1.230291,0.000000
22.000000,0.002000,-1.726283,0.177426,-0.401781,-0.298093,0.488518,-0.075572,3.865458,-0.427860,0.901079,0.002000,-0.302303,0.000000
23.000000,0.002000,-1.630198,0.462782,-0.907298,1.131629,1.519817,2.185575,3.204099,-1.116474,1.674253,0.002000,-1.706270,0.000000
24.000000,0.002000,0.051945,0.729091,0.128983,-1.396496,-1.444114,-0.504466,-0.406549,-2.098133,-0.445104,0.002000,-0.438074,0.000000
25.000000,0.002000,1.139401,-1.234826,0.402342,0.160037,0.876169,0.315635,-2.505861,2.923355,-0.920832,0.002000,-1.613898,0.000000
26.000000,0.002000,-0.684810,-0.870797,-0.578850,-2.022201,-0.306204,0.827975,2.473211,2.962038,1.956583,0.002000,0.386902,0.000000
27.000000,0.002000,-0.311553,0.056165,-1.165150,0.230095,0.762011,-0.222328,1.422771,-0.404899,4.115305,0.002000,-0.028182,0.000000
28.000000,0.002000,0.900826,0.465662,-1.536244,-0.200758,0.186561,0.410052,-1.945596,-0.865932,3.315328,0.002000,0.302472,0.000000
29.000000,0.002000,1.488252,1.895889,1.178780,0.198300,0.119009,-0.670662,-1.321579,-1.801513,-1.095211,0.002000,-0.672460,0.000000
30.000000,0.002000,-0.179925,-1.070753,1.054452,0.377564,0.121821,1.129484,1.545961,1.593458,-3.971621,0.002000,-1.726283,0.000000
31.000000,0.002000,-0.403177,1.222445,0.208275,1.198918,0.185156,-0.375285,1.345095,-4.705342,-1.701692,0.002000,-1.630198,0.000000
32.000000,0.002000,0.976639,0.356366,0.706573,-0.638730,0.423494,0.077340,-3.419270,-1.380563,-2.343630,0.002000,0.051945,0.000000
33.000000,0.002000,0.010500,1.785870,0.126912,-0.343854,0.043597,-0.620001,0.157956,-4.126958,-0.265693,0.002000,1.139401,0.000000
34.000000,0.002000,0.401989,1.883151,-1.347759,0.698032,-0.447129,1.224508,-0.630595,-2.457698,1.709757,0.002000,-0.684810,0.000000
35.000000,0.002000,-1.270485,0.969397,-1.173123,0.403492,0.593579,-1.094912,2.343174,-1.654913,2.391497,0.002000,-0.311553,0.000000
36.000000,0.002000,1.943621,-0.413619,-0.747455,0.169382,0.740556,-0.953701,-4.847895,-5.407325,2.697899,0.002000,0.900826,0.000000
37.000000,0.002000,1.922942,1.480515,1.867559,-0.266219,0.032615,-1.373117,-1.275761,-0.985720,-1.283675,0.002000,1.488252,0.000000
38.000000,0.002000,0.906045,-0.861226,1.910065,0.315159,0.846161,-0.859516,-1.284606,1.351161,-2.792610,0.002000,-0.179925,0.000000
39.000000,0.002000,-0.268003,0.802456,0.947252,0.350546,-1.312283,-0.038696,0.950175,-2.830676,-3.587251,0.002000,-0.403177,0.000000
40.000000,0.002000,-0.155010,0.614079,0.922207,-1.615772,1.121418,0.408901,0.378004,-1.872326,-4.078655,0.002000,0.976639,0.000000
41.000000,0.002000,0.376426,-1.099401,0.298238,-0.024617,-0.775162,1.273756,-1.281120,4.026447,-1.394598,0.002000,0.010500,0.000000
42.000000,0.002000,1.326386,-0.694568,-0.149635,1.967102,-1.857982,1.236164,-3.615336,2.066477,-0.232159,0.002000,0.401989,0.000000
43.000000,0.002000,-0.435154,1.849264,0.672295,1.627651,0.338012,-1.199268,0.756860,-3.397601,-1.351393,0.002000,-1.270485,0.000000
44.000000,0.002000,0.407462,-0.769916,0.539249,0.863345,-0.180920,-0.603921,-1.539626,2.515548,-2.760099,0.002000,1.943621,0.000000
45.000000,0.002000,-0.674333,0.031831,-0.635846,-1.230058,0.550537,0.792807,2.939223,-0.664560,3.155418,0.002000,1.922942,0.000000
46.000000,0.002000,0.676433,0.576591,-0.208299,-0.623531,0.520576,-1.144341,-2.891752,-2.576752,0.084111,0.002000,0.906045,0.000000
47.000000,0.002000,0.396007,-1.093062,-1.491258,0.801861,0.046567,-0.186570,-1.068176,2.436239,3.330927,0.002000,-0.268003,0.000000
48.000000,0.002000,0.439392,0.166673,0.635031,-0.101746,0.868886,0.750412,-1.843388,-0.162302,-2.472319,0.002000,-0.155010,0.000000
49.000000,0.002000,2.383145,0.944479,-0.912822,0.529465,0.137701,0.077821,-2.204197,-0.876053,0.881788,0.002000,0.376426,0.000000
50.000000,0.002000,1.117016,-1.315907,-0.461585,0.618380,0.232495,0.682551,-2.643805,3.091091,0.943046,0.002000,1.326386,0.000000
51.000000,0.002000,-0.068242,1.713343,-0.744755,-0.310117,-2.434838,1.038825,0.660882,-3.990613,1.665611,0.002000,-0.435154,0.000000
52.000000,0.002000,-0.826439,-0.098453,-0.663478,2.186980,0.441364,-0.100155,3.283825,0.307530,3.081485,0.002000,0.407462,0.000000
53.000000,0.002000,1.126636,-1.079932,-1.147469,-0.136445,-0.119054,0.017409,-2.412074,2.280207,2.249701,0.002000,-0.674333,0.000000
54.000000,0.002000,-0.437820,-0.498032,1.929532,-1.122019,-0.517094,-0.997027,0.724151,0.843072,-3.400549,0.002000,0.676433,0.000000
55.000000,0.002000,0.949421,0.087551,-1.225436,0.248799,-0.296641,0.495211,-2.728806,-0.252247,3.383413,0.002000,0.396007,0.000000
56.000000,0.002000,0.844363,-1.000215,-1.544771,-0.174703,0.986335,0.213534,-1.583421,1.964577,3.125482,0.002000,0.439392,0.000000
57.000000,0.002000,1.188030,0.316943,0.920859,2.190700,-1.896361,-0.646917,-4.264959,-0.649234,-3.211948,0.002000,2.383145,0.000000
58.000000,0.002000,0.318728,0.856831,-0.651026,0.901487,2.528326,-0.248635,-1.060830,-2.834410,2.697441,0.002000,1.117016,0.000000
59.000000,0.002000,-1.034243,0.681595,-0.803410,0.043669,-0.226314,1.331457,2.574841,-2.014974,2.303694,0.002000,-0.068242,0.000000
60.000000,0.002000,-0.689550,-0.455533,0.017479,-0.287308,0.680070,-0.319802,3.752425,2.023407,0.375815,0.002000,-0.826439,0.000000
61.000000,0.002000,-0.353994,-1.374951,-0.643618,-1.272559,0.313548,0.503185,1.332001,4.014284,1.548062,0.002000,1.126636,0.000000
62.000000,0.002000,-2.223403,0.625231,-1.602058,1.293226,-0.110447,-0.617362,1.872075,-0.469795,1.373464,0.002000,-0.437820,0.000000
63.000000,0.002000,-1.104383,0.052165,-0.739563,0.562761,0.240737,0.280665,3.558463,-0.205838,2.673478,0.002000,0.949421,0.000000
64.000000,0.002000,1.543015,-1.292857,0.267051,-0.073113,1.160339,0.369493,-2.803771,2.282118,-0.433106,0.002000,0.844363,0.000000
65.000000,0.002000,-0.039283,-1.168093,0.523277,1.904659,1.111057,0.659050,-0.024429,3.929415,-1.647803,0.002000,1.188030,0.000000
66.000000,0.002000,-0.171546,0.771791,0.823504,-1.627438,0.602319,0.420282,0.617877,-3.649387,-2.109170,0.002000,0.318728,0.000000
67.000000,0.002000,2.163236,1.336528,-0.369182,0.810952,1.044442,-0.400878,-2.412615,-1.427549,0.478923,0.002000,-1.034243,0.000000
68.000000,0.002000,-0.239379,1.099660,0.655264,0.824006,-0.562305,1.954878,1.091191,-3.611856,-2.269505,0.002000,-0.689550,0.000000
69.000000,0.002000,0.640132,-1.616956,-0.024326,-1.331952,-1.760689,-1.650721,-2.199837,4.597578,0.624698,0.002000,-0.353994,0.000000
70.000000,0.002000,-0.738031,0.279925,-0.098150,-0.890556,-1.119115,1.956079,3.142224,-1.739440,0.713893,0.002000,-2.223403,0.000000
71.000000,0.002000,0.910179,0.317218,0.786328,-0.326499,-1.342676,1.114383,-3.317668,-1.587711,-2.594909,0.002000,-1.104383,0.000000
72.000000,0.002000,-0.466419,-0.944446,-0.410050,-0.586524,-1.236853,0.875839,2.297909,3.698317,2.273309,0.002000,1.543015,0.000000
73.000000,0.002000,-0.017020,0.379152,2.259309,0.623362,-0.434957,1.407540,0.075064,-0.541953,-3.094425,0.002000,-0.039283,0.000000
74.000000,0.002000,-0.042257,-0.955945,-0.345982,0.129102,1.616950,0.502741,0.122385,3.858909,1.242448,0.002000,-0.171546,0.000000
75.000000,0.002000,-0.463596,0.481481,-1.540797,1.558806,0.109403,-1.219744,1.242686,-1.263164,3.696185,0.002000,2.163236,0.000000
76.000000,0.002000,0.063262,0.156507,0.232181,2.449369,-0.545774,-0.198838,-0.610845,-0.724199,-2.555729,0.002000,-0.239379,0.000000
77.000000,0.002000,-0.597316,-0.237922,-1.424061,-0.700399,-0.203394,0.242669,1.978793,0.382267,3.928799,0.002000,0.640132,0.000000
78.000000,0.002000,-0.493320,-0.542861,0.416050,0.201830,0.661020,1.792158,2.380156,2.699541,-1.778796,0.002000,-0.738031,0.000000
79.000000,0.002000,-1.156182,0.781198,1.494485,-0.120465,-1.233121,-1.182318,2.242859,-1.228843,-2.939355,0.002000,0.910179,0.000000
80.000000,0.002000,-2.069985,0.426259,0.676908,-0.665755,-1.674196,0.825030,3.307891,-0.684101,-0.869830,0.002000,-0.466419,0.000000
81.000000,0.002000,-0.637437,-0.397272,-0.132881,-0.498214,-0.310985,-0.001891,3.191287,1.522932,0.506945,0.002000,-0.017020,0.000000
82.000000,0.002000,-0.297791,-0.309013,-1.676004,-1.396620,-0.861316,0.674712,0.828662,0.386013,4.102672,0.002000,-0.042257,0.000000
83.000000,0.002000,1.152332,1.079619,-0.813364,0.618539,-0.443172,1.810535,-2.647492,-2.261326,1.775407,0.002000,-0.463596,0.000000
84.000000,0.002000,-1.466424,0.521065,-0.575788,-1.305727,-0.344987,-0.230840,3.534503,-1.525907,1.406469,0.002000,0.063262,0.000000
85.000000,0.002000,0.141953,-0.319328,0.691539,-2.793085,1.937529,0.366332,-0.636274,1.932429,-3.253145,0.002000,-0.597316,0.000000
86.000000,0.002000,0.694749,-0.725597,-1.383364,-1.044589,2.051173,0.585662,-1.856172,1.726168,3.464912,0.002000,-0.493320,0.000000
87.000000,0.002000,-1.582938,0.610379,-1.188859,0.429526,-0.606998,0.106223,2.747788,-0.989874,1.956554,0.002000,-1.156182,0.000000
88.000000,0.002000,-0.506816,-0.596314,-0.052567,-1.525680,0.795026,-0.374438,2.682202,2.497545,0.590758,0.002000,-2.069985,0.000000
89.000000,0.002000,-1.936280,0.188779,0.523891,0.134048,1.202055,0.284748,3.538559,-0.208963,-0.957215,0.002000,-0.637437,0.000000
90.000000,0.002000,0.088422,-0.310886,0.097400,0.262467,0.276499,-0.733272,-0.185871,1.299650,-1.037738,0.002000,-0.297791,0.000000
91.000000,0.002000,0.399046,-2.772593,1.955912,0.836005,1.543359,0.758806,-0.211198,1.354171,-0.965952,0.002000,1.152332,0.000000
92.000000,0.002000,0.390093,-0.652409,-0.390953,0.884909,-0.877282,-0.867787,-1.617598,2.848313,1.161099,0.002000,-1.466424,0.000000
93.000000,0.002000,0.493742,-0.116104,-2.030684,-1.440876,1.232253,-0.254180,-1.009143,0.161165,3.220133,0.002000,0.141953,0.000000
94.000000,0.002000,2.064493,-0.110541,1.020173,1.399844,-0.781912,-0.437509,-2.951494,-0.062229,-1.832241,0.002000,0.694749,0.000000
95.000000,0.002000,-0.692050,1.536377,0.286344,0.095425,0.921450,0.060750,1.960585,-3.677597,-0.613742,0.002000,-1.582938,0.000000
96.000000,0.002000,0.608844,-1.045253,1.211145,0.211125,0.016528,0.177188,-1.371438,2.558752,-3.141647,0.002000,-0.506816,0.000000
97.000000,0.002000,0.689818,1.301846,-0.628088,-1.116470,0.080927,-0.186579,-1.954472,-4.119082,1.853653,0.002000,-1.936280,0.000000
98.000000,0.002000,-0.481027,2.303917,-1.060016,-0.056824,0.492337,-0.680678,0.561489,-2.454791,1.250405,0.002000,0.088422,0.000000
99.000000,0.002000,-0.135950,1.136891,0.097725,-0.084508,-0.297362,0.417302,0.466537,-4.308765,-0.299181,0.002000,0.399046,0.000000
100.000000,0.002000,0.582954,-0.399449,0.370056,0.784771,-0.955425,0.585910,-2.138360,1.867106,-1.277696,0.002000,0.390093,0.000000
101.000000,0.002000,-1.306527,1.658131,-0.118164,2.065783,-1.471157,-0.830172,2.144010,-2.792557,0.397758,0.002000,0.493742,0.000000
102.000000,0.002000,-0.680178,0.666383,-0.460720,-0.880578,-0.279098,1.622849,2.719324,-2.189552,2.323633,0.002000,2.064493,0.000000
103.000000,0.002000,-1.334258,-1.346718,0.693773,0.013353,-0.694694,0.621804,1.999992,2.667294,-1.550700,0.002000,-0.692050,0.000000
104.000000,0.002000,-0.159573,-0.133702,1.077744,-0.599805,1.123412,0.305267,0.572225,0.783402,-4.395305,0.002000,0.608844,0.000000
105.000000,0.002000,-1.126826,-0.730678,-0.384880,1.388779,-0.661344,3.030857,3.748263,2.495798,1.343731,0.002000,0.689818,0.000000
106.000000,0.002000,0.094352,-0.042171,-0.286887,0.824585,0.654580,-0.051188,-0.964037,-0.427227,1.756072,0.002000,-0.481027,0.000000
107.000000,0.002000,-0.061626,-0.107305,-0.719604,-0.725597,-0.867769,-0.135977,0.186523,0.452302,2.952534,0.002000,-0.135950,0.000000
108.000000,0.002000,-0.812993,0.274516,-0.890915,-0.797270,0.282676,-0.826097,2.660157,-1.213536,3.276165,0.002000,0.582954,0.000000
109.000000,0.002000,-1.157355,-0.312292,-0.157667,0.621083,0.956122,-0.705841,3.034514,1.398685,0.682566,0.002000,-1.306527,0.000000
110.000000,0.002000,2.256723,-0.704700,0.943261,1.192686,-0.237942,1.155288,-2.448787,0.944948,-1.090985,0.002000,-0.680178,0.000000
111.000000,0.002000,0.747188,-1.188945,0.773253,0.438166,1.122328,-0.997020,-1.976529,2.758480,-1.514110,0.002000,-1.334258,0.000000
112.000000,0.002000,-1.183881,-2.659172,0.606320,-0.106794,1.451429,-0.618037,0.907940,1.954788,-0.440812,0.002000,-0.159573,0.000000
113.000000,0.002000,-1.755891,0.450934,-0.684011,-2.037201,-1.942589,-2.506441,4.401061,-1.198211,0.561057,0.002000,-1.126826,0.000000
114.000000,0.002000,1.659551,1.068509,-0.453386,-2.114164,-0.411639,1.278528,-2.931425,-1.923951,0.921236,0.002000,0.094352,0.000000
115.000000,0.002000,-0.687838,-1.214077,-0.440923,-0.442229,0.323527,-0.109991,1.768248,3.475082,0.980713,0.002000,-0.061626,0.000000
116.000000,0.002000,-0.280355,-0.364694,0.156704,0.008549,-0.168199,-0.174180,1.406655,1.529373,-1.109592,0.002000,-0.812993,0.000000
117.000000,0.002000,0.578521,0.349654,-0.764144,0.461164,-1.175983,1.010127,-2.181188,-1.374746,2.903221,0.002000,-1.157355,0.000000
118.000000,0.002000,-1.437791,1.364532,-0.689449,0.920018,-0.195057,0.805393,2.399822,-2.340749,1.188600,0.002000,2.256723,0.000000
119.000000,0.002000,-0.652294,-0.521189,-1.843070,-0.701344,-0.537223,0.156264,1.115548,0.961432,3.479013,0.002000,0.747188,0.000000
120.000000,0.002000,-0.477974,-0.479656,0.620358,-0.190221,-0.448738,-0.672448,1.935074,2.036752,-3.293835,0.002000,-1.183881,0.000000
121.000000,0.002000,0.698457,0.003771,0.931848,-0.557495,0.939169,-1.943323,-2.000797,1.115541,-3.245630,0.002000,-1.755891,0.000000
122.000000,0.002000,0.339965,-0.015682,0.160928,0.352494,-0.236437,0.727813,-2.930480,-0.562463,-2.117188,0.002000,1.659551,0.000000
123.000000,0.002000,-0.190653,-0.394850,-0.267734,0.515074,-2.782534,0.584647,0.836316,1.548114,1.716135,0.002000,-0.687838,0.000000
124.000000,0.002000,-1.128011,0.280442,-0.993124,0.324274,0.021863,-0.468674,3.097108,-0.767634,2.712430,0.002000,-0.280355,0.000000
125.000000,0.002000,0.841631,-0.249459,0.049495,0.853281,-0.413029,1.834718,-4.004159,2.306976,0.299262,0.002000,0.578521,0.000000
126.000000,0.002000,0.493837,0.643314,-1.570623,0.564383,2.137828,-0.785534,-1.060898,-1.385968,3.474065,0.002000,-1.437791,0.000000
127.000000,0.002000,-0.206904,0.880179,-1.698106,-1.755926,0.714790,0.852704,0.427686,-1.656520,3.258122,0.002000,-0.652294,0.000000
128.000000,0.002000,0.387280,-2.255564,-1.022507,0.035360,-1.538793,-0.447895,-0.445982,2.665229,1.128629,0.002000,-0.477974,0.000000
129.000000,0.002000,0.038631,-1.656715,-0.985511,0.617986,-0.184176,-0.115985,0.223178,3.772516,2.371625,0.002000,0.698457,0.000000
130.000000,0.002000,-1.471835,1.648135,0.164228,-0.175459,-0.933915,-0.533020,2.366781,-2.533631,-0.351035,0.002000,0.339965,0.000000
131.000000,0.002000,0.567290,-0.222675,-0.353432,-1.426555,1.767960,-0.475373,-2.111585,0.742842,2.531088,0.002000,-0.190653,0.000000
132.000000,0.002000,-1.616474,-0.291837,-0.761492,0.477610,-1.021886,0.794528,4.456109,0.672121,1.271680,0.002000,-1.128011,0.000000
133.000000,0.002000,0.857924,1.141102,1.466579,-1.873161,0.920615,-0.035368,-1.336329,-1.906286,-2.621702,0.002000,0.841631,0.000000
134.000000,0.002000,0.852552,-0.598654,-1.115897,2.110605,-1.306534,0.076380,-3.068815,-0.406558,5.083395,0.002000,0.493837,0.000000
135.000000,0.002000,0.766663,0.356293,-1.768538,0.367232,1.232899,-0.422857,-1.396647,-0.703582,3.261863,0.002000,-0.206904,0.000000
136.000000,0.002000,0.355482,0.814520,0.058926,0.086464,-2.142467,-0.830169,-2.070020,-3.552494,-0.531740,0.002000,0.387280,0.000000
137.000000,0.002000,-0.185054,-0.807648,-1.446535,0.451616,1.104174,-0.281736,0.590566,2.079185,3.784694,0.002000,0.038631,0.000000
138.000000,0.002000,0.800298,-0.309114,-0.233467,2.056356,1.760249,-0.060652,-3.477198,1.452811,1.065249,0.002000,-1.471835,0.000000
139.000000,0.002000,1.732721,0.684501,0.370825,-2.413503,-1.777566,-0.777859,-3.423401,-1.510313,-0.733895,0.002000,0.567290,0.000000
140.000000,0.002000,0.142062,1.519995,1.719589,1.115841,0.310272,-2.094248,-0.198206,-1.876867,-2.607790,0.002000,-1.616474,0.000000
141.000000,0.002000,0.929505,0.582225,-2.094603,-0.228766,1.613361,-0.374805,-1.143660,-0.905744,2.735961,0.002000,0.857924,0.000000
142.000000,0.002000,0.123722,-0.130107,0.093953,-0.749970,2.054624,0.053410,-0.655701,1.330000,-0.627601,0.002000,0.852552,0.000000
143.000000,0.002000,0.943046,-2.739677,-0.569312,-0.479157,0.350167,0.017165,-0.759626,2.055429,0.409137,0.002000,0.766663,0.000000
144.000000,0.002000,0.269904,-0.466846,-1.416906,-0.429142,1.208456,1.115702,-1.130804,1.203716,3.640525,0.002000,0.355482,0.000000
145.000000,0.002000,0.868963,0.276872,-0.971105,0.840862,-0.102887,1.146900,-8.221837,2.781624,4.716786,0.002000,-0.185054,0.000000
146.000000,0.002000,0.314817,0.821586,0.005293,-0.049703,0.466643,1.033687,-1.490004,-3.693349,0.365827,0.002000,0.800298,0.000000
147.000000,0.002000,0.800565,0.078260,-0.395229,0.808844,1.789755,0.451284,-3.524746,-1.076433,1.711701,0.002000,1.732721,0.000000
148.000000,0.002000,-1.159421,-0.085931,0.194293,-1.684060,-1.160170,1.350107,4.088893,2.302165,1.115408,0.002000,0.142062,0.000000
149.000000,0.002000,0.875833,-0.115107,0.457416,-0.331283,0.386539,-0.851456,-4.025456,0.355076,-1.013362,0.002000,0.929505,0.000000
150.000000,0.002000,-0.964612,-0.782629,-0.110389,1.000881,-0.384832,1.458108,3.160049,2.577563,-0.482349,0.002000,0.123722,0.000000
151.000000,0.002000,-1.054628,0.820248,0.463130,-0.532234,1.118133,0.674396,3.507143,-2.603096,-1.274121,0.002000,0.943046,0.000000
152.000000,0.002000,0.279096,0.338904,2.021044,-0.722392,1.098996,-0.901634,-0.384460,-0.345274,-3.403683,0.002000,0.269904,0.000000
153.000000,0.002000,-0.468864,-2.201441,0.199300,-0.822467,0.721711,-0.625342,0.705387,3.327444,-0.311543,0.002000,0.868963,0.000000
154.000000,0.002000,-0.050604,-0.517519,-0.978830,-0.593843,-0.343901,-1.000169,0.553416,1.875854,3.251995,0.002000,0.314817,0.000000
155.000000,0.002000,-0.439190,0.181338,-0.502817,1.044994,0.608515,-0.069329,2.048336,-1.315346,2.830776,0.002000,0.800565,0.000000
156.000000,0.002000,2.412454,-0.960504,-0.793117,-0.108392,0.450156,1.765335,-2.275247,0.915526,0.695748,0.002000,-1.159421,0.000000
157.000000,0.002000,-2.288620,0.251484,-2.016407,0.870970,-0.508457,0.777419,1.526962,-0.152602,1.396335,0.002000,0.875833,0.000000
158.000000,0.002000,-0.539455,-0.275671,-0.709728,-0.118771,-0.198998,1.866471,2.936400,0.716545,4.107324,0.002000,-0.964612,0.000000
159.000000,0.002000,1.738873,0.994394,1.319137,-0.418938,-0.479185,-1.952105,-2.497788,-1.072609,-2.002602,0.002000,-1.054628,0.000000
160.000000,0.002000,-0.882419,1.128594,0.496001,-1.402329,0.451123,-0.694921,2.267836,-3.299376,-1.356206,0.002000,0.279096,0.000000
161.000000,0.002000,0.771406,1.029439,-0.908763,0.515414,-1.114871,-0.767310,-2.237374,-2.846679,2.511897,0.002000,-0.468864,0.000000
162.000000,0.002000,-0.424318,0.862596,-2.655619,0.674571,1.460892,0.592473,0.401329,-0.781011,2.232723,0.002000,-0.050604,0.000000
163.000000,0.002000,1.513328,0.553132,-0.045704,1.197831,1.704594,1.040089,-3.875839,-1.717225,-0.354343,0.002000,-0.439190,0.000000
164.000000,0.002000,0.220508,-1.029935,-0.349943,-0.918440,-0.105345,0.630196,-1.170408,4.033465,1.226650,0.002000,2.412454,0.000000
165.000000,0.002000,1.100284,1.298022,2.696224,-0.414847,0.451946,-1.579156,-0.657128,-0.783277,-1.612457,0.002000,-2.288620,0.000000
166.000000,0.002000,-0.073925,-0.658553,-0.514234,-0.828628,0.528880,-2.237087,0.958277,4.054781,2.483562,0.002000,-0.539455,0.000000
167.000000,0.002000,-1.018042,-0.077855,0.382732,-1.107713,-0.017718,-1.719394,3.539545,0.037662,-2.015928,0.002000,1.738873,0.000000
168.000000,0.002000,-0.034242,1.096347,-0.234216,0.057121,-0.799547,-0.291595,0.312205,-4.308114,1.217598,0.002000,-0.882419,0.000000
169.000000,0.002000,-0.347451,-0.581268,-1.632635,-0.258983,0.189293,-0.563789,0.979784,1.597710,3.626288,0.002000,0.771406,0.000000
170.000000,0.002000,-1.567768,-1.179158,1.301428,0.089686,-0.601157,0.556074,2.087746,1.571147,-1.621391,0.002000,-0.424318,0.000000
171.000000,0.002000,0.895260,1.374964,-1.332212,1.693809,0.196870,0.169869,-1.391717,-2.235735,2.377312,0.002000,1.513328,0.000000
172.000000,0.002000,-1.968625,-0.660056,0.175819,-1.164008,0.693366,-0.758067,2.048023,2.777749,0.288173,0.002000,0.220508,0.000000
173.000000,0.002000,0.498690,1.047972,0.284280,-0.808847,0.557439,0.181039,-1.816570,-3.577601,-1.259168,0.002000,1.100284,0.000000
174.000000,0.002000,1.742669,-0.222606,-0.913079,1.107175,1.442877,-0.539682,-3.536958,0.263693,1.835312,0.002000,-0.073925,0.000000
175.000000,0.002000,-1.681218,-0.888971,0.242118,0.128377,1.760415,0.966539,3.271275,1.559713,-0.478165,0.002000,-1.018042,0.000000
176.000000,0.002000,-0.888720,0.936742,1.412328,0.713049,1.306206,-0.604603,1.684995,-1.840088,-2.637413,0.002000,-0.034242,0.000000
177.000000,0.002000,-2.369587,0.864052,-2.239604,0.636583,1.409253,1.620912,1.205749,-0.461105,1.171217,0.002000,-0.347451,0.000000
178.000000,0.002000,0.401499,1.224871,0.064856,-0.806185,-0.251674,0.382715,-1.801934,-3.208991,-0.231646,0.002000,-1.567768,0.000000
179.000000,0.002000,-1.279689,-0.585431,-0.261645,-0.288997,-0.391816,0.684001,3.799909,1.564479,1.022352,0.002000,0.895260,0.000000
180.000000,0.002000,-0.182245,-0.202897,-0.109883,-0.353410,-1.787913,0.361847,1.149869,0.658504,-0.030360,0.002000,-1.968625,0.000000
181.000000,0.002000,0.213480,-1.208574,-0.242020,-0.424493,-0.731531,-1.565738,0.400426,4.235836,0.372843,0.002000,0.498690,0.000000
182.000000,0.002000,1.518261,-0.384645,-0.443836,1.013822,-2.227113,-1.699334,-3.817273,0.497093,0.783031,0.002000,1.742669,0.000000
183.000000,0.002000,1.078197,-2.559185,1.181379,-0.275846,1.228956,1.309706,-0.819084,1.929460,-0.828437,0.002000,-1.681218,0.000000
184.000000,0.002000,-0.631904,0.163929,0.096321,-1.154983,-0.177632,-1.510456,3.151389,-0.300299,-1.267922,0.002000,-0.888720,0.000000
185.000000,0.002000,0.942468,-0.267595,-0.678026,1.011207,-1.476563,-0.143196,-3.338995,1.020283,2.442971,0.002000,-2.369587,0.000000
186.000000,0.002000,1.297846,-2.364174,0.020334,1.032984,-0.222414,1.470160,-1.264888,2.214384,-0.020400,0.002000,0.401499,0.000000
187.000000,0.002000,-1.347925,-0.761573,2.011257,-0.870008,0.369190,0.853282,1.473866,0.912782,-2.384247,0.002000,-1.279689,0.000000
188.000000,0.002000,-0.044595,0.195070,-1.781563,-0.139712,1.386314,0.548130,0.176668,-0.369065,4.152073,0.002000,-0.182245,0.000000
189.000000,0.002000,-0.729045,0.196557,0.354758,-1.637450,3.958603,0.648644,2.682663,-0.762948,-1.832640,0.002000,0.213480,0.000000
190.000000,0.002000,0.616887,0.008628,0.527004,0.107343,-1.398813,0.081768,-2.084776,0.161245,-2.302445,0.002000,1.518261,0.000000
191.000000,0.002000,0.453782,-1.829740,0.037006,-0.459943,0.644354,0.371670,-0.995103,3.810439,-0.069644,0.002000,1.078197,0.000000
192.000000,0.002000,0.767902,0.589880,-0.363859,1.853009,0.142251,0.513505,-3.315782,-2.526155,1.699724,0.002000,-0.631904,0.000000
193.000000,0.002000,-0.805627,-1.118312,-0.131054,0.372457,-0.148490,-0.183400,2.642541,3.564083,0.520939,0.002000,0.942468,0.000000
194.000000,0.002000,1.133080,-1.951804,-0.659892,1.101000,0.780027,-0.629442,-1.599248,2.627780,0.823975,0.002000,1.297846,0.000000
195.000000,0.002000,-1.139802,0.784958,-0.554310,-1.113436,-0.067410,1.161440,3.150245,-2.130224,1.731224,0.002000,-1.347925,0.000000
196.000000,0.002000,-0.470638,-0.216950,0.445393,-0.027529,1.746435,-0.775070,2.434334,0.374871,-1.722535,0.002000,-0.044595,0.000000
197.000000,0.002000,-0.392389,-3.046143,0.543312,0.141641,-2.516304,-0.595668,0.198721,1.968799,-0.343758,0.002000,-0.729045,0.000000
198.000000,0.002000,0.439043,-0.219541,-1.084037,-0.309121,0.510938,1.710662,-2.016463,0.323157,3.761005,0.002000,0.616887,0.000000
199.000000,0.002000,0.351780,0.379236,-0.470033,0.034944,1.453918,0.661681,-1.195288,-1.834636,2.540591,0.002000,0.453782,0.000000
200.000000,0.002000,-0.216731,-0.930157,-0.178589,0.986352,-0.466155,1.384991,0.484015,3.780166,0.707702,0.002000,0.767902,0.000000
201.000000,0.002000,-1.550429,0.417319,-0.944368,-1.072964,0.495159,-0.952062,2.801053,-0.977173,1.842184,0.002000,-0.805627,0.000000
202.000000,0.002000,0.238103,-1.405963,-0.590058,-0.518146,-1.461404,-0.516348,-0.536364,3.664576,1.695659,0.002000,1.133080,0.000000
203.000000,0.002000,-0.110489,-1.660700,0.115148,0.351117,-0.068770,-1.347765,0.030054,4.084739,-0.216608,0.002000,-1.139802,0.000000
204.000000,0.002000,-0.379148,-1.742356,-1.303243,1.470740,0.337221,1.008065,0.711999,2.614741,2.077768,0.002000,-0.470638,0.000000
205.000000,0.002000,0.605120,0.895556,-0.131909,0.785227,-0.664868,-1.945047,-2.658975,-3.291927,0.519373,0.002000,-0.392389,0.000000
206.000000,0.002000,0.404762,0.223844,0.329623,-0.915424,1.225156,-1.053546,-1.443254,-0.810494,-1.924488,0.002000,0.439043,0.000000
207.000000,0.002000,1.285984,-1.506998,0.676461,0.816044,-0.612407,0.393109,-2.609115,2.626483,-1.421995,0.002000,0.351780,0.000000
208.000000,0.002000,-0.382009,-0.224259,-0.302250,-1.823920,1.167075,-0.039669,1.727472,1.115728,0.921477,0.002000,-0.216731,0.000000
209.000000,0.002000,-0.375147,-1.226196,0.183339,0.885826,0.189862,0.798064,1.258631,4.267495,-0.494100,0.002000,-1.550429,0.000000
210.000000,0.002000,1.670943,-0.056133,-0.001385,-0.101932,0.743357,-1.509573,-3.503204,0.175925,-0.298418,0.002000,0.238103,0.000000
211.000000,0.002000,-0.687299,-0.117475,0.466166,-1.080711,0.725474,-0.039178,2.926995,1.356819,-1.817686,0.002000,-0.110489,0.000000
212.000000,0.002000,-0.370242,-0.453804,0.403265,-0.228754,-0.179612,0.501725,1.181735,1.455834,-1.596900,0.002000,-0.379148,0.000000
213.000000,0.002000,-0.918005,0.252497,0.820322,-0.593344,0.510308,-0.915792,3.145652,-0.384154,-2.519487,0.002000,0.605120,0.000000
214.000000,0.002000,1.359949,-0.090382,1.367597,-0.407252,0.984952,1.071252,-4.137246,-1.091846,-3.777108,0.002000,0.404762,0.000000
215.000000,0.002000,1.034410,-0.996213,-1.217939,-1.097154,0.838635,-1.039182,-2.195910,2.121534,2.616572,0.002000,1.285984,0.000000
216.000000,0.002000,-0.304964,1.028935,-0.072287,0.733023,-1.898812,-1.117111,1.543650,-4.086890,0.696990,0.002000,-0.382009,0.000000
217.000000,0.002000,-0.600658,1.552243,0.286904,-0.508972,-0.166486,1.423614,1.203244,-3.938126,-0.656044,0.002000,-0.375147,0.000000
218.000000,0.002000,-2.320594,0.317161,0.520041,0.903999,1.575468,1.206608,3.016462,-0.377217,-0.745064,0.002000,1.670943,0.000000
219.000000,0.002000,0.225609,0.449712,-0.067276,-0.282864,-0.266327,1.068972,-1.663487,-1.803869,0.639228,0.002000,-0.687299,0.000000
220.000000,0.002000,-1.318396,-0.370704,-0.945616,0.040371,-0.156994,-1.335203,3.003774,0.932941,2.668942,0.002000,-0.370242,0.000000
221.000000,0.002000,-0.932741,-1.263068,0.452489,-0.106460,-2.790996,-0.456118,2.386730,3.238327,-1.042305,0.002000,-0.918005,0.000000
222.000000,0.002000,0.097896,-0.448165,-0.649338,-0.979890,0.692574,-0.478672,-0.332380,0.975187,2.740073,0.002000,1.359949,0.000000
223.000000,0.002000,-0.023423,1.079195,-2.004216,-0.329052,1.347105,-1.049068,0.007779,-1.544656,2.850019,0.002000,1.034410,0.000000
224.000000,0.002000,0.376877,-0.545712,-1.884586,0.316659,-1.895267,0.089729,-0.962761,0.771034,3.551931,0.002000,-0.304964,0.000000
225.000000,0.002000,-1.945703,-0.912783,0.219510,0.410266,0.859871,-0.898683,2.619915,1.522764,-0.473073,0.002000,-0.600658,0.000000
226.000000,0.002000,0.393063,-0.938982,1.017021,0.319657,0.318154,-0.019232,-1.252883,2.742204,-3.314077,0.002000,-2.320594,0.000000
227.000000,0.002000,1.422983,0.396087,-0.591403,0.150016,0.463534,0.397880,-3.783802,-0.928736,1.680892,0.002000,0.225609,0.000000
228.000000,0.002000,1.124419,0.755396,0.867407,-0.996011,-1.195862,2.505980,-2.738260,-2.167513,-2.403635,0.002000,-1.318396,0.000000
229.000000,0.002000,-0.656464,-2.834555,2.116791,1.919792,-1.391694,0.450218,0.268638,1.209599,-0.913073,0.002000,-0.932741,0.000000
230.000000,0.002000,-1.610878,-0.035768,2.380745,0.627437,0.751337,0.140395,1.294829,0.048120,-1.941169,0.002000,0.097896,0.000000
231.000000,0.002000,0.330577,0.949246,-1.502397,-0.926872,-0.182420,-0.491125,-1.052651,-1.630345,3.314084,0.002000,-0.023423,0.000000
232.000000,0.002000,-1.777667,-0.532703,1.090750,0.134373,-0.268371,-0.131676,2.947725,0.642571,-1.706702,0.002000,0.376877,0.000000
233.000000,0.002000,-0.346249,-0.794636,0.197967,1.018552,1.230558,-1.181103,1.342301,3.699145,-0.820051,0.002000,-1.945703,0.000000
234.000000,0.002000,1.081935,-1.444940,-1.210543,-0.459930,-0.790800,1.223722,-1.769260,2.364665,1.897275,0.002000,0.393063,0.000000
235.000000,0.002000,-0.788669,1.094638,0.234822,-0.059368,1.448989,-0.477581,2.382646,-3.659331,-0.878496,0.002000,1.422983,0.000000
236.000000,0.002000,2.132153,0.936446,-0.035095,0.026000,-1.348696,1.302536,-2.693330,-1.139084,-0.149138,0.002000,1.124419,0.000000
237.000000,0.002000,1.265078,0.211497,-0.704921,-0.362612,-1.485156,-0.592461,-3.865927,-0.888049,1.959924,0.002000,-0.656464,0.000000
238.000000,0.002000,0.679975,-0.696327,-0.290397,-2.304908,-0.031817,0.112488,-2.798688,3.879809,1.294321,0.002000,-1.610878,0.000000
239.000000,0.002000,1.327783,-0.101281,-0.803141,0.288078,1.498108,-0.300976,-3.688738,0.002267,2.414083,0.002000,0.330577,0.000000
240.000000,0.002000,-0.464338,1.021791,-0.552541,0.807456,0.312239,-0.193322,1.095325,-3.297566,2.744915,0.002000,-1.777667,0.000000
241.000000,0.002000,-0.386871,-0.510293,0.183925,-2.076802,0.947501,-0.503974,1.397543,2.310284,-1.308510,0.002000,-0.346249,0.000000
242.000000,0.002000,-0.385490,-1.601836,-0.887181,0.017956,-1.270461,0.282996,0.489122,3.332631,1.843424,0.002000,1.081935,0.000000
243.000000,0.002000,-0.932789,1.243319,0.812674,0.108031,0.029418,-0.134793,2.258641,-3.145234,-2.010759,0.002000,-0.788669,0.000000
244.000000,0.002000,0.587259,-0.505358,-0.815792,1.049218,0.966221,0.725917,-2.445948,1.861259,3.511179,0.002000,2.132153,0.000000
245.000000,0.002000,-0.507518,-1.051880,2.497200,3.321079,-0.600225,-0.379518,0.413756,0.998738,-2.244134,0.002000,1.265078,0.000000
246.000000,0.002000,-2.245322,0.564009,-1.284552,-1.014804,0.435986,-0.687487,2.248393,-0.557622,1.236375,0.002000,0.679975,0.000000
247.000000,0.002000,-0.104343,-0.988002,-1.177629,-2.698362,-1.213338,0.072252,0.301427,2.891610,3.251105,0.002000,1.327783,0.000000
248.000000,0.002000,-1.140196,1.754986,-0.132988,1.009787,-1.556942,-0.612442,1.800401,-3.109422,0.283412,0.002000,-0.464338,0.000000
249.000000,0.002000,-0.765702,0.555787,0.010349,-0.139352,-0.728537,0.531164,4.250180,-2.853765,-0.341305,0.002000,-0.386871,0.000000
250.000000,0.002000,0.720034,-1.824257,0.303604,0.004001,0.321266,-0.725215,-1.473445,3.336175,-0.348921,0.002000,-0.385490,0.000000
251.000000,0.002000,0.772695,-1.661598,0.448195,1.536536,-0.000375,1.293550,-1.705702,3.281205,-0.902978,0.002000,-0.932789,0.000000
252.000000,0.002000,1.696182,-0.014858,0.821406,-0.438998,0.590039,-0.679384,-3.569542,-0.011266,-1.688147,0.002000,0.587259,0.000000
253.000000,0.002000,0.670570,-0.707506,0.039767,-0.950909,-0.704350,-0.045867,-3.095713,3.162471,-0.592287,0.002000,-0.507518,0.000000
254.000000,0.002000,-1.566995,-0.451303,0.265688,-0.218733,1.539207,-1.148704,4.054201,0.970694,-0.638848,0.002000,-2.245322,0.000000
255.000000,0.002000,0.723100,0.024612,0.719984,-1.090338,1.700188,0.608784,-2.697356,0.183236,-2.911647,0.002000,-0.104343,0.000000
256.000000,0.002000,-1.102906,-0.101697,0.019279,-1.881411,0.497269,0.237333,6.455839,0.305430,-0.865839,0.002000,-1.140196,0.000000
257.000000,0.002000,1.849591,-0.214167,-0.499017,-2.144444,-0.369562,-0.017455,-3.763767,0.326559,0.978795,0.002000,-0.765702,0.000000
258.000000,0.002000,0.021351,-0.919113,0.192754,0.731403,0.954496,0.095747,0.017617,6.045306,-1.071459,0.002000,0.720034,0.000000
259.000000,0.002000,-0.365055,-1.791328,-0.058587,1.033451,-0.146273,-0.857497,0.321203,3.989416,-0.275694,0.002000,0.772695,0.000000
260.000000,0.002000,-0.317543,-1.632423,-0.067134,-0.934182,0.542645,-1.958169,0.972081,3.933176,0.173703,0.002000,1.696182,0.000000
261.000000,0.002000,1.489356,0.521304,0.611927,0.677808,-1.106573,-0.359224,-3.501378,-1.110121,-1.515327,0.002000,0.670570,0.000000
262.000000,0.002000,-1.341497,0.476898,0.148450,0.505382,1.217941,-1.940681,4.724469,-1.606773,0.397648,0.002000,-1.566995,0.000000
263.000000,0.002000,0.529045,0.422629,-1.359781,-0.806178,0.049062,-0.596086,-1.348246,-1.254541,3.816853,0.002000,0.723100,0.000000
264.000000,0.002000,-0.041401,-0.757871,-0.050084,0.861623,-2.086391,0.361802,0.110377,3.518562,0.036274,0.002000,-1.102906,0.000000
265.000000,0.002000,-0.897401,1.312470,-0.858972,0.425920,0.049080,1.102237,1.794924,-2.837507,2.022728,0.002000,1.849591,0.000000
266.000000,0.002000,-0.898942,0.074586,-1.077099,-1.229574,1.108617,-0.702920,2.548582,-0.200661,3.224599,0.002000,0.021351,0.000000
267.000000,0.002000,-0.424663,-0.829965,1.411172,0.725551,-0.324204,0.814343,0.874494,2.284124,-3.024617,0.002000,-0.365055,0.000000
268.000000,0.002000,0.785804,-0.057470,-0.391217,0.780470,-1.464054,-0.154491,-3.303687,-0.147792,1.800952,0.002000,-0.317543,0.000000
269.000000,0.002000,0.940918,0.405204,0.498052,-0.092432,-0.237875,-0.755663,-3.568903,-1.159097,-3.079869,0.002000,1.489356,0.000000
270.000000,0.002000,-0.026192,-1.688230,-0.112466,1.851438,0.209097,1.555016,-0.295096,3.976132,0.027776,0.002000,-1.341497,0.000000
271.000000,0.002000,-0.532490,0.645055,1.011842,-0.569149,-1.061797,0.132248,1.898749,-1.784869,-3.432010,0.002000,0.529045,0.000000
272.000000,0.002000,-0.657951,0.468385,1.735879,-0.563237,2.390146,0.245423,1.918560,-0.983784,-3.802642,0.002000,-0.041401,0.000000
273.000000,0.002000,-0.667713,1.681922,-0.852586,1.152599,-0.224236,-0.326061,1.355401,-2.873965,1.697836,0.002000,-0.897401,0.000000
274.000000,0.002000,0.022960,-0.011146,0.011499,-0.030911,0.355717,0.849587,0.334530,-0.059150,-0.311260,0.002000,-0.898942,0.000000
275.000000,0.002000,-0.837678,-0.591183,-0.667720,-0.122154,-0.680852,-1.067877,2.867666,1.785290,2.609235,0.002000,-0.424663,0.000000
276.000000,0.002000,0.326963,0.330035,2.225944,-0.076679,0.572963,0.457947,-0.464359,-0.364766,-3.233661,0.002000,0.785804,0.000000
277.000000,0.002000,1.370989,-0.509843,0.324870,-0.017818,-0.600139,0.146765,-3.866552,1.843251,-0.771011,0.002000,0.940918,0.000000
278.000000,0.002000,0.997118,0.030602,-0.069642,0.571805,-0.036818,0.112368,-4.906511,-0.619942,-0.230802,0.002000,-0.026192,0.000000
279.000000,0.002000,0.051575,0.867277,-0.848321,-0.150504,0.915499,-0.438200,-0.190370,-2.812255,3.122240,0.002000,-0.532490,0.000000
280.000000,0.002000,-0.325669,0.470433,0.311447,0.185536,0.394428,0.725523,0.826340,-1.892260,-2.429265,0.002000,-0.657951,0.000000
281.000000,0.002000,0.239583,-0.369801,0.972536,1.495885,0.675454,0.599213,-1.206756,1.526147,-3.087537,0.002000,-0.667713,0.000000
282.000000,0.002000,2.133868,0.406415,-0.193177,-1.470237,0.606404,2.293718,-3.444097,-0.511756,0.258628,0.002000,0.022960,0.000000
283.000000,0.002000,0.755740,-0.539133,-0.749690,-0.830011,-1.019520,-0.214654,-2.785314,1.836174,2.858997,0.002000,-0.837678,0.000000
284.000000,0.002000,0.032809,-2.582797,-1.153950,1.021248,0.524750,-0.477124,-0.055360,2.162648,0.984422,0.002000,0.326963,0.000000
285.000000,0.002000,-0.347962,-1.353389,-1.032643,-0.035990,1.037039,0.672620,1.150827,2.977343,2.655722,0.002000,1.370989,0.000000
286.000000,0.002000,-0.436748,-1.642965,-0.406072,2.428877,1.005687,0.353567,0.783983,3.688924,1.177493,0.002000,0.997118,0.000000
287.000000,0.002000,-0.535270,0.025405,1.154184,0.614726,-0.348984,-0.977773,1.801272,0.156687,-3.968748,0.002000,0.051575,0.000000
288.000000,0.002000,0.172504,0.021062,0.099454,0.171957,0.490561,-1.395283,-1.550741,-1.488090,1.960730,0.002000,-0.325669,0.000000
289.000000,0.002000,0.227393,-1.016739,-0.114775,-0.522356,-0.369256,0.265642,-0.880401,3.911250,-0.209092,0.002000,0.239583,0.000000
290.000000,0.002000,0.308751,-1.370760,0.865653,-0.260466,0.445097,0.098112,-0.911698,3.901518,-2.184889,0.002000,2.133868,0.000000
291.000000,0.002000,1.081376,-0.631376,-0.241338,1.060328,-1.711168,1.657125,-3.355427,1.611552,0.595091,0.002000,0.755740,0.000000
292.000000,0.002000,-0.878190,0.699380,-1.061222,1.417674,0.050317,0.650323,2.138017,-1.921871,2.918023,0.002000,0.032809,0.000000
293.000000,0.002000,-0.222477,-0.858920,0.050954,0.606548,-0.737290,0.164665,0.979060,3.450769,-0.587872,0.002000,-0.347962,0.000000
294.000000,0.002000,-1.794229,1.326462,-0.964606,0.778174,0.309817,1.051321,2.148973,-1.672840,1.138625,0.002000,-0.436748,0.000000
295.000000,0.002000,0.059895,-0.212523,-0.762115,0.094996,0.080751,-0.767804,-0.207602,0.411916,2.916119,0.002000,-0.535270,0.000000
296.000000,0.002000,-0.887780,0.936399,-0.525641,-0.364538,-0.459718,1.705484,2.647751,-2.302984,1.596268,0.002000,0.172504,0.000000
297.000000,0.002000,0.271170,-0.801497,-0.647181,0.240506,-0.999427,0.398598,-0.237191,3.007167,2.398250,0.002000,0.227393,0.000000
298.000000,0.002000,0.472247,0.930408,-0.175316,-0.192004,-3.053764,0.479852,-2.189609,-3.465229,1.746260,0.002000,0.308751,0.000000
299.000000,0.002000,-1.421920,1.997956,-0.856549,-1.552699,0.578464,-0.961264,1.425350,-2.111225,0.838526,0.002000,1.081376,0.000000
300.000000,0.002000,-1.541587,2.594425,-0.404032,-1.458324,0.494342,-1.494194,1.107034,-1.816273,0.276768,0.002000,-0.878190,0.000000
301.000000,0.002000,-1.461733,-0.683440,0.367545,-0.446699,0.204377,0.612233,3.609673,1.698488,-0.871291,0.002000,-0.222477,0.000000
302.000000,0.002000,0.190312,-0.851729,1.822724,0.744885,-0.036281,-0.832395,-0.322666,1.545067,-3.174355,0.002000,-1.794229,0.000000
303.000000,0.002000,-0.521580,-1.184687,0.960693,1.923815,-0.605981,1.803589,1.550815,2.630662,-2.948543,0.002000,0.059895,0.000000
304.000000,0.002000,1.329063,-0.817493,-1.401347,-0.452525,1.161286,1.069966,-2.558630,0.985978,2.640037,0.002000,-0.887780,0.000000
305.000000,0.002000,1.030438,-2.047324,-1.226622,-1.045534,0.355285,0.755392,-1.006960,2.146045,1.197915,0.002000,0.271170,0.000000
306.000000,0.002000,0.967446,-0.055353,-0.263937,0.700982,-0.198937,0.301960,-3.720701,0.157037,0.999675,0.002000,0.472247,0.000000
307.000000,0.002000,0.352817,-0.152774,-1.298687,-0.394690,-1.171813,0.984012,-1.425912,0.194840,4.515553,0.002000,-1.421920,0.000000
308.000000,0.002000,1.276075,1.325014,0.205333,-0.559681,1.379758,0.602451,-2.531478,-2.927005,-0.923116,0.002000,-1.541587,0.000000
309.000000,0.002000,0.045134,2.339625,-0.276433,-0.892647,-0.161198,-0.286385,0.168820,-3.093028,0.310884,0.002000,-1.461733,0.000000
310.000000,0.002000,-0.259577,0.364481,1.471322,-0.870888,0.501430,-0.478614,1.506137,-0.295353,-4.151171,0.002000,0.190312,0.000000
311.000000,0.002000,1.592771,-0.258573,0.308331,1.631692,0.860891,-0.880189,-4.032436,0.452415,-1.164165,0.002000,-0.521580,0.000000
312.000000,0.002000,-1.378083,-0.311976,-0.840290,-0.019001,-0.226760,-1.564508,3.124310,0.614430,2.089568,0.002000,1.329063,0.000000
313.000000,0.002000,-1.006832,1.681577,-0.792287,0.931256,0.949809,0.925501,1.462610,-2.736109,1.407900,0.002000,1.030438,0.000000
314.000000,0.002000,-0.531606,0.365849,1.297825,-0.456988,1.068986,-0.209753,1.120559,-1.049462,-3.706195,0.002000,0.967446,0.000000
315.000000,0.002000,0.481115,2.759355,-0.074668,0.935148,1.812528,0.140110,-0.375697,-2.398655,0.001651,0.002000,0.352817,0.000000
316.000000,0.002000,0.258716,0.275601,1.435049,-1.419149,-0.316901,0.640986,-0.649002,-0.886029,-4.242985,0.002000,1.276075,0.000000
317.000000,0.002000,0.507239,-0.116230,-0.947489,1.219874,-1.133792,-0.190548,-1.821209,0.205278,3.504701,0.002000,0.045134,0.000000
318.000000,0.002000,0.244443,1.401345,-0.410382,0.233339,0.434998,0.910424,0.490522,-4.053424,1.460348,0.002000,-0.259577,0.000000
319.000000,0.002000,0.528944,0.246148,0.863520,-0.948440,-0.423478,1.007966,-1.822996,-0.705782,-3.560103,0.002000,1.592771,0.000000
320.000000,0.002000,-0.804754,2.346647,-1.279161,0.392335,0.448381,1.125323,0.685057,-2.008786,1.164334,0.002000,-1.378083,0.000000
321.000000,0.002000,-0.365551,0.938093,0.296733,0.104053,0.528003,-0.314564,1.453755,-3.605391,-1.003467,0.002000,-1.006832,0.000000
322.000000,0.002000,0.829986,-0.496102,-0.074805,-1.345010,-1.295258,0.074321,-3.238614,1.888205,-0.241927,0.002000,-0.531606,0.000000
323.000000,0.002000,0.012232,1.569260,0.690429,-0.199561,-0.654603,0.318014,-0.255884,-4.057438,-1.763686,0.002000,0.481115,0.000000
324.000000,0.002000,0.796672,-0.657926,0.968883,-0.890272,0.111337,-0.019523,-1.652249,1.703911,-3.577995,0.002000,0.258716,0.000000
325.000000,0.002000,0.225582,1.389145,2.014060,-0.839989,-2.298206,1.456527,-0.288390,-1.613827,-2.467267,0.002000,0.507239,0.000000
326.000000,0.002000,-0.306766,-0.406303,-0.864045,0.316637,-2.664126,-0.426429,2.178289,1.370259,3.920611,0.002000,0.244443,0.000000
327.000000,0.002000,-0.143580,-0.382025,0.359504,0.393788,-0.228141,0.580330,0.411638,1.385016,-2.377283,0.002000,0.528944,0.000000
328.000000,0.002000,-0.144567,-0.361599,1.064585,-0.973268,0.175168,-0.053484,0.549011,1.282820,-3.695815,0.002000,-0.804754,0.000000
329.000000,0.002000,-0.937880,0.433108,-0.405942,-0.183062,-0.221029,0.199760,3.670842,-1.495071,2.576399,0.002000,-0.365551,0.000000
330.000000,0.002000,0.724369,1.385262,-0.303098,0.932721,-0.530120,-0.407240,-1.995808,-3.067696,0.569415,0.002000,0.829986,0.000000
331.000000,0.002000,0.441033,0.178793,-0.799422,0.160565,-0.120150,0.385602,-1.276579,-1.206709,3.431417,0.002000,0.012232,0.000000
332.000000,0.002000,0.240788,0.289121,0.412871,0.718291,1.291189,-0.116444,-0.933570,-1.272770,-2.307934,0.002000,0.796672,0.000000
333.000000,0.002000,-0.198399,0.094192,-1.147611,-2.277298,-0.069625,0.353870,0.739676,-0.771132,4.376749,0.002000,0.225582,0.000000
334.000000,0.002000,-0.358114,0.555963,0.892474,-0.186955,-0.153236,-2.432509,1.454424,-1.932478,-3.773783,0.002000,-0.306766,0.000000
335.000000,0.002000,-0.422315,0.104714,0.228053,0.507984,-0.324032,-1.511077,2.185297,-0.589962,-1.319962,0.002000,-0.143580,0.000000
336.000000,0.002000,0.201480,0.540774,-1.818078,-0.871422,-0.864830,0.608749,-0.561041,-1.078513,3.597302,0.002000,-0.144567,0.000000
337.000000,0.002000,-0.049324,0.239034,-1.000330,0.561638,1.514750,0.647925,0.015802,-1.084865,4.090630,0.002000,-0.937880,0.000000
338.000000,0.002000,1.673986,0.161559,1.563405,-1.351649,-1.409209,1.130725,-2.352458,-0.182982,-2.212375,0.002000,0.724369,0.000000
339.000000,0.002000,-0.790523,-0.907300,0.224252,1.566686,-0.237748,0.558803,2.769009,3.181500,-0.965317,0.002000,0.441033,0.000000
340.000000,0.002000,-1.678688,0.214966,0.097219,-1.504891,-1.943922,-1.174024,4.175799,-0.431473,-0.094974,0.002000,0.240788,0.000000
341.000000,0.002000,1.015665,0.701041,-0.417477,-0.357188,-0.521376,-0.230114,-4.093611,-1.954235,2.028537,0.002000,-0.198399,0.000000
342.000000,0.002000,-1.097497,1.712305,-0.792115,-0.491014,0.679301,1.427547,1.850776,-2.737770,1.278799,0.002000,-0.358114,0.000000
343.000000,0.002000,-1.045525,-1.084856,1.117305,0.036197,2.029997,-0.634405,2.156895,2.144643,-2.169667,0.002000,-0.422315,0.000000
344.000000,0.002000,-0.518900,-0.753704,0.137690,-0.525103,0.387735,-0.354799,2.707586,4.253156,-0.376441,0.002000,0.201480,0.000000
345.000000,0.002000,-0.206945,-0.678095,0.753991,1.177052,-0.641108,1.322694,0.948331,2.453845,-2.843793,0.002000,-0.049324,0.000000
346.000000,0.002000,1.065315,0.985318,0.766920,0.194175,2.565453,-0.464115,-2.632214,-2.610686,-1.903132,0.002000,1.673986,0.000000
347.000000,0.002000,0.402626,-1.775888,1.669251,-0.202694,0.145652,-2.181028,-0.498938,2.017013,-2.002787,0.002000,-0.790523,0.000000
348.000000,0.002000,0.301989,0.608156,1.114962,0.602265,0.480846,0.109318,-1.241147,-2.116001,-3.814768,0.002000,-1.678688,0.000000
349.000000,0.002000,1.433353,0.418398,0.435546,-1.544396,-1.546561,0.586619,-3.746718,-0.893808,-1.036552,0.002000,1.015665,0.000000
350.000000,0.002000,-0.599224,0.033090,-0.854161,1.175179,1.594465,-0.895442,3.593905,-1.208019,4.236552,0.002000,-1.097497,0.000000
351.000000,0.002000,-0.719941,-0.893574,-0.156024,-1.030798,-0.271939,-1.975730,2.678681,3.548077,0.355018,0.002000,-1.045525,0.000000
352.000000,0.002000,1.049093,3.170975,0.189500,-0.588931,0.851790,1.634603,-0.563317,-1.676962,-0.125155,0.002000,-0.518900,0.000000
353.000000,0.002000,-1.348413,1.264983,-0.300784,0.279155,1.640554,0.410873,2.777224,-2.620157,0.691528,0.002000,-0.206945,0.000000
354.000000,0.002000,-0.660609,0.209849,-1.240625,0.191364,-0.171441,0.186937,1.935878,-0.746448,3.417140,0.002000,1.065315,0.000000
355.000000,0.002000,0.222463,-0.088376,0.098378,-0.254853,-0.140911,-0.661892,-1.182931,1.096490,-0.354017,0.002000,0.402626,0.000000
356.000000,0.002000,0.381416,0.067492,0.016338,0.259032,0.014448,-1.479580,-2.667425,-1.284454,0.160942,0.002000,0.301989,0.000000
357.000000,0.002000,0.284315,0.415401,-1.031482,-0.240701,-0.855671,-2.048200,-1.034459,-1.307590,3.564531,0.002000,1.433353,0.000000
358.000000,0.002000,-1.429991,-0.061638,-1.432735,0.483884,1.558688,2.369730,2.278509,-0.256211,2.205418,0.002000,-0.599224,0.000000
359.000000,0.002000,0.087531,0.938747,0.607112,1.562420,-0.870802,1.175245,-0.472703,-3.611814,-1.698773,0.002000,-0.719941,0.000000
360.000000,0.002000,-1.048170,-0.860262,0.328301,1.119899,-1.987830,0.861289,3.278748,2.418909,-1.388321,0.002000,1.049093,0.000000
361.000000,0.002000,-0.401298,-0.316655,0.596906,0.627177,0.162808,0.288617,1.453424,0.992323,-3.494052,0.002000,-1.348413,0.000000
362.000000,0.002000,-0.987287,-0.401235,-0.800082,0.058307,1.631936,-0.401789,3.034701,1.228595,2.369879,0.002000,-0.660609,0.000000
363.000000,0.002000,-1.043129,-0.857078,0.677462,-0.199939,0.007389,0.275664,3.140692,2.366715,-2.081919,0.002000,0.222463,0.000000
364.000000,0.002000,0.051820,-0.879161,-0.231102,-1.763250,1.387974,0.226200,-0.364724,3.915937,0.851966,0.002000,0.381416,0.000000
365.000000,0.002000,-1.638807,-0.733313,2.149575,0.569125,0.197316,-0.186441,1.468711,0.631427,-1.883380,0.002000,0.284315,0.000000
366.000000,0.002000,-0.090244,0.731659,-0.065488,-0.355242,0.096114,0.152052,-0.375598,-3.020015,1.177556,0.002000,-1.429991,0.000000
367.000000,0.002000,0.348169,0.663258,-1.104617,1.155262,0.346058,-0.133489,-0.986245,-2.317050,3.401170,0.002000,0.087531,0.000000
368.000000,0.002000,-0.030936,1.578865,-0.795501,1.986565,-1.279426,-1.340209,0.407247,-3.618582,2.200711,0.002000,-1.048170,0.000000
369.000000,0.002000,-0.566440,-0.307691,0.269024,0.354602,-0.212373,-1.774596,2.930122,0.592247,-0.899356,0.002000,-0.401298,0.000000
370.000000,0.002000,0.524918,1.267412,0.499498,-0.312230,-0.710656,1.131129,-2.519474,-3.311437,-0.351495,0.002000,-0.987287,0.000000
371.000000,0.002000,-0.062053,1.259167,0.704111,-0.621252,1.050615,0.459782,0.101042,-3.583370,-2.472941,0.002000,-1.043129,0.000000
372.000000,0.002000,-1.495680,2.526368,1.769921,-0.206331,0.021172,0.428659,0.722799,-1.253663,-0.873144,0.002000,0.051820,0.000000
373.000000,0.002000,-0.168214,0.377910,1.324359,-2.308039,0.327068,-0.379120,0.589656,-0.552920,-4.191123,0.002000,-1.638807,0.000000
374.000000,0.002000,-0.172201,0.730352,1.104578,1.797919,-0.691269,1.142564,0.356094,-2.567394,-3.371641,0.002000,-0.090244,0.000000
375.000000,0.002000,-1.014826,-0.602332,0.921408,-2.514925,0.814625,0.276103,2.746919,1.758202,-2.664301,0.002000,0.348169,0.000000
376.000000,0.002000,0.460814,0.923797,-0.132568,-0.247016,-0.120889,-0.260561,-1.690546,-3.174526,-0.038395,0.002000,-0.030936,0.000000
377.000000,0.002000,-0.289005,-1.998639,-1.146000,0.423003,-0.134249,-1.787738,0.506186,2.853806,1.551205,0.002000,-0.566440,0.000000
378.000000,0.002000,0.047066,0.824557,0.531178,-0.185811,2.234722,0.046846,-0.381634,-3.141530,-2.162559,0.002000,0.524918,0.000000
379.000000,0.002000,-0.128242,-0.271772,0.217180,0.290788,-0.438055,0.174054,0.867062,1.641860,-1.400822,0.002000,-0.062053,0.000000
380.000000,0.002000,0.078211,1.404546,0.146441,0.177946,-0.261202,0.863263,2.323332,-4.847504,1.023315,0.002000,-1.495680,0.000000
381.000000,0.002000,-1.481246,-1.272558,1.518759,-0.923078,-0.130195,0.505054,1.257722,1.502189,-1.498523,0.002000,-0.168214,0.000000
382.000000,0.002000,-1.171160,0.764497,-0.268373,-0.267004,-1.223880,0.558264,4.312712,-1.964884,0.288444,0.002000,-0.172201,0.000000
383.000000,0.002000,-0.169758,-0.134133,1.221385,-0.982161,-0.447308,-0.828148,0.609527,0.558784,-4.336227,0.002000,-1.014826,0.000000
384.000000,0.002000,-0.192842,-0.033319,-1.530803,-0.110728,-0.429386,-0.474590,0.605285,-0.022797,4.436293,0.002000,0.460814,0.000000
385.000000,0.002000,0.206691,0.531043,0.239146,0.680979,1.762609,-0.357514,-0.592960,-1.398918,-0.697826,0.002000,-0.289005,0.000000
386.000000,0.002000,1.397896,0.055171,0.298977,0.522655,-0.355413,0.098942,-4.192975,-0.173192,-0.770515,0.002000,0.047066,0.000000
387.000000,0.002000,1.648504,-1.550014,-0.455825,1.127751,0.050293,-0.815547,-2.375465,2.178041,0.675584,0.002000,-0.128242,0.000000
388.000000,0.002000,1.426159,0.936129,0.678380,-0.729927,-0.616746,-0.013304,-2.693884,-1.956844,-1.246537,0.002000,0.078211,0.000000
389.000000,0.002000,0.832651,0.327066,1.631597,0.858011,-1.358797,-1.037289,-2.085668,-1.321416,-3.323032,0.002000,-1.481246,0.000000
390.000000,0.002000,0.377759,0.239867,0.158959,-0.924541,-1.749405,1.325923,-2.203878,-1.243225,-0.358223,0.002000,-1.171160,0.000000
391.000000,0.002000,0.192864,-1.157017,0.770673,-0.036379,1.900779,-1.424334,-0.620207,3.534048,-2.441461,0.002000,-0.169758,0.000000
392.000000,0.002000,-0.130440,1.821915,-0.075650,1.294182,-0.701649,-0.407370,0.387935,-3.984272,0.177157,0.002000,-0.192842,0.000000
393.000000,0.002000,0.420918,0.246602,-0.625557,-0.988964,-0.949864,-1.323745,-1.316031,-1.247076,2.959583,0.002000,0.206691,0.000000
394.000000,0.002000,0.992137,1.905064,-0.014777,0.216333,-1.314201,-0.241802,-1.660731,-3.065033,0.066786,0.002000,1.397896,0.000000
395.000000,0.002000,-0.300479,-0.355029,-1.892362,-0.009202,0.666611,0.100392,0.577909,0.610112,3.784754,0.002000,1.648504,0.000000
396.000000,0.002000,-0.177813,0.250998,1.054758,0.321326,0.514412,-0.017251,0.342396,-1.035469,-4.335624,0.002000,1.426159,0.000000
397.000000,0.002000,0.960048,-0.416499,-0.276823,0.363348,-0.979720,-0.775470,-3.805102,1.265488,1.322748,0.002000,0.832651,0.000000
398.000000,0.002000,1.123905,-0.173464,-0.510030,1.897511,-0.011734,-0.710501,-4.224991,0.586443,1.826104,0.002000,0.377759,0.000000
399.000000,0.002000,1.392518,1.037586,0.018792,1.379880,-0.156843,-0.646491,-2.817512,-2.697723,0.290145,0.002000,0.192864,0.000000
400.000000,0.002000,-0.593777,-2.011880,0.589704,-1.448992,0.779492,-1.086301,0.917057,3.131260,-0.996678,0.002000,-0.130440,0.000000
401.000000,0.002000,-0.896370,-1.962732,1.584821,-0.539033,0.644100,0.183634,0.803817,1.935218,-1.639925,0.002000,0.420918,0.000000
402.000000,0.002000,0.647968,-1.139008,-1.214401,-0.086427,-0.213988,1.145927,-1.733039,2.385079,2.670310,0.002000,0.992137,0.000000
403.000000,0.002000,0.870962,-0.877971,1.296150,2.230274,-0.548761,0.568904,-1.856612,1.799497,-2.888488,0.002000,-0.300479,0.000000
404.000000,0.002000,0.616459,0.536597,0.404695,1.928800,1.079057,-0.686832,-3.121351,-2.566881,-1.264203,0.002000,-0.177813,0.000000
405.000000,0.002000,0.191451,0.880511,-0.454080,-0.430681,-0.597969,-0.913443,-1.488280,-3.534476,2.662052,0.002000,0.960048,0.000000
406.000000,0.002000,0.085952,0.751947,0.562990,-0.623905,0.261875,-0.587029,-0.661803,-2.981396,-2.298942,0.002000,1.123905,0.000000
407.000000,0.002000,-1.194987,-0.500410,0.252804,0.876200,0.123255,-0.397126,3.968538,1.645427,-1.018491,0.002000,1.392518,0.000000
408.000000,0.002000,-0.408015,1.774659,-0.393153,0.886090,0.318972,0.264868,0.739195,-3.957624,0.823747,0.002000,-0.593777,0.000000
409.000000,0.002000,-0.162218,0.769430,0.330533,1.040038,0.573265,-0.108898,0.694456,-2.924594,-1.875204,0.002000,-0.896370,0.000000
410.000000,0.002000,-0.145274,-0.756494,0.301514,0.937555,0.309318,2.917309,-1.322441,3.952621,-1.951964,0.002000,0.647968,0.000000
411.000000,0.002000,1.039096,0.479095,-0.778184,1.098689,1.153213,1.290993,-3.278403,-1.726119,2.613145,0.002000,0.870962,0.000000
412.000000,0.002000,1.736775,-1.446578,-1.582686,0.079840,1.312895,0.023357,-1.565409,1.303812,1.384479,0.002000,0.616459,0.000000
413.000000,0.002000,0.960557,0.225840,-0.549499,-0.831173,-0.563986,0.527951,-3.248826,-0.630420,2.187611,0.002000,0.191451,0.000000
414.000000,0.002000,-1.098571,2.320800,0.117091,-1.561120,0.208353,-0.728350,1.064332,-2.598782,-0.198947,0.002000,0.085952,0.000000
415.000000,0.002000,0.534201,0.317885,0.434808,0.718216,-0.746174,1.872303,-2.908358,-0.528633,-1.734313,0.002000,-1.194987,0.000000
416.000000,0.002000,0.540094,0.732424,-0.375222,0.767818,-1.268859,1.758759,-1.890328,-2.741045,1.617841,0.002000,-0.408015,0.000000
417.000000,0.002000,-0.291642,-1.741023,-0.780304,-0.227253,-0.727476,-1.023799,0.775835,3.444603,1.566051,0.002000,-0.162218,0.000000
418.000000,0.002000,0.271113,1.045023,0.599040,0.567765,1.504522,-0.578427,-1.116854,-4.309005,-2.641425,0.002000,-0.145274,0.000000
419.000000,0.002000,-0.340692,-1.263173,-2.777359,-0.997621,-1.139700,1.496405,0.249751,0.927114,1.940417,0.002000,1.039096,0.000000
420.000000,0.002000,1.151734,-0.589229,-0.448465,1.670729,-0.348471,0.537705,-3.408041,1.695447,1.263031,0.002000,1.736775,0.000000
421.000000,0.002000,0.131574,-1.405560,-0.349782,-0.002905,-0.060630,0.964023,-0.046464,3.964024,0.814868,0.002000,0.960557,0.000000
422.000000,0.002000,2.023472,0.505387,0.359249,0.440956,0.329490,-0.292579,-3.502721,-0.699149,-0.714273,0.002000,-1.098571,0.000000
423.000000,0.002000,-1.582494,2.243602,-1.422795,0.815600,-0.282006,0.049922,1.047660,-1.475768,0.960512,0.002000,0.534201,0.000000
424.000000,0.002000,1.922325,-2.115056,1.405365,0.219477,-1.201156,-0.299095,-1.150580,1.249125,-0.844992,0.002000,0.540094,0.000000
425.000000,0.002000,1.618054,-0.824409,0.422580,-0.312603,0.101203,-1.111818,-3.291414,1.880727,-0.918743,0.002000,-0.291642,0.000000
426.000000,0.002000,0.547481,-0.813794,-1.449118,-1.186552,1.623462,1.156444,-1.271519,1.932633,3.424118,0.002000,0.271113,0.000000
427.000000,0.002000,-1.317717,0.541008,-0.085116,0.889039,1.824819,0.419595,3.302739,-1.868483,-0.345547,0.002000,-0.340692,0.000000
428.000000,0.002000,-0.564301,0.966768,0.508068,-0.091079,0.482176,-1.879287,2.361858,-3.637366,-1.990532,0.002000,1.151734,0.000000
429.000000,0.002000,-0.755463,-1.201202,0.523262,-1.098083,0.758637,0.032615,2.014291,3.184801,-1.191087,0.002000,0.131574,0.000000
430.000000,0.002000,-0.537583,0.099205,1.576299,-1.277636,0.658537,0.998902,6.403091,0.604659,0.785634,0.002000,2.023472,0.000000
431.000000,0.002000,0.502328,-0.862267,0.160661,0.667880,-0.030297,-0.836049,-1.956658,3.057672,-0.504785,0.002000,-1.582494,0.000000
432.000000,0.002000,-0.952645,1.608522,-0.561579,0.107595,0.426924,-0.358589,1.869501,-3.189578,1.202906,0.002000,1.922325,0.000000
433.000000,0.002000,0.207271,0.307733,0.159250,0.603036,0.314432,0.333115,-1.357032,-0.818219,-1.098414,0.002000,1.618054,0.000000
434.000000,0.002000,-1.958549,-1.446421,-0.452350,-2.032540,1.081093,1.724392,2.269385,1.697004,0.507268,0.002000,0.547481,0.000000
435.000000,0.002000,0.319432,-0.137779,-0.957147,-0.402468,-1.476899,0.638929,-1.384726,-0.217706,3.367739,0.002000,-1.317717,0.000000
436.000000,0.002000,-1.348424,-0.401558,-0.468476,-0.465660,-0.967012,1.217716,3.546654,1.392631,1.603642,0.002000,-0.564301,0.000000
437.000000,0.002000,0.512836,-0.326318,0.602708,-1.383379,0.717429,-1.247734,-1.760916,1.115137,-3.070305,0.002000,-0.755463,0.000000
438.000000,0.002000,-0.594650,-0.255958,-0.348046,1.462268,0.516552,-0.257395,3.326707,1.194796,1.518872,0.002000,-0.537583,0.000000
439.000000,0.002000,-0.782367,0.625119,-0.813596,0.149370,0.582087,0.829894,2.525257,-2.010182,2.846442,0.002000,0.502328,0.000000
440.000000,0.002000,-0.521642,-0.073120,-1.297380,0.827791,0.546730,-0.477382,1.627858,0.636581,4.910615,0.002000,-0.952645,0.000000
441.000000,0.002000,-0.324935,-0.711306,-0.388154,0.664080,-1.311324,1.004093,5.076837,3.171963,1.147999,0.002000,0.207271,0.000000
442.000000,0.002000,-0.059928,-0.799914,-0.220076,0.873006,1.394081,-0.588780,0.229114,3.960725,0.738843,0.002000,-1.958549,0.000000
443.000000,0.002000,1.308669,-0.025799,1.145262,0.186212,0.858286,0.317858,-2.584793,0.127531,-3.594508,0.002000,0.319432,0.000000
444.000000,0.002000,0.346494,0.774161,-0.774459,-0.426667,0.307331,0.068032,-1.127809,-2.860412,2.878133,0.002000,-1.348424,0.000000
445.000000,0.002000,0.104907,0.133913,-0.612626,0.995704,-0.628463,0.339488,-1.292789,-1.055605,3.220146,0.002000,0.512836,0.000000
446.000000,0.002000,-0.822828,-1.490265,1.496140,0.292931,0.757328,-0.072892,1.186103,2.073943,-2.154817,0.002000,-0.594650,0.000000
447.000000,0.002000,-0.972403,1.346221,-0.467493,0.127315,-0.070950,0.034066,2.203655,-3.011667,1.088428,0.002000,-0.782367,0.000000
448.000000,0.002000,-0.862493,0.622519,-0.631192,0.008359,-0.326745,2.827300,2.949608,-1.926940,2.409141,0.002000,-0.521642,0.000000
449.000000,0.002000,0.568459,-0.332812,0.480424,-0.843911,-1.173410,-0.795627,-2.002275,1.197611,-2.298152,0.002000,-0.324935,0.000000
450.000000,0.002000,-0.968186,0.831351,0.487973,-0.710053,0.011437,1.430933,3.114699,-2.933162,-1.543514,0.002000,-0.059928,0.000000
451.000000,0.002000,-0.919651,2.642936,0.540123,1.688384,0.237324,-2.498213,0.748636,-2.170318,-0.456265,0.002000,1.308669,0.000000
452.000000,0.002000,2.290467,1.600268,-0.188835,0.384359,-1.310655,-0.500702,-1.957240,-1.393269,0.239470,0.002000,0.346494,0.000000
453.000000,0.002000,-0.412272,-0.403459,-1.830029,-1.149723,0.425623,-0.626607,1.001777,0.700192,3.771918,0.002000,0.104907,0.000000
454.000000,0.002000,-0.695835,0.246766,1.525958,0.772120,0.477302,-0.240070,1.489180,-0.253774,-3.734178,0.002000,-0.822828,0.000000
455.000000,0.002000,-0.772772,0.882057,-1.252593,0.080560,0.917420,-0.372132,1.757621,-1.828039,2.778731,0.002000,-0.972403,0.000000
456.000000,0.002000,-0.586320,-0.457641,0.371811,0.915619,-0.019316,0.269397,2.389800,2.100168,-1.633319,0.002000,-0.862493,0.000000
457.000000,0.002000,0.457310,0.962342,0.770837,0.799241,1.331533,0.520812,-1.348604,-0.862950,-3.499483,0.002000,0.568459,0.000000
458.000000,0.002000,0.243168,0.390365,1.588531,0.058372,0.720686,-1.545448,-0.769039,-1.065660,-3.849208,0.002000,-0.968186,0.000000
459.000000,0.002000,-0.510926,0.774728,-1.808144,1.638962,-1.325491,0.903709,0.706723,-1.413858,3.120149,0.002000,-0.919651,0.000000
460.000000,0.002000,0.411334,-0.483250,0.002571,-0.564164,0.507252,-0.116567,-0.860232,2.144434,-0.891752,0.002000,2.290467,0.000000
461.000000,0.002000,1.040086,0.164644,0.885188,0.303590,-0.800787,-2.160628,-3.988699,-0.260074,-2.808056,0.002000,-0.412272,0.000000
462.000000,0.002000,1.473765,0.389094,1.171041,0.406656,-0.600504,-0.648636,-3.077194,-0.677021,-2.724911,0.002000,-0.695835,0.000000
463.000000,0.002000,-0.326561,-0.008210,-0.522619,-0.725323,1.984411,-0.582192,1.173124,0.145230,3.090111,0.002000,-0.772772,0.000000
464.000000,0.002000,1.042978,0.414091,-0.507234,0.326813,-1.160443,1.523097,-3.549123,-1.567449,1.361833,0.002000,-0.586320,0.000000
465.000000,0.002000,0.154669,1.041568,-0.039268,-0.556268,-2.600642,2.711950,-0.648117,-3.749003,0.392857,0.002000,0.457310,0.000000
466.000000,0.002000,-0.948933,0.131912,-1.980566,-1.098149,1.308932,0.733073,1.469329,-0.212380,2.864907,0.002000,0.243168,0.000000
467.000000,0.002000,0.768771,-0.421328,-0.469311,0.652180,-0.231485,0.189199,-3.351107,4.059429,1.500018,0.002000,-0.510926,0.000000
468.000000,0.002000,0.875696,-1.365163,1.947099,1.223936,-0.300931,0.251310,-1.008860,1.470347,-2.146882,0.002000,0.411334,0.000000
469.000000,0.002000,-0.480242,-0.523251,1.021225,0.928290,0.083389,-0.424983,1.396533,1.762571,-3.404517,0.002000,1.040086,0.000000
470.000000,0.002000,0.708695,2.451230,-0.211206,1.451679,0.341689,-0.125173,-0.775538,-2.596214,0.286201,0.002000,1.473765,0.000000
471.000000,0.002000,-0.120407,-1.479316,-0.332102,-0.775895,-1.005597,0.893784,0.426215,4.352234,0.885007,0.002000,-0.326561,0.000000
472.000000,0.002000,-0.721431,-0.448767,-1.744188,0.949268,-2.170711,-0.615492,1.389131,0.757924,3.572883,0.002000,1.042978,0.000000
473.000000,0.002000,1.660608,-1.416603,-2.802203,0.964888,2.424307,2.150354,-0.747567,0.616880,1.259779,0.002000,0.154669,0.000000
474.000000,0.002000,-1.188424,-0.603840,-1.149554,0.941866,1.373332,-0.527419,2.530693,0.962563,2.481598,0.002000,-0.948933,0.000000
475.000000,0.002000,1.098304,-0.137839,0.025386,0.774535,-1.237165,-0.561876,-4.423918,0.321449,-0.445660,0.002000,0.768771,0.000000
476.000000,0.002000,0.610392,0.286013,0.978567,0.320971,2.167937,0.747963,-1.934419,-1.251407,-3.811588,0.002000,0.875696,0.000000
477.000000,0.002000,-1.109478,-0.547518,0.665967,0.273827,-0.170084,-1.322443,3.275790,1.588610,-2.181050,0.002000,-0.480242,0.000000
478.000000,0.002000,-2.534554,-1.375184,0.500992,0.602863,-0.349094,0.239045,1.923573,0.987417,-0.546417,0.002000,0.708695,0.000000
479.000000,0.002000,-0.480249,0.936108,0.809180,-0.889331,0.121255,-1.537029,1.914464,-3.112854,-2.084687,0.002000,-0.120407,0.000000
480.000000,0.002000,-1.198093,0.406657,1.201698,0.503906,1.319726,0.913951,2.405280,-1.135081,-2.871662,0.002000,-0.721431,0.000000
481.000000,0.002000,0.147434,-0.977465,0.879390,2.113824,0.324554,0.505363,-0.682326,2.761240,-2.962599,0.002000,1.660608,0.000000
482.000000,0.002000,0.635425,0.542611,0.715939,0.514865,-0.879730,2.153233,-2.526414,-1.981977,-3.196052,0.002000,-1.188424,0.000000
483.000000,0.002000,-2.994613,0.880938,1.808132,0.988578,-0.242826,-0.902832,1.270976,-0.377532,-0.757619,0.002000,1.098304,0.000000
484.000000,0.002000,0.436638,0.192729,0.696439,0.581509,0.857548,0.137885,-1.718978,-0.594245,-3.351343,0.002000,0.610392,0.000000
485.000000,0.002000,0.338225,0.651781,0.001471,0.186075,-0.188117,-0.002747,-1.560186,-2.214050,0.363555,0.002000,-1.109478,0.000000
486.000000,0.002000,-0.766705,-1.004323,-0.998192,1.335141,1.400618,-1.500177,2.121118,2.523853,2.673011,0.002000,-2.534554,0.000000
487.000000,0.002000,-1.373043,-1.067742,1.761266,0.138879,-1.204101,-1.335695,2.072206,1.409802,-2.119491,0.002000,-0.480249,0.000000
488.000000,0.002000,0.754096,-0.625027,-0.390393,0.585953,-0.841569,-3.153357,-2.939911,2.634861,1.612977,0.002000,-1.198093,0.000000
489.000000,0.002000,0.112558,-0.655545,0.067517,0.645153,1.282142,2.038777,-0.410880,3.273246,-0.929789,0.002000,0.147434,0.000000
490.000000,0.002000,0.777604,-0.035743,0.336016,-0.396293,1.445445,-2.621012,-3.170484,0.030832,-1.825157,0.002000,0.635425,0.000000
491.000000,0.002000,0.886492,-0.272132,0.284791,-1.043400,0.518969,0.471534,-3.738269,1.689165,-1.405992,0.002000,-2.994613,0.000000
492.000000,0.002000,-0.309378,-0.028529,-0.324730,1.320418,0.956689,-0.081570,1.578870,-0.307833,1.314242,0.002000,0.436638,0.000000
493.000000,0.002000,-0.528870,0.173712,0.566545,1.529248,0.686483,1.717089,3.021838,-0.978298,-2.162438,0.002000,0.338225,0.000000
494.000000,0.002000,0.146304,0.498727,-0.737932,-0.804277,0.300254,-0.429596,-0.707091,-2.016761,3.241761,0.002000,-0.766705,0.000000
495.000000,0.002000,-1.203735,0.417044,0.687881,0.805913,-0.219552,-0.251852,3.384399,-1.415380,-1.823456,0.002000,-1.373043,0.000000
496.000000,0.002000,0.049857,1.348036,0.907699,-1.326490,0.308204,1.115489,-0.295993,-3.584382,-2.667697,0.002000,0.754096,0.000000
497.000000,0.002000,2.680571,-0.200809,-0.998849,1.008196,-3.016032,-1.619646,-2.179526,0.163214,0.807972,0.002000,0.112558,0.000000
498.000000,0.002000,-0.740137,-0.565498,0.476031,2.005141,-0.187626,-0.148941,2.723416,3.605485,-2.756318,0.002000,0.777604,0.000000
499.000000,0.002000,-2.158069,1.318551,-0.239297,1.165335,0.196645,-0.632590,2.455968,-1.488014,0.306204,0.002000,0.886492,0.000000
500.000000,0.002000,-0.246794,-1.079343,-0.114226,-0.209847,1.897161,-1.381391,3.197902,4.367201,0.420990,0.002000,-0.309378,0.000000
501.000000,0.002000,0.013240,-0.121945,0.339059,1.301225,-0.312392,-0.271229,-0.450151,0.620680,-2.287377,0.002000,-0.528870,0.000000
502.000000,0.002000,-0.589632,-0.895816,0.548328,1.862913,-0.642874,0.835058,2.021379,3.166020,-1.982595,0.002000,0.146304,0.000000
503.000000,0.002000,0.098667,0.197181,1.059027,-0.363053,-1.432067,-0.166020,-1.195643,-0.731823,-4.715128,0.002000,-1.203735,0.000000
504.000000,0.002000,-1.022564,-0.855240,1.257220,1.168926,-0.185892,0.549422,2.142114,1.867928,-2.628028,0.002000,0.049857,0.000000
505.000000,0.002000,-1.482883,-1.309412,0.817862,0.188553,0.046831,-0.417498,2.442996,2.072179,-1.380692,0.002000,2.680571,0.000000
506.000000,0.002000,0.238200,0.105232,-0.091659,0.131782,-2.032893,-0.448322,-1.115467,-1.038896,1.237577,0.002000,-0.740137,0.000000
507.000000,0.002000,0.031268,-0.092112,1.355443,-1.803944,0.269699,0.354660,-0.020877,-0.291874,-5.508175,0.002000,-2.158069,0.000000
508.000000,0.002000,-0.398148,-0.161374,1.794449,-0.796065,0.801308,0.395831,0.618218,0.282588,-3.710163,0.002000,-0.246794,0.000000
509.000000,0.002000,0.027510,2.232016,-0.104980,0.293572,-0.361404,0.472793,-0.085924,-3.346438,0.143945,0.002000,0.013240,0.000000
510.000000,0.002000,1.367415,-1.655344,0.153644,1.054207,-0.660443,-0.816844,-2.190826,2.632786,-0.315749,0.002000,-0.589632,0.000000
511.000000,0.002000,-1.584474,0.844454,-1.212868,1.189011,-2.318428,-2.617290,2.920654,-1.570103,2.121172,0.002000,0.098667,0.000000
512.000000,0.002000,0.283770,-0.282196,-1.158203,-1.814727,0.181741,0.152374,-1.209182,1.714194,3.669395,0.002000,-1.022564,0.000000
513.000000,0.002000,-1.619360,-0.511040,1.740629,0.496505,0.075977,1.537380,2.049910,0.669515,-2.084378,0.002000,-1.482883,0.000000
514.000000,0.002000,-0.293485,0.917222,-0.057043,1.575783,1.159011,-1.155800,1.811255,-4.103614,0.683502,0.002000,0.238200,0.000000
515.000000,0.002000,0.876727,-1.826911,-0.403188,0.363578,-0.866203,-0.500710,-1.306699,3.366220,0.714123,0.002000,0.031268,0.000000
516.000000,0.002000,0.949406,-0.163255,-0.086455,-1.023362,0.010712,0.544124,-3.859095,2.970876,-2.650665,0.002000,-0.398148,0.000000
517.000000,0.002000,-0.430462,1.149379,0.297514,0.078692,-1.193369,-1.526035,1.819917,-3.844547,-1.379336,0.002000,0.027510,0.000000
518.000000,0.002000,0.044022,0.643055,0.588225,-0.762085,-0.777638,0.784273,-0.716718,-3.219966,-2.462440,0.002000,1.367415,0.000000
519.000000,0.002000,0.212587,1.547031,-0.060288,-0.319281,-0.188666,-0.156935,-0.299184,-4.003568,0.384791,0.002000,-1.584474,0.000000
520.000000,0.002000,0.278081,-0.642953,0.150115,1.096848,1.636115,0.427059,-1.787737,2.681614,-0.848677,0.002000,0.283770,0.000000
521.000000,0.002000,1.587762,-0.643258,-1.133593,-0.248306,1.402502,0.438241,-2.763732,1.036423,2.075035,0.002000,-1.619360,0.000000
522.000000,0.002000,0.996760,-0.148766,0.096004,-0.421097,1.010574,0.207230,-4.450937,0.391467,-0.786772,0.002000,-0.293485,0.000000
523.000000,0.002000,-0.045113,0.079122,0.850531,-1.434031,0.626906,0.299825,0.058900,-0.098262,-2.859863,0.002000,0.876727,0.000000
524.000000,0.002000,-0.839124,-1.011774,0.084968,-1.856641,-2.151043,0.136301,1.700262,2.947954,0.188564,0.002000,0.949406,0.000000
525.000000,0.002000,-1.606440,-1.373054,1.866683,0.683356,0.608580,-1.360980,1.387683,1.186660,-1.633183,0.002000,-0.430462,0.000000
526.000000,0.002000,0.757468,-0.010056,1.238007,-0.347010,0.666590,-1.535752,-2.580227,0.220390,-3.635057,0.002000,0.044022,0.000000
527.000000,0.002000,-1.040599,-0.315603,0.623454,0.085283,0.213329,0.923756,3.560495,0.916545,-2.441215,0.002000,0.212587,0.000000
528.000000,0.002000,0.890672,0.512917,-2.541239,-2.453892,0.144987,2.018122,-0.760513,-0.554255,2.272304,0.002000,0.278081,0.000000
529.000000,0.002000,-0.968082,0.477068,-0.355951,-0.621207,-0.316239,0.953992,3.920119,-2.152572,1.611241,0.002000,1.587762,0.000000
530.000000,0.002000,2.540232,0.926558,0.558082,-0.763143,1.156955,0.540533,-2.347437,-0.850709,-0.556714,0.002000,0.996760,0.000000
531.000000,0.002000,-1.116950,-0.035297,0.241204,-1.574073,0.100593,-1.458982,2.622015,-0.098714,-0.821409,0.002000,-0.045113,0.000000
532.000000,0.002000,1.127784,0.881131,1.032989,0.952548,-1.680674,-1.811754,-2.591971,-2.171351,-2.541285,0.002000,-0.839124,0.000000
533.000000,0.002000,-0.923912,1.412152,-1.380431,-1.137304,-0.803073,1.314941,1.230851,-2.068277,2.268491,0.002000,-1.606440,0.000000
534.000000,0.002000,-0.535915,0.430771,-0.149892,-0.018258,0.291005,1.074900,2.299405,-2.567068,0.448066,0.002000,0.757468,0.000000
535.000000,0.002000,-1.006037,-0.821550,-1.548254,-0.697810,-0.578326,-0.847453,1.844235,1.534855,2.888827,0.002000,-1.040599,0.000000
536.000000,0.002000,0.531975,1.260569,-0.100394,0.784905,1.633276,0.258742,-1.832974,-4.230416,-0.060532,0.002000,0.890672,0.000000
537.000000,0.002000,-0.400349,-1.472323,0.913202,-0.623280,-0.520361,-1.112314,0.806640,3.386378,-2.020773,0.002000,-0.968082,0.000000
538.000000,0.002000,2.211304,-1.797456,-1.063433,0.731145,-1.062929,-0.254633,-1.509758,1.257049,0.698409,0.002000,2.540232,0.000000
539.000000,0.002000,-0.679593,-0.564318,0.227346,-1.168961,-1.899463,-2.539955,3.047986,2.424525,-0.873814,0.002000,-1.116950,0.000000
540.000000,0.002000,1.614250,1.008597,0.527597,-0.889962,0.218078,-0.317816,-2.945763,-2.004580,-0.995220,0.002000,1.127784,0.000000
541.000000,0.002000,-0.723929,-1.119628,-0.796775,-0.223575,-1.071380,-0.931682,0.876347,3.093754,2.774253,0.002000,-0.923912,0.000000
542.000000,0.002000,1.548067,-0.061743,-0.446836,-1.067702,0.211234,2.047655,-4.254741,0.418374,0.902580,0.002000,-0.535915,0.000000
543.000000,0.002000,-0.183756,0.824618,-1.312850,-0.136373,-1.369280,1.272623,0.737932,-2.108675,3.634984,0.002000,-1.006037,0.000000
544.000000,0.002000,1.414874,0.156476,-0.216344,-0.998566,0.557533,-0.442655,-4.389278,-0.520913,0.870490,0.002000,0.531975,0.000000
545.000000,0.002000,0.442846,0.218397,-0.344196,0.081083,3.432663,-0.747526,-1.419041,-1.326077,1.108294,0.002000,-0.400349,0.000000
546.000000,0.002000,-0.252711,-0.868863,0.656391,-0.586680,0.375235,-0.021947,1.710957,3.389034,-2.207894,0.002000,2.211304,0.000000
547.000000,0.002000,-0.531994,-0.956258,0.165864,-0.406071,-0.688408,0.590494,2.397160,3.629624,-0.686893,0.002000,-0.679593,0.000000
548.000000,0.002000,1.329141,-0.048345,-0.608101,1.077377,-0.952084,-1.136433,-4.099339,0.041733,1.696587,0.002000,1.614250,0.000000
549.000000,0.002000,0.403896,1.936712,-1.451906,1.829906,-1.425156,0.715333,-0.496679,-2.373789,1.931132,0.002000,-0.723929,0.000000
550.000000,0.002000,0.382203,0.205087,1.161534,0.439127,-1.102970,0.759494,-1.761777,-0.654980,-3.821166,0.002000,1.548067,0.000000
551.000000,0.002000,0.990909,-0.186709,-1.684517,-1.103216,-1.089551,-1.389550,-1.942445,0.301990,3.299492,0.002000,-0.183756,0.000000
552.000000,0.002000,0.806564,-0.835193,-0.946740,0.834283,-0.449346,1.085251,-1.813013,3.039428,2.396876,0.002000,1.414874,0.000000
553.000000,0.002000,1.148351,-0.910850,1.402845,-0.810140,0.614663,1.407411,-2.010946,1.666333,-2.424168,0.002000,0.442846,0.000000
554.000000,0.002000,0.335845,0.319118,0.307265,-0.086014,-1.125453,-0.342571,-1.483343,-0.284526,-0.867032,0.002000,-0.252711,0.000000
555.000000,0.002000,-1.638424,-1.776389,0.215553,1.256737,0.739094,-0.385988,2.033903,2.081875,-0.177866,0.002000,-0.531994,0.000000
556.000000,0.002000,0.568007,0.082611,-0.821535,-1.744372,0.715537,1.630906,-1.610335,-0.315209,3.148182,0.002000,1.329141,0.000000
557.000000,0.002000,0.018922,-0.082034,-0.957158,1.648594,0.432790,-0.191029,0.420174,-1.248405,4.118826,0.002000,0.403896,0.000000
558.000000,0.002000,1.013972,-1.730276,0.588742,-0.786121,-0.572602,-1.649750,-1.746802,2.972118,-1.066200,0.002000,0.382203,0.000000
559.000000,0.002000,0.384323,1.009712,-1.005312,2.134552,-0.026964,2.384405,-1.104020,-2.769062,2.788451,0.002000,0.990909,0.000000
560.000000,0.002000,0.101407,2.171165,0.662074,-0.074497,-1.618318,1.861565,-0.095905,-3.185154,-0.947940,0.002000,0.806564,0.000000
561.000000,0.002000,0.100581,0.539161,0.086177,-0.859827,-0.437908,1.648551,-0.870610,-1.754035,-0.697178,0.002000,1.148351,0.000000
562.000000,0.002000,2.190898,0.983636,-0.085615,1.458773,-2.026206,0.001055,-2.883091,-1.404830,0.231968,0.002000,0.335845,0.000000
563.000000,0.002000,0.252331,-0.390798,1.209850,-1.089535,0.539138,1.812177,-1.261172,1.275043,-3.912782,0.002000,-1.638424,0.000000
564.000000,0.002000,-1.406105,-1.604739,1.458715,-0.517490,1.493223,-0.928644,1.489031,1.757049,-1.509074,0.002000,0.568007,0.000000
565.000000,0.002000,2.153120,0.468305,0.112738,2.172271,-0.825654,-0.463338,-3.328028,-0.678406,-0.230645,0.002000,0.018922,0.000000
566.000000,0.002000,0.657268,-0.647054,0.171244,0.296957,-1.400594,1.549609,-2.859280,3.202239,-1.644450,0.002000,1.013972,0.000000
567.000000,0.002000,0.038909,0.626564,-1.557999,-1.070017,0.613952,-1.289130,-0.233390,-1.634392,3.891373,0.002000,0.384323,0.000000
568.000000,0.002000,-0.507035,0.844996,-0.675594,0.109783,-0.010526,-0.388241,1.856344,-3.032492,2.630066,0.002000,0.101407,0.000000
569.000000,0.002000,-0.993361,2.042072,0.038118,0.489219,-1.116832,1.521866,1.354890,-2.940224,-0.013328,0.002000,0.100581,0.000000
570.000000,0.002000,-0.578918,-1.692370,0.729346,0.202447,-2.791444,2.005562,1.337725,3.341738,-1.405839,0.002000,2.190898,0.000000
571.000000,0.002000,0.699136,-0.298760,-1.102230,0.452714,1.553565,-0.176937,-2.074802,0.911931,4.009038,0.002000,0.252331,0.000000
572.000000,0.002000,-0.024549,-0.835856,-0.942094,-2.262615,-0.419718,-1.226070,0.219593,3.000245,3.334607,0.002000,-1.406105,0.000000
573.000000,0.002000,-0.103213,-1.051390,0.246649,-0.038482,-0.482727,0.209012,0.366664,4.142875,-0.916276,0.002000,2.153120,0.000000
574.000000,0.002000,0.607993,-0.839632,-1.368245,-1.764408,0.053782,-0.459582,-1.589485,2.107759,3.152770,0.002000,0.657268,0.000000
575.000000,0.002000,1.561280,-0.940270,-0.659943,0.633509,-1.692303,-0.425071,-3.092951,2.019179,1.314442,0.002000,0.038909,0.000000
576.000000,0.002000,0.213017,0.599369,-0.256317,1.658399,-1.181063,0.738054,-1.433270,-2.503501,1.519779,0.002000,-0.507035,0.000000
577.000000,0.002000,0.460794,-0.400986,-0.971171,1.330506,-0.010090,0.988511,-1.636635,1.223480,3.550100,0.002000,-0.993361,0.000000
578.000000,0.002000,1.426317,2.488442,1.695970,1.041440,1.569756,-0.367832,-0.739141,-1.323951,-0.912577,0.002000,-0.578918,0.000000
579.000000,0.002000,0.141807,1.833435,0.355704,-0.112299,0.804123,-0.745644,-0.067841,-4.115222,-0.754409,0.002000,0.699136,0.000000
580.000000,0.002000,-0.477286,0.466380,-0.094393,0.048051,-0.698571,-2.329041,2.044119,-2.616069,-0.028468,0.002000,-0.024549,0.000000
581.000000,0.002000,-0.983118,-0.898322,0.802052,0.334915,1.702430,-0.372065,2.708325,2.265855,-2.404903,0.002000,-0.103213,0.000000
582.000000,0.002000,-1.846532,0.604137,-1.629584,0.084297,-0.453105,-0.740963,1.992737,-0.765351,1.827610,0.002000,0.607993,0.000000
583.000000,0.002000,-2.121176,-1.838847,1.966764,0.136104,1.072931,2.215843,1.045932,0.902828,-0.974393,0.002000,1.561280,0.000000
584.000000,0.002000,-0.196234,0.086583,1.419255,0.826477,-0.961364,-1.427016,0.526701,-0.797177,-4.493798,0.002000,0.213017,0.000000
585.000000,0.002000,0.934180,-1.391505,0.869006,1.306831,0.316715,-0.610463,-1.775595,2.728507,-1.994422,0.002000,0.460794,0.000000
586.000000,0.002000,0.184181,-0.341678,0.024291,-1.056172,-0.807722,1.233425,-1.206595,3.188567,-0.844510,0.002000,1.426317,0.000000
587.000000,0.002000,1.279812,-0.885966,0.400886,-0.022359,-1.400470,0.872579,-3.518950,2.890469,-0.392354,0.002000,0.141807,0.000000
588.000000,0.002000,-0.009657,-1.797165,-0.802253,0.310103,-0.291132,0.607715,0.410723,3.937018,1.018608,0.002000,-0.477286,0.000000
589.000000,0.002000,0.193214,1.297342,1.001331,-0.827684,0.963905,-1.424861,-0.642849,-3.114203,-2.643737,0.002000,-0.983118,0.000000
590.000000,0.002000,0.597213,-0.815276,1.801214,-0.903443,-1.376883,-0.416559,-1.121582,1.328231,-2.873848,0.002000,-1.846532,0.000000
591.000000,0.002000,0.215240,-1.006366,-0.182905,-0.757451,-0.362646,0.004768,-0.272005,3.102592,0.164912,0.002000,-2.121176,0.000000
592.000000,0.002000,0.896248,0.007617,0.886865,0.554253,0.146532,0.251860,-3.126546,0.451884,-3.235060,0.002000,-0.196234,0.000000
593.000000,0.002000,1.103694,0.400531,-0.857703,1.604324,-0.266491,-1.458336,-3.358467,-1.277456,2.743682,0.002000,0.934180,0.000000
594.000000,0.002000,0.135455,0.045166,1.859346,0.951382,1.835870,0.187289,-0.346860,-0.131156,-3.937513,0.002000,0.184181,0.000000
595.000000,0.002000,-1.626322,-0.134822,-0.584094,0.839534,-0.655617,0.185675,4.009402,0.116922,1.077981,0.002000,1.279812,0.000000
596.000000,0.002000,0.335106,-2.437564,1.114925,0.637025,0.378576,-0.539698,-0.307892,2.307721,-1.060821,0.002000,-0.009657,0.000000
597.000000,0.002000,0.013748,-1.844701,-0.361113,1.630630,0.172816,0.930198,-0.174746,3.962016,0.659214,0.002000,0.193214,0.000000
598.000000,0.002000,0.608962,-1.591448,0.003222,0.405779,0.873674,0.933253,-0.975327,3.849336,-0.441141,0.002000,0.597213,0.000000
599.000000,0.002000,-1.057474,-0.555985,0.026738,-0.216155,0.833679,2.160456,3.670620,1.715728,-0.571048,0.002000,0.215240,0.000000
600.000000,0.002000,0.183450,-0.470742,0.272796,1.998992,0.764041,1.687255,-1.204692,1.530627,-1.310196,0.002000,0.896248,0.000000
601.000000,0.002000,0.817978,-0.278914,1.431568,-1.307971,1.472396,0.074876,-1.760036,0.799943,-3.339147,0.002000,1.103694,0.000000
602.000000,0.002000,1.462214,-0.428702,-0.637841,-1.786935,0.165211,0.976296,-3.728745,1.213883,2.191040,0.002000,0.135455,0.000000
603.000000,0.002000,-1.664173,-0.126569,-0.363438,-0.696028,1.937132,1.349228,3.652154,0.297505,0.954402,0.002000,-1.626322,0.000000
604.000000,0.002000,0.779051,-1.509662,-0.277391,-1.275114,1.009090,0.111973,-1.790414,3.663921,0.304696,0.002000,0.335106,0.000000
605.000000,0.002000,0.968744,-0.730357,-0.762362,-0.551680,-0.316632,-0.444995,-3.161463,2.447813,2.321508,0.002000,0.013748,0.000000
606.000000,0.002000,-1.446940,2.620574,-0.747473,-1.216271,-0.448323,0.692689,0.975824,-1.752895,0.526277,0.002000,0.608962,0.000000
607.000000,0.002000,-1.300347,-0.803850,-0.774295,1.425942,1.458338,-0.573361,3.048104,2.130548,1.807278,0.002000,-1.057474,0.000000
608.000000,0.002000,-0.269390,0.825372,-0.298323,-0.117248,-0.859371,1.030002,1.216133,-3.907229,1.032843,0.002000,0.183450,0.000000
609.000000,0.002000,-0.922823,-1.451338,0.021857,-1.648153,-1.363277,-0.635847,2.182356,3.367804,-0.259500,0.002000,0.817978,0.000000
610.000000,0.002000,0.042539,1.530932,0.092448,0.251473,-0.321148,0.033064,0.191548,-4.462526,-0.033661,0.002000,1.462214,0.000000
611.000000,0.002000,-0.099008,-1.050654,-0.305953,0.047535,0.233280,-1.034463,0.122423,4.036489,1.166159,0.002000,-1.664173,0.000000
612.000000,0.002000,-0.438474,-0.370164,-0.959255,-0.339360,0.577612,0.280229,2.013933,1.124341,3.740655,0.002000,0.779051,0.000000
613.000000,0.002000,0.538330,-0.142445,-0.200353,1.093307,-0.746224,0.906261,-2.121645,0.066586,0.372602,0.002000,0.968744,0.000000
614.000000,0.002000,-1.714046,0.493644,0.487015,1.466625,-0.142590,0.265930,3.551508,-1.180585,-1.061205,0.002000,-1.446940,0.000000
615.000000,0.002000,-0.839129,0.990121,-1.364758,0.225189,0.535671,0.387921,1.609833,-2.031598,2.725418,0.002000,-1.300347,0.000000
616.000000,0.002000,-0.021870,-0.271207,-1.317175,1.469488,0.513365,0.864502,0.432343,1.308170,4.472229,0.002000,-0.269390,0.000000
617.000000,0.002000,0.189703,1.702570,0.067634,0.331527,-1.041770,0.433360,-0.439453,-4.385301,-0.289597,0.002000,-0.922823,0.000000
618.000000,0.002000,-0.463022,0.447024,0.105720,-0.229956,-0.635087,-0.894371,2.590402,-2.039717,0.146688,0.002000,0.042539,0.000000
619.000000,0.002000,0.027762,-0.425542,1.421976,-0.070397,-0.607464,2.039672,0.188824,1.360035,-4.231849,0.002000,-0.099008,0.000000
620.000000,0.002000,0.456363,-0.528671,-0.108004,1.596772,-0.266930,0.709157,-0.789441,3.036373,0.633116,0.002000,-0.438474,0.000000
621.000000,0.002000,-0.740867,-0.608291,-0.640726,1.156962,-0.172839,1.848233,2.642540,1.990566,2.489156,0.002000,0.538330,0.000000
622.000000,0.002000,-1.134312,0.777277,-0.291041,0.922110,-0.101709,-1.799299,2.892659,-2.334242,1.181090,0.002000,-1.714046,0.000000
623.000000,0.002000,0.554128,-0.670126,-0.060362,-0.965955,0.318693,-0.438264,-1.977771,2.604152,1.600322,0.002000,-0.839129,0.000000
624.000000,0.002000,-0.711041,0.719668,-0.248419,-0.020753,-0.787314,0.246923,2.669924,-2.609457,0.773712,0.002000,-0.021870,0.000000
625.000000,0.002000,-0.730874,-1.641703,0.275667,-0.458302,-1.552706,-0.341643,1.876701,2.916018,-0.995379,0.002000,0.189703,0.000000
626.000000,0.002000,-0.708385,-0.015779,-0.491730,-0.572026,-1.551658,1.423177,3.478201,-0.972504,2.488443,0.002000,-0.463022,0.000000
627.000000,0.002000,0.954190,0.544145,0.447212,-0.076051,-0.326866,0.750375,-3.803015,-2.487177,-1.485011,0.002000,0.027762,0.000000
628.000000,0.002000,-0.616121,0.466290,1.714832,-0.082595,0.767294,-1.480655,0.337377,-0.991350,-3.185104,0.002000,0.456363,0.000000
629.000000,0.002000,-0.832186,0.172339,-1.649217,-1.036656,0.545228,1.491897,1.651590,-0.369764,3.370108,0.002000,-0.740867,0.000000
630.000000,0.002000,1.398562,-0.397912,0.782579,0.030012,0.216434,-0.823444,-4.143280,1.554268,-0.666708,0.002000,-1.134312,0.000000
631.000000,0.002000,-1.723228,1.797539,-0.356872,-0.029936,-0.708937,-0.160238,1.977615,-2.033286,0.423372,0.002000,0.554128,0.000000
632.000000,0.002000,0.545657,0.150818,-0.255471,0.722280,-1.998764,0.213026,-2.576363,-1.183691,0.669718,0.002000,-0.711041,0.000000
633.000000,0.002000,1.685792,-1.648046,0.298714,-0.804542,-0.646582,1.138173,-2.126450,2.048544,-0.464890,0.002000,-0.730874,0.000000
634.000000,0.002000,0.910646,-0.029856,-0.118171,0.295440,0.933630,-1.763775,-3.233604,-0.111163,1.365957,0.002000,-0.708385,0.000000
635.000000,0.002000,-0.142688,-1.227636,0.038127,-0.410217,-0.453667,-0.589430,0.180264,4.407264,0.039217,0.002000,0.954190,0.000000
636.000000,0.002000,0.512718,0.068599,-0.272276,0.440235,0.895921,-1.106779,-2.037170,-0.343316,0.832895,0.002000,-0.616121,0.000000
637.000000,0.002000,-0.489725,-0.279297,1.257744,-0.962663,-1.251957,1.147607,1.099504,0.130666,-3.827668,0.002000,-0.832186,0.000000
638.000000,0.002000,-2.086635,0.040071,-0.327755,-0.514735,-0.101381,-0.332211,3.628603,-0.154746,0.672271,0.002000,1.398562,0.000000
639.000000,0.002000,1.455808,0.055492,1.484926,-0.963657,0.373261,0.383027,-2.243081,-0.012214,-2.617626,0.002000,-1.723228,0.000000
640.000000,0.002000,-2.123890,0.459585,0.280058,0.941326,-0.225420,-0.297087,3.267069,-0.862346,-0.330596,0.002000,0.545657,0.000000
641.000000,0.002000,1.390534,-1.641349,-0.155036,-0.585522,1.488142,1.007567,-2.219018,2.658890,0.249240,0.002000,1.685792,0.000000
642.000000,0.002000,0.066060,-0.495795,1.216578,-0.040385,0.648974,-0.585844,-0.441374,1.878388,-4.478295,0.002000,0.910646,0.000000
643.000000,0.002000,-0.338682,2.034763,1.054178,2.054475,-0.591566,-0.379689,0.467714,-2.807432,-1.492376,0.002000,-0.142688,0.000000
644.000000,0.002000,0.950834,0.559299,-1.063696,-0.371032,1.701235,0.147602,-2.795292,-1.868904,3.085720,0.002000,0.512718,0.000000
645.000000,0.002000,-0.431096,0.572751,0.677557,1.084419,-0.110097,-1.212975,1.770589,-1.853476,-2.374877,0.002000,-0.489725,0.000000
646.000000,0.002000,1.307184,-0.467441,-0.860153,0.775480,-0.626457,-1.318523,-3.556744,0.973536,2.197956,0.002000,-2.086635,0.000000
647.000000,0.002000,0.859104,-0.809627,0.873312,-0.416076,0.631657,1.764285,-2.461993,2.350802,-2.429362,0.002000,1.455808,0.000000
648.000000,0.002000,1.199736,0.456153,-0.357579,-1.387478,-2.199058,0.930157,-3.949709,-2.038232,1.145438,0.002000,-2.123890,0.000000
649.000000,0.002000,0.041082,0.593466,0.010186,0.300051,-0.563473,0.418362,-0.011413,-2.944519,0.529035,0.002000,1.390534,0.000000
650.000000,0.002000,2.198296,-0.990671,-1.002669,0.729443,1.912069,-0.130342,-2.261356,1.032075,1.008225,0.002000,0.066060,0.000000
651.000000,0.002000,-0.976895,-0.589580,-2.178932,1.279800,-0.451756,-0.509669,1.279398,0.703651,2.689139,0.002000,-0.338682,0.000000
652.000000,0.002000,-0.629650,-0.653285,0.078514,0.423773,-1.114968,-1.301959,3.034266,2.753965,-0.162946,0.002000,0.950834,0.000000
653.000000,0.002000,0.417801,-1.240216,0.900054,0.963193,-1.963075,0.113348,-1.397610,3.010272,-2.583644,0.002000,-0.431096,0.000000
654.000000,0.002000,1.802242,-0.208285,1.574371,-0.324742,-0.373020,-1.332305,-2.103926,-0.048973,-2.069046,0.002000,1.307184,0.000000
655.000000,0.002000,0.198989,1.988732,1.117283,-2.035902,-0.660908,-1.165218,-0.287080,-2.780066,-1.615557,0.002000,0.859104,0.000000
656.000000,0.002000,-1.563905,0.018627,1.054325,-0.425419,0.088036,-0.741760,2.904569,-0.035413,-2.361607,0.002000,1.199736,0.000000
657.000000,0.002000,0.030547,-0.036884,1.269765,-1.072525,0.290041,-0.761835,-2.166576,-0.614405,-5.139112,0.002000,0.041082,0.000000
658.000000,0.002000,-0.709854,0.017516,0.323626,-0.959532,-0.299153,0.285491,3.440170,0.203738,-0.867570,0.002000,2.198296,0.000000
659.000000,0.002000,-0.333791,-0.020129,0.775023,2.108748,1.613562,-1.263381,1.410857,0.404038,-3.349841,0.002000,-0.976895,0.000000
660.000000,0.002000,0.432838,-0.808718,-1.104124,-1.324249,0.064717,0.556999,-1.321662,2.517898,3.374756,0.002000,-0.629650,0.000000
661.000000,0.002000,-0.789102,0.001248,-0.159940,-0.131706,2.172333,1.177070,4.322295,0.236586,1.186406,0.002000,0.417801,0.000000
662.000000,0.002000,-0.831957,-0.598150,-1.520039,1.640057,-0.417871,-0.896880,2.537346,1.328600,2.650775,0.002000,1.802242,0.000000
663.000000,0.002000,0.417854,-0.040019,-1.259787,-1.070288,-0.113782,-1.258350,-1.545479,-0.995064,3.893049,0.002000,0.198989,0.000000
664.000000,0.002000,0.028621,1.342622,-0.739936,-0.633792,-0.430770,0.944285,0.044128,-3.748364,2.074246,0.002000,-1.563905,0.000000
665.000000,0.002000,1.315138,-0.323457,0.197828,-0.472876,-1.407064,-0.447473,-3.973767,0.940187,-0.524513,0.002000,0.030547,0.000000
666.000000,0.002000,0.097751,1.401523,0.158434,0.188583,0.560918,-0.921659,-2.601803,-4.057774,-2.014744,0.002000,-0.709854,0.000000
667.000000,0.002000,-1.141901,-1.310970,-1.532921,0.647375,1.386826,0.489517,1.586339,1.853310,2.066645,0.002000,-0.333791,0.000000
668.000000,0.002000,-1.711970,0.046135,-0.958374,0.238796,-0.448112,-0.610795,3.365945,-0.603942,1.581311,0.002000,0.432838,0.000000
669.000000,0.002000,-0.080812,-0.703859,-0.770784,-2.029945,0.607947,-0.354109,0.296274,2.466407,2.855573,0.002000,-0.789102,0.000000
670.000000,0.002000,-0.480845,0.703586,0.929145,0.152581,0.501275,-0.786403,1.618823,-2.248358,-3.422518,0.002000,-0.831957,0.000000
671.000000,0.002000,0.371173,-0.989823,0.643631,1.016996,0.113111,1.496995,-1.290030,3.574072,-2.323428,0.002000,0.417854,0.000000
672.000000,0.002000,0.688897,0.274647,-0.603620,0.168938,0.318625,-0.273377,-2.445211,-1.113318,3.449674,0.002000,0.028621,0.000000
673.000000,0.002000,0.708860,0.422819,-3.116857,1.476414,-2.103493,-0.532832,-0.394688,-0.262123,1.849572,0.002000,1.315138,0.000000
674.000000,0.002000,0.644452,-1.913743,0.663562,-0.305054,-1.530421,-0.794703,-1.057416,3.110617,-1.156736,0.002000,0.097751,0.000000
675.000000,0.002000,-0.154072,1.193612,-0.098161,-2.172123,0.190387,-1.405228,0.704622,-4.463610,0.841811,0.002000,-1.141901,0.000000
676.000000,0.002000,-0.886614,-0.147354,1.059806,0.369860,-0.261782,-0.832714,2.411779,0.886269,-4.356116,0.002000,-1.711970,0.000000
677.000000,0.002000,0.026247,-0.114335,0.743554,-1.553783,-0.682848,0.310624,0.186987,1.124740,-3.120925,0.002000,-0.080812,0.000000
678.000000,0.002000,0.210359,-0.005927,1.366060,-0.125447,0.666244,-0.788330,-0.851014,0.221956,-4.355962,0.002000,-0.480845,0.000000
679.000000,0.002000,1.555114,0.613326,-0.285959,1.605994,-0.237953,-0.845195,-3.489883,-1.681705,0.940360,0.002000,0.371173,0.000000
680.000000,0.002000,1.496911,1.183120,0.718897,1.310159,1.357566,-0.090169,-2.522618,-2.380885,-1.342468,0.002000,0.688897,0.000000
681.000000,0.002000,-1.216077,0.140672,-0.743672,-0.484302,0.910075,-0.894137,3.499374,-0.521325,2.413764,0.002000,0.708860,0.000000
682.000000,0.002000,-0.159012,0.240057,0.100159,0.935192,-1.387181,-0.083393,1.019529,-0.904591,-0.473912,0.002000,0.644452,0.000000
683.000000,0.002000,-0.475175,1.272954,-1.696131,0.011756,1.208099,-1.829220,0.872911,-2.231394,2.417355,0.002000,-0.154072,0.000000
684.000000,0.002000,0.730184,-1.857483,0.382598,0.234437,-0.120710,0.002908,-1.456561,3.400331,-0.931013,0.002000,-0.886614,0.000000
685.000000,0.002000,-0.886904,0.878304,0.086453,-0.884106,-1.301895,-0.463137,3.194961,-3.100526,-0.630880,0.002000,0.026247,0.000000
686.000000,0.002000,0.247706,-1.018279,-0.654570,-0.241664,1.475183,0.111382,-2.026142,3.354162,1.183878,0.002000,0.210359,0.000000
687.000000,0.002000,0.207217,0.583570,2.929096,-0.004276,0.698346,-1.611855,-0.223661,-0.409329,-2.141165,0.002000,1.555114,0.000000
688.000000,0.002000,0.222858,0.976038,-1.556934,0.722566,0.915376,0.907144,1.552634,-2.338787,2.928073,0.002000,1.496911,0.000000
689.000000,0.002000,-1.329892,-0.355495,-1.197428,-0.332994,-1.235250,-0.984929,2.554017,0.714926,2.459042,0.002000,-1.216077,0.000000
690.000000,0.002000,1.486399,-0.410219,1.382182,0.247454,0.536765,1.276550,-2.426802,0.739060,-2.558705,0.002000,-0.159012,0.000000
691.000000,0.002000,1.486782,0.042780,0.501800,1.521434,0.871248,0.033929,-4.093927,-0.383337,-1.438534,0.002000,-0.475175,0.000000
692.000000,0.002000,-0.056099,0.538437,0.483342,0.264920,-0.235312,1.054868,0.202108,-2.169842,-1.704020,0.002000,0.730184,0.000000
693.000000,0.002000,-0.123650,0.504970,1.723696,0.594272,0.215860,-1.255601,0.067623,-1.087887,-1.035105,0.002000,-0.886904,0.000000
694.000000,0.002000,0.713016,0.325800,0.124770,1.046661,-1.526886,1.231782,-1.954592,-1.895278,0.047668,0.002000,0.247706,0.000000
695.000000,0.002000,-1.012673,-1.027297,0.323357,0.984630,-1.587069,-0.048464,4.745200,3.630891,-0.970425,0.002000,0.207217,0.000000
696.000000,0.002000,-1.369391,-0.766328,1.281511,-1.241394,-0.144619,0.555170,2.279475,1.391179,-2.185300,0.002000,0.222858,0.000000
697.000000,0.002000,1.914230,-1.665956,1.626650,-0.136638,-1.363868,0.260827,-1.360635,1.186789,-1.167417,0.002000,-1.329892,0.000000
698.000000,0.002000,-0.211438,-0.015005,-0.113412,0.259488,-0.027235,-1.045139,1.496300,0.793816,0.227943,0.002000,1.486399,0.000000
699.000000,0.002000,1.080544,-1.607677,0.456164,-0.349782,0.268527,-0.155050,-2.413822,2.834323,-0.932828,0.002000,1.486782,0.000000
700.000000,0.002000,-0.944870,0.570789,1.542796,2.112622,0.256079,-0.206761,1.810412,-1.081900,-3.178494,0.002000,-0.056099,0.000000
701.000000,0.002000,-0.000417,0.374155,0.409552,0.482598,-1.105432,0.420755,-0.389038,-1.136993,-2.105702,0.002000,-0.123650,0.000000
702.000000,0.002000,-0.799593,1.511639,1.706468,1.616794,-0.883771,0.298835,1.022991,-1.945422,-2.127084,0.002000,0.713016,0.000000
703.000000,0.002000,0.701783,0.073285,-0.461894,0.767113,-1.693349,1.638889,-1.767614,-0.637945,1.934076,0.002000,-1.012673,0.000000
704.000000,0.002000,-0.626490,1.710837,1.414415,-1.044998,-0.335054,0.380672,1.016615,-2.379942,-1.886786,0.002000,-1.369391,0.000000
705.000000,0.002000,-0.063661,-1.579931,-2.832012,-0.232603,0.802937,0.150925,0.047776,0.927699,1.663924,0.002000,1.914230,0.000000
706.000000,0.002000,-1.083427,-0.130620,1.400689,0.569751,0.074973,1.472002,2.267666,0.252794,-3.265374,0.002000,-0.211438,0.000000
707.000000,0.002000,-0.651656,0.504815,1.303181,-2.015498,0.364094,-0.300615,1.579328,-1.613628,-3.656913,0.002000,1.080544,0.000000
708.000000,0.002000,0.128536,-0.142448,-1.308764,-0.959033,-0.811610,-0.571980,-0.620809,-0.677510,4.157384,0.002000,-0.944870,0.000000
709.000000,0.002000,-1.202475,0.416100,-0.200908,0.578411,-0.896130,-0.163184,4.267262,-1.750103,0.674336,0.002000,-0.000417,0.000000
710.000000,0.002000,0.122531,-0.047278,0.664144,0.275249,-1.155792,1.112349,-0.046175,-0.532642,-2.243913,0.002000,-0.799593,0.000000
711.000000,0.002000,-0.784687,-0.335581,1.896182,2.421589,-0.674017,0.919447,1.270721,0.593679,-3.197721,0.002000,0.701783,0.000000
712.000000,0.002000,-0.799786,-0.281575,-0.589387,-0.309679,0.533367,-0.181705,2.614012,1.305479,2.662813,0.002000,-0.626490,0.000000
713.000000,0.002000,0.444781,1.022392,-0.498212,2.208662,-0.324332,0.793930,-1.715482,-3.170580,2.030005,0.002000,-0.063661,0.000000
714.000000,0.002000,-0.431414,-0.278982,0.529834,0.607366,-1.083960,-2.160269,1.586833,0.382109,-2.494013,0.002000,-1.083427,0.000000
715.000000,0.002000,-0.739395,-0.375960,-2.372194,0.579087,0.844518,-0.536705,0.763541,0.484538,2.735594,0.002000,-0.651656,0.000000
716.000000,0.002000,-1.381745,-0.112444,0.897864,-0.633375,0.976803,0.852833,3.367519,0.423452,-2.123836,0.002000,0.128536,0.000000
717.000000,0.002000,0.295076,-1.098768,-1.400256,0.955877,0.261402,-0.788276,-0.446394,2.590066,3.082512,0.002000,-1.202475,0.000000
718.000000,0.002000,0.174680,-1.652804,1.065927,-1.217973,-1.993137,-0.057682,-0.337280,2.951294,-1.976781,0.002000,0.122531,0.000000
719.000000,0.002000,0.063896,-1.607320,-0.965954,1.919169,0.477895,-0.079740,-0.435854,2.988838,2.107935,0.002000,-0.784687,0.000000
720.000000,0.002000,-0.724311,-0.773193,-1.489933,-1.520746,-0.667930,0.004939,1.468804,1.864674,3.371503,0.002000,-0.799786,0.000000
721.000000,0.002000,-0.874663,-0.684402,-0.711286,-0.222219,0.908340,-0.158607,2.849723,2.295028,2.663247,0.002000,0.444781,0.000000
722.000000,0.002000,1.127957,0.104828,-0.993257,0.695306,-0.114218,-0.189767,-3.619707,-0.102934,2.741832,0.002000,-0.431414,0.000000
723.000000,0.002000,-0.334622,-0.879557,-0.300007,1.259134,-0.751977,-0.283053,0.484427,2.597027,1.464459,0.002000,-0.739395,0.000000
724.000000,0.002000,0.875509,0.252271,2.285601,-1.292737,0.096739,1.069501,1.914998,-1.232696,-2.458761,0.002000,-1.381745,0.000000
725.000000,0.002000,0.375927,-0.913595,0.809741,0.681402,0.734012,1.053042,-1.511125,3.244176,-3.217291,0.002000,0.295076,0.000000
726.000000,0.002000,1.079931,1.094167,-1.094241,0.625218,0.758259,0.403724,-2.344900,-2.067427,2.216572,0.002000,0.174680,0.000000
727.000000,0.002000,-0.147637,1.131812,-1.684729,-0.975389,0.526095,0.945886,0.311442,-1.972206,3.139810,0.002000,0.063896,0.000000
728.000000,0.002000,-0.499417,-1.426938,-0.932570,-0.891910,0.235990,1.082813,1.255153,3.255185,2.080304,0.002000,-0.724311,0.000000
729.000000,0.002000,-1.012457,1.250570,-0.234538,-0.373476,-1.321107,0.061534,2.683949,-3.003168,0.582157,0.002000,-0.874663,0.000000
730.000000,0.002000,-0.863356,-1.035606,0.141667,1.593686,-0.912945,-0.105390,2.543651,3.561731,-1.329109,0.002000,1.127957,0.000000
731.000000,0.002000,-0.011136,1.344074,0.500017,-0.751031,-0.358967,0.234771,-0.070514,-4.299249,-1.362765,0.002000,-0.334622,0.000000
732.000000,0.002000,-1.431798,-0.628981,1.070073,1.476814,-0.716644,-0.708655,2.600232,1.589371,-2.170262,0.002000,0.875509,0.000000
733.000000,0.002000,-0.621083,1.734572,-1.098289,-0.872502,-1.093790,-1.534700,1.077006,-2.517330,1.893082,0.002000,0.375927,0.000000
734.000000,0.002000,0.572613,-0.861216,-0.509595,-0.851262,-0.105813,0.040865,-1.953174,3.414002,1.465468,0.002000,1.079931,0.000000
735.000000,0.002000,1.098582,-0.127067,0.813452,1.172449,-0.821600,-0.779938,-2.970419,0.489421,-2.615297,0.002000,-0.147637,0.000000
736.000000,0.002000,0.473291,0.753866,-0.888188,-0.756837,0.195746,-0.158472,-1.320499,-2.270430,3.000080,0.002000,-0.499417,0.000000
737.000000,0.002000,-0.221574,0.424253,-0.849073,0.777209,-0.789141,0.913259,1.730024,-2.132441,2.798360,0.002000,-1.012457,0.000000
738.000000,0.002000,1.629500,-0.777228,-0.300004,0.942513,-0.262468,-0.622537,-3.400212,1.950576,0.527872,0.002000,-0.863356,0.000000
739.000000,0.002000,-1.006559,-2.143308,1.796919,0.181169,-0.791534,1.992205,0.715505,1.592181,-1.355497,0.002000,-0.011136,0.000000
740.000000,0.002000,-0.204339,-0.447915,-0.198715,0.140887,0.792441,-1.267107,1.578752,1.782304,-0.319392,0.002000,-1.431798,0.000000
741.000000,0.002000,1.419864,-0.965107,0.679568,-1.750758,0.687266,0.515887,-3.141668,2.355737,-1.544652,0.002000,-0.621083,0.000000
742.000000,0.002000,-0.423788,-0.596671,0.567058,-0.760605,-0.566776,-0.679944,1.459564,2.797452,-2.686601,0.002000,0.572613,0.000000
743.000000,0.002000,0.988241,-0.513903,-0.768849,0.227827,0.923852,-1.544860,-3.276002,1.430328,2.516755,0.002000,1.098582,0.000000
744.000000,0.002000,-1.169096,1.103504,-0.575256,0.478745,-0.874168,-0.530932,2.782300,-2.808721,1.439188,0.002000,0.473291,0.000000
745.000000,0.002000,-1.849131,1.409952,-1.369860,-0.160435,-1.361454,2.843939,1.743848,-1.376515,1.343234,0.002000,-0.221574,0.000000
746.000000,0.002000,0.779461,0.183429,0.287915,2.424977,0.752270,0.656015,-3.261016,-1.108886,-1.611352,0.002000,1.629500,0.000000
747.000000,0.002000,-0.584375,0.365591,-1.667780,-1.043610,2.377349,0.018317,1.353394,-0.617479,3.743883,0.002000,-1.006559,0.000000
748.000000,0.002000,0.588038,1.557010,0.884027,-0.123396,1.203994,0.260800,-1.234547,-3.194071,-1.895835,0.002000,-0.204339,0.000000
749.000000,0.002000,-2.019540,-0.984209,-0.187795,-0.776604,-0.218921,-0.376086,2.819066,1.480166,0.233594,0.002000,1.419864,0.000000
750.000000,0.002000,0.486937,-0.106653,-0.493214,0.064656,0.554458,0.532759,-1.265297,0.632267,2.180858,0.002000,-0.423788,0.000000
751.000000,0.002000,0.595300,1.164152,-0.232294,1.301202,-0.004103,0.958069,-2.168001,-3.370312,0.949212,0.002000,0.988241,0.000000
752.000000,0.002000,0.728930,-2.579051,-0.937509,1.706662,-1.226023,0.712571,-0.632692,2.184440,0.740346,0.002000,-1.169096,0.000000
753.000000,0.002000,-0.321259,-0.488566,0.332798,-1.072332,-1.507076,1.584662,1.185874,2.073505,-1.518669,0.002000,-1.849131,0.000000
754.000000,0.002000,1.013751,0.506669,-0.622225,1.135484,0.523373,-0.476931,-2.635849,-3.066162,4.052134,0.002000,0.779461,0.000000
755.000000,0.002000,-1.522768,0.556964,-1.838177,1.503561,-1.367168,0.067393,1.806361,-0.672340,2.234634,0.002000,-0.584375,0.000000
756.000000,0.002000,0.653037,-0.188449,-1.175835,0.485178,1.287127,-1.526428,-1.941678,0.330618,3.921271,0.002000,0.588038,0.000000
757.000000,0.002000,0.287257,-0.002876,-0.036597,-3.064141,0.115370,0.317427,-0.431545,-1.024023,1.927304,0.002000,-2.019540,0.000000
758.000000,0.002000,-0.084223,0.419524,0.924434,0.173680,-0.877247,-0.044161,1.019186,-1.544544,-5.001186,0.002000,0.486937,0.000000
759.000000,0.002000,0.496615,1.012133,-0.044140,-1.540079,0.420593,0.892588,-2.424081,-3.591876,-0.097965,0.002000,0.595300,0.000000
760.000000,0.002000,1.618459,0.571110,-0.543694,-0.732032,-2.003942,-0.129782,-3.879006,-1.423459,1.366537,0.002000,0.728930,0.000000
761.000000,0.002000,-1.093895,0.205797,-1.306522,-0.198500,-0.080607,1.303575,2.134014,-1.183747,4.042096,0.002000,-0.321259,0.000000
762.000000,0.002000,-0.973376,0.239087,-0.607887,0.138595,2.084123,0.380743,3.774482,-1.237185,2.282454,0.002000,1.013751,0.000000
763.000000,0.002000,-0.933316,-0.034475,0.072678,-1.087234,1.133613,-0.090344,3.814074,0.417973,-0.736604,0.002000,-1.522768,0.000000
764.000000,0.002000,-0.205834,-0.377547,0.854643,-0.488771,0.279401,0.114784,0.695433,1.322769,-3.679828,0.002000,0.653037,0.000000
765.000000,0.002000,0.342427,-0.223426,2.464322,-1.558594,-0.849519,1.152007,-0.441267,0.295380,-2.782926,0.002000,0.287257,0.000000
766.000000,0.002000,0.193832,1.132005,-0.560981,0.175928,0.638986,1.020153,-0.328680,-3.716849,2.277414,0.002000,-0.084223,0.000000
767.000000,0.002000,-1.362941,-0.791757,-0.268010,1.792613,-0.639097,-0.703395,3.718553,2.387896,1.077321,0.002000,0.496615,0.000000
768.000000,0.002000,-0.496608,1.336386,-0.120041,-0.924510,-0.600451,-0.912587,1.224619,-4.299841,1.036297,0.002000,1.618459,0.000000
769.000000,0.002000,0.461469,-0.046481,-0.433554,-0.015001,-0.108233,0.581238,-1.239523,0.181713,2.461710,0.002000,-1.093895,0.000000
770.000000,0.002000,0.037996,1.714051,-0.767949,-1.190651,-0.653825,0.359461,-0.498976,-3.688173,1.687930,0.002000,-0.973376,0.000000
771.000000,0.002000,0.766990,-1.026007,-0.459626,0.698648,-2.316617,-0.602071,-2.477156,3.539283,1.363059,0.002000,-0.933316,0.000000
772.000000,0.002000,0.003583,0.326375,1.483129,-0.253620,-2.041154,0.448700,-0.143839,-0.692352,-4.032170,0.002000,-0.205834,0.000000
773.000000,0.002000,-0.050083,-0.843616,0.650042,1.204128,-1.943099,-1.564929,-0.709240,3.091593,-3.005124,0.002000,0.342427,0.000000
774.000000,0.002000,-0.364170,0.238682,-0.116222,0.952182,1.135339,-1.272776,-0.590637,-4.362016,0.831864,0.002000,0.193832,0.000000
775.000000,0.002000,-1.943457,0.508299,0.583368,-0.987621,0.659419,-0.243024,3.038588,-1.051930,-0.991469,0.002000,-1.362941,0.000000
776.000000,0.002000,0.926605,1.800463,-1.195104,-0.521316,1.594137,0.297799,-1.326011,-2.376024,1.662856,0.002000,-0.496608,0.000000
777.000000,0.002000,0.516507,0.409295,-0.419082,-1.819449,0.253314,-1.405258,-2.317976,-3.130412,2.070746,0.002000,0.461469,0.000000
778.000000,0.002000,0.397106,0.499647,-1.218684,0.742057,0.981994,0.438562,-1.124355,-1.391930,3.836173,0.002000,0.037996,0.000000
779.000000,0.002000,0.246223,-0.917984,-0.651856,0.927820,1.964279,0.726680,-0.740076,3.724279,2.375422,0.002000,0.766990,0.000000
780.000000,0.002000,-1.774745,-0.473361,-0.203571,-0.371960,-1.093304,0.224451,3.702508,1.122563,0.520991,0.002000,0.003583,0.000000
781.000000,0.002000,0.549857,0.000900,-1.542288,-1.035038,-1.438745,-0.461850,-1.409305,-0.175464,4.241252,0.002000,-0.050083,0.000000
782.000000,0.002000,0.862148,-0.118587,0.488371,-1.778318,-1.300474,0.501156,-2.909068,0.689655,-3.624278,0.002000,-0.364170,0.000000
783.000000,0.002000,0.965936,1.422605,1.961227,-0.475255,-0.306634,-0.025916,-0.933821,-1.451048,-1.989333,0.002000,-1.943457,0.000000
784.000000,0.002000,-0.072239,0.311124,-1.078361,-1.954192,0.186224,-0.003830,-0.212023,-1.399279,4.468396,0.002000,0.926605,0.000000
785.000000,0.002000,1.061600,-1.184887,-1.805252,-0.045206,0.342846,-2.164928,-1.359367,1.482296,2.363715,0.002000,0.516507,0.000000
786.000000,0.002000,0.830386,-0.521697,0.777607,1.911830,-0.303351,-1.434214,-2.691596,1.868263,-2.717424,0.002000,0.397106,0.000000
787.000000,0.002000,0.408075,-1.630003,-2.719679,0.111530,-1.271168,0.066393,-0.280130,0.998678,1.679796,0.002000,0.246223,0.000000
788.000000,0.002000,-1.096602,0.016491,-1.221776,0.540602,-1.318897,0.845426,2.691841,-0.112098,3.026702,0.002000,-1.774745,0.000000
789.000000,0.002000,-0.652761,-1.458941,0.169878,0.131092,0.349084,0.404068,1.779542,3.691985,-0.545617,0.002000,0.549857,0.000000
790.000000,0.002000,0.090826,-0.481393,1.397065,0.512434,1.120362,0.860454,-0.489642,1.858331,-3.940152,0.002000,0.862148,0.000000
791.000000,0.002000,1.497715,0.565267,-1.799771,0.486910,-0.764340,0.286331,-1.909300,-0.649501,2.245519,0.002000,0.965936,0.000000
792.000000,0.002000,-1.104690,0.407130,-0.628558,-0.557834,-1.448752,-0.041377,3.338268,-1.276167,2.011825,0.002000,-0.072239,0.000000
793.000000,0.002000,-0.487091,0.898967,0.510875,-0.912810,1.135141,-0.037709,2.072414,-3.086604,-2.232898,0.002000,1.061600,0.000000
794.000000,0.002000,1.314154,-0.429209,1.375225,0.045263,0.775206,-0.418124,-2.368209,0.951395,-2.744315,0.002000,0.830386,0.000000
795.000000,0.002000,-0.554131,1.499491,0.105835,-0.256595,1.164671,-1.383679,1.371801,-4.226214,-0.378575,0.002000,0.408075,0.000000
796.000000,0.002000,-0.860510,-1.631220,-0.301472,-0.866955,-0.133694,0.784789,1.914994,3.412864,0.663301,0.002000,-1.096602,0.000000
797.000000,0.002000,-0.256233,0.857662,-0.110591,0.249792,-1.157517,-0.919774,1.369357,-3.753853,1.325398,0.002000,-0.652761,0.000000
798.000000,0.002000,-0.432432,1.077037,-0.224827,1.694460,0.316269,-0.618441,1.426608,-3.544909,0.416387,0.002000,0.090826,0.000000
799.000000,0.002000,-0.576242,0.574609,-0.489828,-0.484278,3.740249,1.340272,2.190280,-2.144372,2.453429,0.002000,1.497715,0.000000
800.000000,0.002000,0.658802,-0.596917,-0.222959,-1.636474,-0.458775,0.722823,-4.302924,1.814054,0.889132,0.002000,-1.104690,0.000000
801.000000,0.002000,0.152177,-0.374126,-0.013451,-0.275481,1.139053,1.764250,-0.423102,2.834586,0.711891,0.002000,-0.487091,0.000000
802.000000,0.002000,0.815472,0.410602,0.480970,0.007560,0.294740,-0.168662,-2.830333,-1.678650,-1.258691,0.002000,1.314154,0.000000
803.000000,0.002000,-0.635430,0.852830,0.669562,0.882799,1.499925,0.934395,2.353686,-3.099083,-2.683551,0.002000,-0.554131,0.000000
804.000000,0.002000,1.004419,-0.726366,-0.172459,-1.082978,0.754363,-0.578754,-3.340891,3.008422,0.429354,0.002000,-0.860510,0.000000
805.000000,0.002000,0.633534,-0.608815,-0.226122,1.748362,0.476284,1.058129,-0.464787,3.851610,1.693574,0.002000,-0.256233,0.000000
806.000000,0.002000,1.925806,1.951761,1.239941,-0.021059,-0.032338,0.430778,-1.350204,-1.431124,-0.869743,0.002000,-0.432432,0.000000
807.000000,0.002000,0.938585,-1.019251,0.512562,-0.030801,1.578914,-1.142196,-2.682377,2.855004,-1.582243,0.002000,-0.576242,0.000000
808.000000,0.002000,-0.359117,-1.058572,-0.509006,0.685416,-0.586660,0.861046,2.868447,3.014360,1.138853,0.002000,0.658802,0.000000
809.000000,0.002000,0.115665,-0.547356,-0.550799,-1.797116,1.286126,-0.309369,-0.565975,2.371074,2.602672,0.002000,0.152177,0.000000
810.000000,0.002000,0.792041,0.144106,0.233458,-1.233673,0.716684,-0.191777,-3.626110,-0.507427,-1.234669,0.002000,0.815472,0.000000
811.000000,0.002000,0.111872,-0.675703,-1.370572,0.277139,1.227909,-1.091191,-0.307865,1.794802,4.067101,0.002000,-0.635430,0.000000
812.000000,0.002000,0.310565,-0.507037,-2.010782,-0.736377,0.080407,0.567515,-0.717986,0.607242,3.638931,0.002000,1.004419,0.000000
813.000000,0.002000,-0.392567,-1.092218,0.698650,-0.703615,-0.793145,0.771335,1.450299,3.453089,-2.109393,0.002000,0.633534,0.000000
814.000000,0.002000,0.521625,0.496893,-0.665042,0.983639,1.397273,-0.295135,-1.786769,-2.515995,2.560986,0.002000,1.925806,0.000000
815.000000,0.002000,0.731552,0.319650,-0.409855,-2.582235,0.523390,0.759932,-4.525622,-0.893258,2.893254,0.002000,0.938585,0.000000
816.000000,0.002000,-0.453337,0.892708,-0.473604,-1.466823,0.090380,0.275308,1.695428,-3.089901,1.994531,0.002000,-0.359117,0.000000
817.000000,0.002000,0.303656,1.033957,1.909343,0.340355,-0.464694,0.083433,-0.450584,-1.582904,-2.820552,0.002000,0.115665,0.000000
818.000000,0.002000,1.663873,0.900823,-1.505911,0.600394,-1.776173,0.911082,-2.116492,-1.104542,1.861808,0.002000,0.792041,0.000000
819.000000,0.002000,-0.689048,-0.548087,1.653150,-0.365837,0.764502,-0.702620,1.381066,1.041915,-3.460428,0.002000,0.111872,0.000000
820.000000,0.002000,-0.699318,0.386166,0.100867,-1.711765,1.181139,1.641136,3.305363,-1.778349,-1.119294,0.002000,0.310565,0.000000
821.000000,0.002000,-0.935127,0.381824,0.398296,-1.860531,-1.292277,0.094173,3.436583,-1.575791,-1.158608,0.002000,-0.392567,0.000000
822.000000,0.002000,-1.255775,1.222877,-2.086510,-1.049360,0.760252,-0.797064,1.354563,-1.015260,2.053189,0.002000,0.521625,0.000000
823.000000,0.002000,-0.590757,0.971970,-1.193258,-0.517581,0.211435,-2.178225,1.490617,-2.209822,2.802563,0.002000,0.731552,0.000000
824.000000,0.002000,0.350266,-1.296360,-0.093024,-0.319923,2.014649,0.586885,-0.914041,4.216550,0.209736,0.002000,-0.453337,0.000000
825.000000,0.002000,-2.313773,-0.842572,-1.542921,-0.999110,1.046015,2.063185,1.817921,0.679875,1.264789,0.002000,0.303656,0.000000
826.000000,0.002000,-0.401764,-0.415231,-0.673664,1.274668,-0.584611,-0.657596,1.794257,2.118480,2.697470,0.002000,1.663873,0.000000
827.000000,0.002000,0.797913,-0.886880,0.634387,-0.370477,-1.049053,0.029216,-2.851761,2.836335,-2.072931,0.002000,-0.689048,0.000000
828.000000,0.002000,1.629276,0.139064,-0.857670,-1.005689,-0.875239,0.320819,-3.438119,-0.505973,2.000506,0.002000,-0.699318,0.000000
829.000000,0.002000,-1.249339,-0.709785,0.704643,-0.563622,-0.204385,2.148178,3.293557,1.992099,-1.813477,0.002000,-0.935127,0.000000
830.000000,0.002000,0.155591,0.936795,0.770331,0.368219,1.190323,0.437918,-0.403051,-3.284973,-2.931532,0.002000,-1.255775,0.000000
831.000000,0.002000,0.140811,0.473488,1.855246,0.602979,-1.349175,-0.546972,-0.162766,-0.686692,-3.306219,0.002000,-0.590757,0.000000
832.000000,0.002000,1.415656,-0.302746,0.989679,-0.262254,-0.446627,-0.202909,-3.684740,0.706414,-2.660662,0.002000,0.350266,0.000000
833.000000,0.002000,0.585851,1.136388,0.671617,0.159902,-0.222612,0.689593,-1.887677,-2.997219,-2.029510,0.002000,-2.313773,0.000000
834.000000,0.002000,-0.974167,-1.619685,0.572627,-0.247798,1.083952,-0.013095,1.738393,3.020003,-1.121016,0.002000,-0.401764,0.000000
835.000000,0.002000,1.902618,-0.775664,-0.188090,-0.594676,-1.251391,-0.769384,-3.489106,1.469772,0.252377,0.002000,0.797913,0.000000
836.000000,0.002000,-1.035748,1.177830,-2.305167,-0.254311,1.202059,-1.271874,0.877148,-1.021161,2.008595,0.002000,1.629276,0.000000
837.000000,0.002000,-2.263660,0.375020,-0.082344,1.040153,-0.091764,-0.831445,2.951863,-1.718289,-0.371392,0.002000,-1.249339,0.000000
838.000000,0.002000,-0.479623,-0.301095,0.536988,-1.319091,0.548995,-1.906233,2.988208,1.119670,-2.640219,0.002000,0.155591,0.000000
839.000000,0.002000,-0.413804,-1.096925,-0.927363,-0.461513,-0.440362,-0.163125,1.407912,3.277302,2.647074,0.002000,0.140811,0.000000
840.000000,0.002000,0.888339,-0.524742,-1.385278,0.581185,-0.614641,0.120342,-2.430710,1.193799,3.488788,0.002000,1.415656,0.000000
841.000000,0.002000,0.102178,0.504995,1.328961,-1.217846,0.057692,0.608355,-0.729036,-1.423574,-4.004703,0.002000,0.585851,0.000000
842.000000,0.002000,0.217903,-0.659711,0.474008,-0.351692,0.368666,0.104632,-0.954093,2.559737,-2.439665,0.002000,-0.974167,0.000000
843.000000,0.002000,0.727175,-0.038905,-0.044599,-0.344289,-0.060817,-0.195021,-2.954599,-0.055012,0.306450,0.002000,1.902618,0.000000
844.000000,0.002000,0.260133,-0.069856,0.250114,-1.974248,-1.499163,0.432852,-2.272283,1.218153,-1.604522,0.002000,-1.035748,0.000000
845.000000,0.002000,-1.021913,-1.150438,-0.836111,-2.088347,1.158382,-1.409971,2.497238,2.728632,1.962883,0.002000,-2.263660,0.000000
846.000000,0.002000,0.642211,0.258798,1.040239,0.030525,0.472136,-0.636735,-2.168469,-0.762163,-4.290672,0.002000,-0.479623,0.000000
847.000000,0.002000,-0.186691,-1.143641,1.144554,1.162589,-1.370854,0.906766,0.520135,2.990956,-3.240782,0.002000,-0.413804,0.000000
848.000000,0.002000,-0.018767,1.283455,0.597946,0.148557,-0.151186,1.011696,-0.458553,-3.930703,-2.215953,0.002000,0.888339,0.000000
849.000000,0.002000,2.188619,-0.219773,0.900724,0.539254,-1.204477,1.411811,-2.988770,0.613121,-1.239485,0.002000,0.102178,0.000000
850.000000,0.002000,0.891364,-0.555126,-0.172482,1.003996,0.103808,0.149688,-3.801241,2.428433,0.263686,0.002000,0.217903,0.000000
851.000000,0.002000,-1.461738,-1.548796,0.126569,1.336237,1.658172,0.612658,2.372346,2.446562,-0.130884,0.002000,0.727175,0.000000
852.000000,0.002000,0.793007,0.638024,0.340025,-1.162621,0.120250,0.820020,-3.193024,-2.719907,-1.105751,0.002000,0.260133,0.000000
853.000000,0.002000,0.863017,-0.589698,-0.272533,-0.834498,-1.205867,0.005778,-3.529141,2.487894,1.436092,0.002000,-1.021913,0.000000
854.000000,0.002000,0.737522,0.433119,-0.210189,0.112364,0.377830,1.230299,-3.554455,-1.518674,0.835835,0.002000,0.642211,0.000000
855.000000,0.002000,1.320794,-1.292001,-0.518679,-2.182425,0.099861,-0.205678,-2.538479,2.508096,1.040559,0.002000,-0.186691,0.000000
856.000000,0.002000,-0.283398,0.816535,0.002385,0.015749,0.167433,1.025750,2.527834,-3.816999,-0.409559,0.002000,-0.018767,0.000000
857.000000,0.002000,-1.261492,0.514004,1.087546,0.558933,-0.045700,0.089118,2.644972,-1.776581,-2.350466,0.002000,2.188619,0.000000
858.000000,0.002000,0.739305,0.619155,-1.874313,0.105357,-0.132966,1.322014,-1.214843,-1.122233,2.944117,0.002000,0.891364,0.000000
859.000000,0.002000,-0.899886,0.482081,-0.054888,-1.912238,-1.401496,1.597637,3.919271,-1.812831,-0.347155,0.002000,-1.461738,0.000000
860.000000,0.002000,0.522558,-1.266343,-0.061495,0.573653,0.630642,1.158187,-1.721722,4.023793,0.254494,0.002000,0.793007,0.000000
861.000000,0.002000,-1.389781,-1.953679,0.295779,-2.018355,1.439135,-1.166464,1.479610,2.478950,0.230713,0.002000,0.863017,0.000000
862.000000,0.002000,0.842589,0.245616,-0.032996,-0.982739,1.036243,-1.155716,-3.828505,-1.258015,0.714048,0.002000,0.737522,0.000000
863.000000,0.002000,-1.562014,1.006107,-0.044045,0.530921,1.427329,-0.649594,3.215461,-2.214394,-0.122792,0.002000,1.320794,0.000000
864.000000,0.002000,1.959562,0.942314,-2.005125,-0.589080,0.672029,0.896322,-1.467032,-0.689709,1.453288,0.002000,-0.283398,0.000000
865.000000,0.002000,0.755050,-1.396535,-0.759495,0.341725,-1.581368,1.610204,-2.258043,3.454611,1.494734,0.002000,-1.261492,0.000000
866.000000,0.002000,-0.250757,-0.094062,0.397565,0.622495,-2.356865,-0.899787,1.373103,0.625279,-2.352205,0.002000,0.739305,0.000000
867.000000,0.002000,-1.022855,-1.150692,0.600605,-1.060034,-0.777698,0.256052,2.619653,2.762361,-1.548277,0.002000,-0.899886,0.000000
868.000000,0.002000,-0.013250,0.174373,-2.193683,-0.715232,1.224947,1.108738,-0.153428,-0.488301,3.460616,0.002000,0.522558,0.000000
869.000000,0.002000,-0.177137,-0.890729,-0.920626,0.074251,-1.053227,-0.000613,0.889944,3.136001,2.921532,0.002000,-1.389781,0.000000
870.000000,0.002000,0.921935,-1.095671,-1.092897,0.406760,1.162457,-0.464294,-2.008674,2.633169,2.455718,0.002000,0.842589,0.000000
871.000000,0.002000,-0.331011,0.450289,-0.884015,0.079722,-0.996740,-0.460982,1.633225,-1.912351,3.908389,0.002000,-1.562014,0.000000
872.000000,0.002000,1.234144,1.449848,-0.881447,1.168338,1.596203,-0.344974,-2.170341,-2.474605,1.503872,0.002000,1.959562,0.000000
873.000000,0.002000,-0.245082,-0.778675,-1.685382,-0.264139,-0.760662,-1.529598,0.874121,1.619696,3.690923,0.002000,0.755050,0.000000
874.000000,0.002000,0.303011,0.733595,2.011864,0.372760,0.472690,0.604447,-0.344457,-1.315780,-2.970779,0.002000,-0.250757,0.000000
875.000000,0.002000,-0.897410,1.336235,1.342354,0.026132,0.529211,0.165382,1.675854,-2.461212,-2.257741,0.002000,-1.022855,0.000000
876.000000,0.002000,0.197853,0.602163,0.873273,1.244459,0.374576,1.451335,-0.139454,-3.099633,-4.115926,0.002000,-0.013250,0.000000
877.000000,0.002000,1.974100,0.477809,-0.060138,1.072362,0.359017,-1.242301,-3.521018,-0.826969,-0.027712,0.002000,-0.177137,0.000000
878.000000,0.002000,-0.866169,0.305321,1.024165,0.517272,0.320762,1.918620,2.390199,-0.876100,-3.399712,0.002000,0.921935,0.000000
879.000000,0.002000,0.244610,-0.779923,0.089076,0.742342,-1.131271,-0.792864,-1.207025,3.717462,-1.091281,0.002000,-0.331011,0.000000
880.000000,0.002000,-0.129153,0.264739,-1.661848,0.963937,-0.193112,-1.202890,0.629708,-0.726634,4.278966,0.002000,1.234144,0.000000
881.000000,0.002000,0.550789,0.595423,0.444853,0.490761,0.493649,-0.118542,-2.475130,-3.074892,-0.750045,0.002000,-0.245082,0.000000
882.000000,0.002000,-0.003763,-1.805936,-0.019323,0.861596,-0.104234,1.864815,-0.028369,4.057339,0.050662,0.002000,0.303011,0.000000
883.000000,0.002000,1.060715,-0.860129,-1.989269,-1.097510,0.907922,0.990986,-1.364473,1.036298,2.538196,0.002000,-0.897410,0.000000
884.000000,0.002000,-1.540558,0.314026,0.372876,1.266867,-0.125254,-0.412994,4.395861,-0.889259,-0.927687,0.002000,0.197853,0.000000
885.000000,0.002000,0.886293,-0.055259,-1.500328,1.740675,0.546569,-0.585135,-2.429640,0.397962,3.476956,0.002000,1.974100,0.000000
886.000000,0.002000,-0.818504,0.818839,0.140496,0.832352,1.587083,0.666381,3.049294,-2.938624,-0.823073,0.002000,-0.866169,0.000000
887.000000,0.002000,0.649830,0.434789,-0.204961,-0.725980,0.979425,-1.537535,-2.302241,-1.575810,0.900465,0.002000,0.244610,0.000000
888.000000,0.002000,-0.174007,1.857102,0.414674,0.776819,0.978328,-0.221969,0.264497,-3.661783,-0.882449,0.002000,-0.129153,0.000000
889.000000,0.002000,-0.128588,0.455420,0.222906,0.277127,0.150280,-0.535796,0.380000,-1.744785,-1.364024,0.002000,0.550789,0.000000
890.000000,0.002000,-2.157356,0.650085,1.820939,-0.857600,-0.278681,-0.622012,1.748255,-0.488183,-1.370817,0.002000,-0.003763,0.000000
891.000000,0.002000,-0.780280,1.454036,-0.256870,1.513841,-1.355271,1.799212,1.775338,-3.522810,0.482997,0.002000,1.060715,0.000000
892.000000,0.002000,0.293471,1.070360,-0.720001,-0.235411,-0.771039,-0.544246,-0.253782,-3.296800,2.253001,0.002000,-1.540558,0.000000
893.000000,0.002000,1.242494,-1.214217,-0.875155,-1.040963,-2.032167,0.815989,-2.612443,2.807985,1.836192,0.002000,0.886293,0.000000
894.000000,0.002000,-0.593520,0.662005,-0.340874,-0.153647,-0.838450,-1.305833,2.274034,-2.377970,1.885181,0.002000,-0.818504,0.000000
895.000000,0.002000,-1.519974,-0.216533,-0.784221,-0.562829,-1.251499,1.298572,3.460020,-0.016347,2.471232,0.002000,0.649830,0.000000
896.000000,0.002000,0.731294,-0.343235,0.070774,-1.896278,-0.958213,-0.883022,-3.075965,1.884841,-0.791439,0.002000,-0.174007,0.000000
897.000000,0.002000,-0.405472,0.433939,-0.183591,0.475177,0.253775,-0.144793,1.754799,-2.459574,1.636057,0.002000,-0.128588,0.000000
898.000000,0.002000,0.325199,-2.593389,0.097251,-0.172225,0.398072,-0.795439,-0.361988,2.607553,0.032355,0.002000,-2.157356,0.000000
899.000000,0.002000,0.413914,-0.199280,0.669392,0.483665,-1.322762,0.540306,-2.370185,0.864591,-2.532631,0.002000,-0.780280,0.000000
900.000000,0.002000,0.738607,1.304214,0.104812,-0.507257,1.128379,-1.223351,-2.216781,-3.625642,-0.165222,0.002000,0.293471,0.000000
901.000000,0.002000,-1.913801,-2.285499,-1.601841,-0.453503,-0.820905,0.940219,0.979531,1.189383,0.825965,0.002000,1.242494,0.000000
902.000000,0.002000,-0.037907,-0.157305,0.276240,-1.411293,0.884148,0.463217,0.432450,0.716366,-1.371341,0.002000,-0.593520,0.000000
